"Alphabet","timestamp","user_id","flex_1","flex_2","flex_3","flex_4","flex_5","Qw","Qx","Qy","Qz","GYRx","GYRy","GYRz","ACCx","ACCy","ACCz","ACCx_body","ACCy_body","ACCz_body","ACCx_world","ACCy_world","ACCz_world"
"A","1617445188.7587073","7","-10","46","47","40","37","0.687683","0.184021","-0.702271","0.007446","-0.022901","-0.015267","-0.015267","9.380102","2.204761","-0.616089","-0.111255","-0.172266","-0.084937","0.12561","-0.110059","-0.144751"
"A","1617445188.7489452","7","-10","47","44","38","35","0.687744","0.184143","-0.702148","0.007751","-0.022901","-0.015267","-0.015267","9.347803","2.209546","-0.618481","-0.144751","-0.165088","-0.089722","0.128003","-0.093311","-0.174658"
"A","1617445188.738829","7","-10","47","48","46","33","0.687866","0.184265","-0.701965","0.008057","-0.015267","-0.015267","-0.007634","9.317896","2.183228","-0.634033","-0.174658","-0.19021","-0.108862","0.153125","-0.104077","-0.209351"
"A","1617445188.7287788","7","-10","48","50","40","33","0.687988","0.184326","-0.701843","0.00824","-0.015267","-0.007634","-0.007634","9.326269","2.154517","-0.662744","-0.16748","-0.216528","-0.141162","0.191406","-0.122021","-0.206958"
"A","1617445188.7187448","7","-10","47","47","41","36","0.68811","0.184448","-0.701721","0.008301","-0.007634","-0.007634","-0.007634","9.34541","2.18562","-0.679492","-0.14834","-0.187817","-0.160303","0.202173","-0.095703","-0.18064"
"A","1617445188.7091331","7","-9","45","50","44","36","0.688171","0.18457","-0.70166","0.008301","-0.007634","-0.007634","0","9.348999","2.228687","-0.697437","-0.144751","-0.145947","-0.179443","0.209351","-0.05144","-0.165088"
"A","1617445188.698866","7","-10","49","46","43","37","0.688232","0.184631","-0.701538","0.008179","0","-0.007634","0","9.353785","2.263379","-0.709399","-0.13877","-0.113647","-0.193799","0.214136","-0.019141","-0.150732"
"A","1617445188.6889129","7","-10","51","48","42","38","0.688354","0.184753","-0.701355","0.007996","-0.007634","-0.007634","0.007634","9.363355","2.321997","-0.704614","-0.128003","-0.059814","-0.192603","0.198584","0.026318","-0.128003"
"A","1617445188.6788278","7","-11","48","48","38","35","0.688538","0.185059","-0.701172","0.007812","-0.015267","-0.015267","0.015267","9.369336","2.42727","-0.680689","-0.120825","0.037085","-0.173462","0.154321","0.110059","-0.098096"
"A","1617445188.6687295","7","-10","52","44","40","37","0.68866","0.185486","-0.700928","0.007751","-0.022901","-0.015267","0.022901","9.374121","2.534936","-0.655566","-0.114844","0.137573","-0.150732","0.105273","0.196191","-0.069385"
"A","1617445188.6588278","7","-10","49","48","42","37","0.688843","0.185913","-0.700623","0.007751","-0.022901","-0.022901","0.022901","9.386084","2.612695","-0.620874","-0.100488","0.208154","-0.122021","0.058618","0.251221","-0.039478"
"A","1617445188.6489267","7","-10","49","48","40","35","0.689026","0.18634","-0.700317","0.007812","-0.022901","-0.022901","0.015267","9.392065","2.647388","-0.588574","-0.093311","0.238062","-0.094507","0.023926","0.269165","-0.026318"
"A","1617445188.6387389","7","-10","48","46","38","33","0.689209","0.186646","-0.700073","0.007935","-0.015267","-0.022901","0.007634","9.414795","2.639014","-0.551489","-0.070581","0.226099","-0.062207","-0.002393","0.244043","-0.008374"
"A","1617445188.6290371","7","-10","49","47","41","35","0.689453","0.186768","-0.699829","0.008118","-0.015267","-0.015267","0","9.473413","2.604321","-0.508423","-0.013159","0.191406","-0.025122","-0.027515","0.187817","0.034692"
"A","1617445188.6186988","7","-10","47","47","40","35","0.689636","0.186768","-0.699646","0.00824","-0.007634","-0.015267","-0.007634","9.527246","2.558862","-0.446216","0.039478","0.147144","0.031104","-0.068188","0.118433","0.071777"
"A","1617445188.6088402","7","-10","48","47","40","35","0.689758","0.186768","-0.699463","0.008545","-0.015267","-0.022901","-0.015267","9.563135","2.511011","-0.385205","0.075366","0.102881","0.087329","-0.110059","0.052637","0.093311"
"A","1617445188.5988796","7","-10","49","48","40","35","0.689941","0.186707","-0.69928","0.008911","-0.022901","-0.022901","-0.015267","9.587061","2.452393","-0.317017","0.098096","0.049048","0.150732","-0.155518","-0.019141","0.099292"
"A","1617445188.588873","7","-11","53","48","38","31","0.690125","0.186768","-0.699097","0.00946","-0.038168","-0.030534","-0.022901","9.603808","2.393775","-0.239258","0.112451","-0.002393","0.223706","-0.211743","-0.089722","0.096899"
"A","1617445188.578924","7","-9","47","47","40","35","0.690308","0.186951","-0.698853","0.010132","-0.045802","-0.030534","-0.022901","9.605005","2.345923","-0.162695","0.111255","-0.044263","0.294287","-0.267969","-0.14834","0.082544"
"A","1617445188.569023","7","-10","45","48","41","36","0.69043","0.187195","-0.698669","0.011047","-0.045802","-0.030534","-0.030534","9.571508","2.278931","-0.100488","0.075366","-0.102881","0.352905","-0.308643","-0.210547","0.031104"
"A","1617445188.5589046","7","-10","46","48","41","37","0.690491","0.187256","-0.698608","0.011902","-0.030534","-0.022901","-0.038168","9.545191","2.142554","-0.076563","0.046655","-0.228491","0.375635","-0.295483","-0.326587","-0.026318"
"A","1617445188.5495224","7","-10","49","46","39","33","0.690491","0.187073","-0.698608","0.012573","-0.015267","-0.015267","-0.045802","9.547583","1.966699","-0.084937","0.046655","-0.392383","0.366064","-0.240454","-0.476123","-0.065796"
"A","1617445188.5388558","7","-10","47","48","41","37","0.69043","0.186829","-0.69873","0.013062","-0.007634","0","-0.045802","9.543994","1.845874","-0.104077","0.039478","-0.502441","0.349316","-0.193799","-0.573022","-0.098096"
"A","1617445188.528898","7","-10","47","50","39","33","0.690247","0.186523","-0.698975","0.013428","0","0.007634","-0.038168","9.528442","1.774097","-0.118433","0.022729","-0.564648","0.33855","-0.166284","-0.623267","-0.128003"
"A","1617445188.5188522","7","-8","48","48","39","27","0.690002","0.186279","-0.69928","0.01355","0","0.015267","-0.030534","9.532031","1.748975","-0.130396","0.025122","-0.583789","0.333765","-0.156714","-0.641211","-0.130396"
"A","1617445188.508936","7","-10","47","49","40","36","0.689636","0.186279","-0.699646","0.013428","0","0.022901","-0.015267","9.510498","1.796826","-0.151929","0.003589","-0.535937","0.321802","-0.159106","-0.587378","-0.13877"
"A","1617445188.4988732","7","-10","45","48","40","35","0.689209","0.186462","-0.700012","0.013062","0","0.030534","0","9.454272","1.910474","-0.177051","-0.049048","-0.428271","0.308643","-0.177051","-0.471338","-0.165088"
"A","1617445188.4888592","7","-10","49","48","39","35","0.688721","0.186829","-0.700378","0.012634","-0.007634","0.030534","0.015267","9.395655","2.068384","-0.215332","-0.104077","-0.279932","0.283521","-0.194995","-0.312231","-0.181836"
"A","1617445188.479481","7","-10","51","50","41","36","0.688171","0.187317","-0.700806","0.012085","0","0.038168","0.030534","9.350195","2.220313","-0.279932","-0.145947","-0.139966","0.234473","-0.187817","-0.15791","-0.186621"
"A","1617445188.4689848","7","-10","49","46","40","35","0.687561","0.187805","-0.701294","0.011475","0.007634","0.045802","0.030534","9.329859","2.341138","-0.367261","-0.162695","-0.031104","0.163892","-0.150732","-0.033496","-0.173462"
"A","1617445188.4588728","7","-10","48","49","42","33","0.686951","0.18811","-0.701843","0.010742","0.022901","0.045802","0.030534","9.305933","2.411719","-0.47373","-0.183032","0.026318","0.07417","-0.080151","0.049048","-0.174658"
"A","1617445188.4495091","7","-10","47","49","38","35","0.68634","0.188049","-0.702454","0.009949","0.045802","0.045802","0.015267","9.278418","2.406934","-0.590967","-0.206958","0.013159","-0.025122","0.016748","0.070581","-0.194995"
"A","1617445188.439082","7","-10","49","49","38","36","0.685852","0.187622","-0.703064","0.009094","0.061069","0.053435","0.007634","9.28081","2.350708","-0.69624","-0.203369","-0.045459","-0.117236","0.122021","0.039478","-0.200977"
"A","1617445188.4295669","7","-8","49","47","41","35","0.685364","0.187012","-0.703674","0.008179","0.061069","0.053435","0","9.314306","2.302856","-0.771606","-0.16748","-0.095703","-0.179443","0.196191","0.001196","-0.174658"
"A","1617445188.4195468","7","-10","49","49","40","37","0.684998","0.18634","-0.704285","0.007202","0.061069","0.045802","-0.007634","9.326269","2.307642","-0.817065","-0.155518","-0.094507","-0.214136","0.229687","0.007178","-0.160303"
"A","1617445188.4095724","7","-10","46","46","42","32","0.684631","0.185669","-0.704773","0.006287","0.053435","0.045802","0","9.317896","2.342334","-0.826636","-0.161499","-0.062207","-0.214136","0.221313","0.038281","-0.15791"
"A","1617445188.3996372","7","-11","49","50","42","32","0.684387","0.185181","-0.7052","0.005371","0.045802","0.038168","0.007634","9.314306","2.410522","-0.824243","-0.163892","0","-0.204565","0.194995","0.094507","-0.144751"
"A","1617445188.389528","7","-10","49","48","40","35","0.684082","0.184875","-0.705566","0.004456","0.038168","0.038168","0.015267","9.301147","2.512207","-0.823047","-0.174658","0.094507","-0.194995","0.161499","0.183032","-0.132788"
"A","1617445188.3796415","7","-10","48","47","40","38","0.683838","0.184692","-0.705872","0.003662","0.030534","0.030534","0.022901","9.282007","2.624658","-0.846973","-0.191406","0.19978","-0.211743","0.149536","0.289502","-0.120825"
"A","1617445188.3689218","7","-10","48","48","38","33","0.683594","0.18457","-0.706116","0.002991","0.030534","0.030534","0.015267","9.26167","2.700024","-0.896021","-0.209351","0.267969","-0.25481","0.173462","0.368457","-0.118433"
"A","1617445188.359607","7","-9","48","48","41","33","0.68335","0.184265","-0.706421","0.00238","0.038168","0.030534","0.015267","9.265259","2.702417","-0.965405","-0.204565","0.266772","-0.318213","0.235669","0.381616","-0.110059"
"A","1617445188.3496137","7","-7","48","48","41","32","0.683167","0.183777","-0.706726","0.001709","0.045802","0.030534","0.007634","9.284399","2.659351","-1.04436","-0.184229","0.221313","-0.392383","0.319409","0.352905","-0.095703"
"A","1617445188.3396723","7","-10","49","49","43","37","0.683105","0.183228","-0.70697","0.001099","0.038168","0.030534","0","9.320288","2.618677","-1.095801","-0.14834","0.18064","-0.441431","0.378027","0.317017","-0.068188"
"A","1617445188.329806","7","-10","49","48","40","36","0.683044","0.182678","-0.707214","0.00061","0.030534","0.022901","-0.007634","9.362158","2.594751","-1.095801","-0.107666","0.156714","-0.439038","0.382812","0.283521","-0.034692"
"A","1617445188.319692","7","-10","49","46","40","33","0.682983","0.18219","-0.707336","0.000244","0.022901","0.015267","-0.007634","9.395655","2.583984","-1.073071","-0.072974","0.14834","-0.415112","0.362476","0.259595","-0.004785"
"A","1617445188.3096013","7","-10","49","49","39","33","0.682922","0.181763","-0.707458","0","0.015267","0.015267","-0.007634","9.418384","2.576807","-1.022827","-0.050244","0.143555","-0.363672","0.313428","0.236865","0.010767"
"A","1617445188.2996795","7","-9","48","47","42","35","0.682983","0.181519","-0.70752","-0.000122","0","0.007634","-0.007634","9.424365","2.568433","-0.955835","-0.045459","0.136377","-0.297876","0.252417","0.211743","0.00957"
"A","1617445188.2895358","7","-10","47","46","41","33","0.683044","0.181335","-0.70752","-0.000122","0","-0.007634","-0.007634","9.399243","2.546899","-0.884058","-0.071777","0.117236","-0.227295","0.189014","0.183032","-0.023926"
"A","1617445188.2798078","7","-10","45","48","40","37","0.683167","0.181213","-0.707458","0","-0.007634","-0.007634","-0.007634","9.363355","2.509815","-0.820654","-0.108862","0.082544","-0.16748","0.139966","0.145947","-0.072974"
"A","1617445188.2695546","7","-11","49","48","40","36","0.683289","0.181152","-0.707336","0.000122","-0.007634","-0.007634","-0.007634","9.347803","2.470337","-0.763232","-0.124414","0.045459","-0.113647","0.098096","0.101685","-0.100488"
"A","1617445188.259662","7","-10","51","50","40","36","0.683411","0.181152","-0.707214","0.000366","-0.015267","-0.015267","-0.007634","9.348999","2.435645","-0.721362","-0.124414","0.013159","-0.07417","0.068188","0.062207","-0.111255"
"A","1617445188.249627","7","-10","47","48","41","37","0.683472","0.181152","-0.707153","0.000671","-0.022901","-0.007634","-0.007634","9.360962","2.405737","-0.692651","-0.113647","-0.010767","-0.047852","0.047852","0.029907","-0.108862"
"A","1617445188.2397473","7","-10","48","46","39","37","0.683533","0.181274","-0.707092","0.000977","-0.022901","-0.007634","-0.015267","9.380102","2.380615","-0.680689","-0.095703","-0.033496","-0.037085","0.044263","0.001196","-0.098096"
"A","1617445188.229609","7","-10","48","50","39","32","0.683533","0.181274","-0.707031","0.001343","-0.015267","-0.007634","-0.022901","9.392065","2.331567","-0.675903","-0.084937","-0.077759","-0.033496","0.05144","-0.04187","-0.098096"
"A","1617445188.2198875","7","-10","51","49","36","32","0.683472","0.181213","-0.707092","0.001709","-0.007634","0","-0.022901","9.405225","2.271753","-0.66394","-0.072974","-0.131592","-0.019141","0.05144","-0.099292","-0.100488"
"A","1617445188.209652","7","-21","46","48","39","26","0.683472","0.181091","-0.707153","0.001953","-0.007634","0","-0.022901","9.425562","2.214331","-0.659155","-0.053833","-0.184229","-0.014355","0.061011","-0.154321","-0.095703"
"A","1617445188.1998336","7","-10","46","47","40","33","0.683411","0.180969","-0.707214","0.002075","-0.007634","0","-0.015267","9.436328","2.203564","-0.651978","-0.043066","-0.191406","-0.005981","0.055029","-0.166284","-0.087329"
"A","1617445188.189792","7","-10","48","47","40","35","0.68335","0.18103","-0.707275","0.002136","-0.007634","0","-0.007634","9.442309","2.22749","-0.640015","-0.037085","-0.16748","0.005981","0.037085","-0.14834","-0.076563"
"A","1617445188.1796284","7","-10","43","47","39","37","0.683289","0.181091","-0.707275","0.002197","-0.015267","-0.007634","0","9.426758","2.263379","-0.62207","-0.052637","-0.130396","0.025122","0.008374","-0.113647","-0.08374"
"A","1617445188.16982","7","-9","48","48","43","39","0.683289","0.181335","-0.707214","0.002197","-0.015267","-0.015267","0","9.389673","2.316016","-0.604126","-0.088525","-0.081348","0.043066","-0.020337","-0.063403","-0.107666"
"A","1617445188.159608","7","-10","48","49","43","37","0.68335","0.18158","-0.707153","0.002319","-0.022901","-0.015267","0","9.353785","2.361475","-0.605322","-0.12561","-0.038281","0.04187","-0.029907","-0.014355","-0.132788"
"A","1617445188.1497302","7","-9","47","48","41","37","0.683411","0.181763","-0.707031","0.002502","-0.015267","-0.007634","0","9.348999","2.377026","-0.617285","-0.130396","-0.022729","0.027515","-0.020337","0.004785","-0.132788"
"A","1617445188.1397812","7","-10","45","54","39","36","0.683411","0.181885","-0.70697","0.002686","-0.007634","-0.007634","-0.007634","9.368139","2.360278","-0.620874","-0.110059","-0.038281","0.023926","-0.011963","-0.013159","-0.117236"
"A","1617445188.1300063","7","-10","48","47","41","33","0.683411","0.181763","-0.707031","0.002808","0","0","-0.015267","9.38728","2.320801","-0.623267","-0.092114","-0.07417","0.021533","-0.001196","-0.050244","-0.107666"
"A","1617445188.119735","7","-10","47","46","41","35","0.683411","0.181519","-0.707092","0.002869","0.007634","0","-0.015267","9.38728","2.272949","-0.630444","-0.093311","-0.118433","0.014355","0.016748","-0.089722","-0.119629"
"A","1617445188.1097026","7","-10","47","47","44","49","0.683411","0.181274","-0.707153","0.002869","0.007634","0","-0.015267","9.38728","2.25979","-0.632837","-0.094507","-0.128003","0.011963","0.021533","-0.098096","-0.123218"
"A","1617445188.099936","7","-10","49","47","36","36","0.68335","0.181213","-0.707214","0.002747","0","0","-0.007634","9.389673","2.293286","-0.631641","-0.092114","-0.095703","0.014355","0.010767","-0.069385","-0.112451"
"A","1617445188.0898197","7","-10","45","48","41","37","0.68335","0.181213","-0.707214","0.002747","-0.007634","0","0","9.374121","2.342334","-0.631641","-0.107666","-0.046655","0.014355","-0.001196","-0.019141","-0.11604"
"A","1617445188.0797305","7","-10","49","48","41","35","0.683289","0.181335","-0.707275","0.002747","-0.007634","0","0","9.346606","2.379419","-0.630444","-0.135181","-0.010767","0.017944","-0.014355","0.019141","-0.133984"
"A","1617445188.069636","7","-10","46","48","64","35","0.683289","0.181396","-0.707275","0.002747","-0.007634","0","0","9.327466","2.387793","-0.650781","-0.154321","-0.002393","-0.001196","0.001196","0.035889","-0.149536"
"A","1617445188.0596192","7","-10","49","48","40","33","0.683167","0.181396","-0.707336","0.002808","0","0.007634","-0.007634","9.339429","2.373437","-0.672314","-0.141162","-0.015552","-0.020337","0.022729","0.025122","-0.13877"
"A","1617445188.0497503","7","-10","47","48","40","33","0.683105","0.181274","-0.707458","0.002747","0","0.007634","-0.007634","9.364551","2.348315","-0.708203","-0.117236","-0.039478","-0.053833","0.062207","0.005981","-0.118433"
"A","1617445188.0397685","7","11","48","48","40","33","0.682983","0.181152","-0.707581","0.002686","0.007634","0.007634","-0.007634","9.371729","2.323193","-0.741699","-0.108862","-0.063403","-0.084937","0.098096","-0.00957","-0.114844"
"A","1617445188.0298543","7","-10","47","46","39","33","0.682922","0.180908","-0.707703","0.002625","0.007634","0.007634","-0.015267","9.366943","2.300464","-0.750073","-0.114844","-0.08374","-0.090918","0.108862","-0.026318","-0.124414"
"A","1617445188.0198762","7","-10","48","48","35","16","0.682922","0.180664","-0.707764","0.002625","0.007634","0","-0.015267","9.35498","2.263379","-0.76084","-0.126807","-0.118433","-0.101685","0.128003","-0.052637","-0.143555"
"A","1617445188.009763","7","-10","48","48","40","33","0.682922","0.18042","-0.707886","0.002563","0.015267","0","-0.015267","9.350195","2.216724","-0.77041","-0.133984","-0.161499","-0.110059","0.14834","-0.088525","-0.160303"
"A","1617445187.9997773","7","-10","46","46","42","35","0.682922","0.180115","-0.707886","0.002441","0.007634","0","-0.007634","9.348999","2.19519","-0.765625","-0.133984","-0.18064","-0.10647","0.149536","-0.107666","-0.166284"
"A","1617445187.9898174","7","-10","47","48","40","37","0.682922","0.180054","-0.707947","0.002258","0","0","0","9.348999","2.229883","-0.756055","-0.133984","-0.14834","-0.096899","0.131592","-0.080151","-0.159106"
"A","1617445187.9797292","7","-10","47","49","40","35","0.682922","0.180176","-0.707886","0.002136","-0.015267","-0.007634","0.007634","9.332251","2.305249","-0.747681","-0.149536","-0.076563","-0.088525","0.105273","-0.010767","-0.156714"
"A","1617445187.9698482","7","-10","46","48","42","31","0.682922","0.18042","-0.707825","0.002075","-0.015267","-0.007634","0.007634","9.305933","2.379419","-0.742895","-0.174658","-0.005981","-0.08374","0.082544","0.058618","-0.163892"
"A","1617445187.9596293","7","-11","47","46","37","31","0.682983","0.180664","-0.707764","0.002075","-0.007634","-0.007634","0.007634","9.29397","2.418896","-0.748877","-0.187817","0.028711","-0.090918","0.080151","0.096899","-0.16748"
"A","1617445187.949998","7","-10","47","47","41","58","0.682983","0.180786","-0.707703","0.002014","0","0","0.007634","9.31311","2.415308","-0.772803","-0.16748","0.022729","-0.114844","0.105273","0.092114","-0.14834"
"A","1617445187.9399","7","-10","48","48","39","36","0.682922","0.180664","-0.707764","0.001831","0.007634","0.007634","0","9.352588","2.388989","-0.778784","-0.126807","-0.003589","-0.119629","0.11604","0.057422","-0.114844"
"A","1617445187.929648","7","-10","47","49","41","35","0.682922","0.180542","-0.707825","0.001587","0.007634","0.007634","0","9.380102","2.363867","-0.776392","-0.099292","-0.029907","-0.117236","0.120825","0.026318","-0.094507"
"A","1617445187.9198978","7","-11","45","47","38","36","0.682922","0.18042","-0.707886","0.001404","0.007634","0","0","9.382495","2.371045","-0.756055","-0.096899","-0.023926","-0.095703","0.098096","0.025122","-0.092114"
"A","1617445187.909723","7","-10","49","47","40","39","0.682922","0.180359","-0.707886","0.001282","0","0","0","9.372925","2.381812","-0.723755","-0.10647","-0.014355","-0.0646","0.065796","0.028711","-0.101685"
"A","1617445187.8997264","7","-10","49","49","38","35","0.682983","0.180359","-0.707825","0.001221","0","-0.007634","0","9.358569","2.372241","-0.703418","-0.120825","-0.025122","-0.045459","0.050244","0.017944","-0.119629"
"A","1617445187.889771","7","-10","45","48","42","32","0.682983","0.180359","-0.707825","0.001221","0","-0.007634","0","9.360962","2.345923","-0.690259","-0.118433","-0.05144","-0.0323","0.044263","-0.00957","-0.124414"
"A","1617445187.8798745","7","-10","49","49","42","39","0.682983","0.18042","-0.707764","0.00116","-0.007634","0","0","9.380102","2.33396","-0.685474","-0.098096","-0.0646","-0.028711","0.044263","-0.027515","-0.107666"
"A","1617445187.8704882","7","-10","51","48","42","36","0.682983","0.180542","-0.707764","0.001221","-0.015267","-0.007634","0","9.38728","2.338745","-0.675903","-0.090918","-0.061011","-0.017944","0.0323","-0.028711","-0.100488"
"A","1617445187.859815","7","-10","48","46","42","37","0.682983","0.180664","-0.707703","0.001282","-0.007634","-0.007634","0","9.382495","2.337549","-0.667529","-0.094507","-0.062207","-0.010767","0.026318","-0.031104","-0.105273"
"A","1617445187.8497944","7","-10","49","48","39","33","0.682983","0.180725","-0.707703","0.001343","0","0","-0.007634","9.381299","2.300464","-0.668726","-0.096899","-0.099292","-0.010767","0.035889","-0.0646","-0.117236"
"A","1617445187.8398476","7","-10","48","47","39","33","0.682983","0.180664","-0.707764","0.001282","0.007634","0","-0.007634","9.400439","2.255005","-0.666333","-0.077759","-0.144751","-0.008374","0.045459","-0.112451","-0.110059"
"A","1617445187.8298955","7","-10","47","48","42","37","0.682922","0.180603","-0.707764","0.00116","0","0.007634","0","9.41958","2.240649","-0.649585","-0.057422","-0.160303","0.008374","0.0323","-0.136377","-0.094507"
"A","1617445187.8199077","7","-10","46","45","39","36","0.682861","0.180603","-0.707825","0.000977","0","0","0","9.418384","2.263379","-0.626855","-0.058618","-0.139966","0.0323","0.004785","-0.123218","-0.092114"
"A","1617445187.809689","7","-10","51","48","56","9","0.682861","0.180664","-0.707825","0.000854","-0.007634","0","0","9.399243","2.295679","-0.595752","-0.076563","-0.110059","0.063403","-0.0323","-0.098096","-0.105273"
"A","1617445187.800004","7","-10","48","47","40","35","0.682861","0.180847","-0.707825","0.000793","-0.007634","-0.007634","0.007634","9.37771","2.33396","-0.56106","-0.098096","-0.075366","0.099292","-0.075366","-0.069385","-0.119629"
"A","1617445187.7898707","7","-11","48","46","39","33","0.6828","0.181091","-0.707764","0.000732","-0.015267","-0.007634","0.007634","9.348999","2.361475","-0.533545","-0.124414","-0.05144","0.128003","-0.110059","-0.047852","-0.141162"
"A","1617445187.7799478","7","-10","49","50","40","33","0.682861","0.181335","-0.707703","0.000732","-0.015267","-0.007634","0.007634","9.320288","2.384204","-0.516797","-0.153125","-0.0323","0.143555","-0.129199","-0.026318","-0.165088"
"A","1617445187.7697444","7","-9","49","48","38","33","0.6828","0.18158","-0.707642","0.000671","-0.007634","-0.007634","0.007634","9.31311","2.399756","-0.510815","-0.159106","-0.020337","0.150732","-0.139966","-0.015552","-0.168677"
"A","1617445187.7597704","7","-10","49","49","41","35","0.682739","0.181641","-0.707703","0.00061","0.007634","0","0.007634","9.331055","2.37583","-0.534741","-0.141162","-0.045459","0.128003","-0.111255","-0.037085","-0.155518"
"A","1617445187.7499502","7","-10","47","48","12","32","0.682617","0.18158","-0.707886","0.000427","0.015267","0.007634","0","9.37771","2.319604","-0.583789","-0.094507","-0.102881","0.082544","-0.052637","-0.092114","-0.122021"
"A","1617445187.7406027","7","-8","48","48","44","34","0.682434","0.181396","-0.708069","0.000122","0.015267","0.007634","-0.007634","9.413599","2.287305","-0.641211","-0.057422","-0.136377","0.029907","0.005981","-0.119629","-0.090918"
"A","1617445187.7305338","7","-10","47","50","42","36","0.682373","0.181213","-0.708191","-0.000183","0.015267","0.007634","-0.007634","9.427954","2.287305","-0.69624","-0.043066","-0.13877","-0.021533","0.056226","-0.112451","-0.07417"
"A","1617445187.7201517","7","-10","49","47","40","36","0.682312","0.18103","-0.708313","-0.000549","0.015267","0.007634","0","9.437525","2.314819","-0.729736","-0.0323","-0.113647","-0.053833","0.080151","-0.08374","-0.055029"
"A","1617445187.709586","7","-10","47","49","41","36","0.682251","0.180908","-0.708374","-0.000854","0.015267","0.007634","0","9.439917","2.360278","-0.742895","-0.028711","-0.070581","-0.065796","0.081348","-0.04187","-0.040674"
"A","1617445187.700506","7","-9","48","45","41","33","0.682251","0.180847","-0.708374","-0.00116","0.015267","0","0.007634","9.421972","2.423682","-0.734522","-0.045459","-0.00957","-0.057422","0.057422","0.016748","-0.04187"
"A","1617445187.690494","7","-10","48","50","40","-12","0.682251","0.180786","-0.708435","-0.001526","0.015267","0","0.007634","9.411206","2.477515","-0.727344","-0.056226","0.038281","-0.049048","0.037085","0.062207","-0.040674"
"A","1617445187.680044","7","-10","48","48","40","36","0.682251","0.180786","-0.708435","-0.001953","0.015267","0.007634","0.015267","9.400439","2.534936","-0.721362","-0.065796","0.089722","-0.043066","0.019141","0.111255","-0.037085"
"A","1617445187.670514","7","-10","49","48","41","35","0.68219","0.180725","-0.708435","-0.002441","0.022901","0.007634","0.015267","9.38728","2.591162","-0.73811","-0.075366","0.139966","-0.059814","0.022729","0.163892","-0.033496"
"A","1617445187.659959","7","-10","49","47","41","35","0.68219","0.180725","-0.708496","-0.002991","0.022901","0.007634","0.015267","9.37771","2.634228","-0.765625","-0.084937","0.175854","-0.086133","0.038281","0.206958","-0.031104"
"A","1617445187.6498127","7","-10","48","48","41","37","0.682129","0.180542","-0.708557","-0.003418","0.022901","0.007634","0.007634","9.37771","2.655762","-0.808691","-0.082544","0.193799","-0.128003","0.075366","0.233276","-0.021533"
"A","1617445187.6405127","7","-10","47","48","41","35","0.682129","0.180359","-0.708618","-0.003845","0.022901","0.007634","0.007634","9.383692","2.655762","-0.851758","-0.076563","0.19021","-0.171069","0.117236","0.238062","-0.013159"
"A","1617445187.630716","7","-9","51","48","38","32","0.682129","0.180115","-0.708679","-0.00415","0.015267","0","0","9.383692","2.653369","-0.879272","-0.075366","0.186621","-0.198584","0.145947","0.24165","-0.011963"
"A","1617445187.6205337","7","-10","47","46","41","33","0.68219","0.179871","-0.708679","-0.004272","0.007634","0","-0.007634","9.356176","2.647388","-0.891235","-0.104077","0.181836","-0.212939","0.160303","0.247632","-0.039478"
"A","1617445187.6105523","7","-10","49","50","42","35","0.682251","0.179565","-0.70874","-0.004211","0.007634","0","-0.015267","9.344213","2.604321","-0.885254","-0.117236","0.143555","-0.208154","0.166284","0.214136","-0.062207"
"A","1617445187.6006787","7","-10","47","50","42","32","0.682251","0.179199","-0.708801","-0.004089","0.015267","0.007634","-0.022901","9.334643","2.52417","-0.888843","-0.128003","0.070581","-0.211743","0.187817","0.149536","-0.090918"
"A","1617445187.5905235","7","-10","49","48","39","36","0.682251","0.17865","-0.708923","-0.004028","0.015267","0.007634","-0.022901","9.333447","2.430859","-0.90918","-0.131592","-0.013159","-0.23208","0.228491","0.076563","-0.113647"
"A","1617445187.5807302","7","-11","47","48","40","35","0.682251","0.178223","-0.709045","-0.004028","0.015267","0.007634","-0.022901","9.327466","2.362671","-0.942676","-0.13877","-0.075366","-0.265576","0.276343","0.027515","-0.133984"
"A","1617445187.5706973","7","-10","47","47","38","35","0.68219","0.177856","-0.709167","-0.00415","0.007634","0.007634","-0.015267","9.305933","2.344727","-0.972583","-0.161499","-0.090918","-0.294287","0.307446","0.025122","-0.15791"
"A","1617445187.560533","7","-11","49","49","0","12","0.68219","0.177673","-0.709229","-0.004272","0","0.007634","-0.007634","9.283203","2.36626","-1.022827","-0.184229","-0.068188","-0.344531","0.351709","0.0646","-0.171069"
"A","1617445187.5505695","7","-10","49","48","42","33","0.68219","0.177734","-0.709229","-0.004333","-0.015267","0","0","9.284399","2.435645","-1.06709","-0.183032","0","-0.388794","0.376831","0.13877","-0.149536"
"A","1617445187.5406744","7","-10","47","49","40","37","0.68219","0.177917","-0.709167","-0.004333","-0.015267","0","0.007634","9.285596","2.509815","-1.093408","-0.18064","0.070581","-0.415112","0.385205","0.210547","-0.128003"
"A","1617445187.530568","7","-10","47","47","39","37","0.682251","0.178101","-0.709045","-0.004333","-0.015267","0","0.007634","9.277222","2.569629","-1.09939","-0.189014","0.126807","-0.42229","0.378027","0.266772","-0.120825"
"A","1617445187.5205564","7","-10","47","45","42","37","0.682373","0.178223","-0.708984","-0.004272","-0.007634","0","0","9.274829","2.593555","-1.094604","-0.191406","0.149536","-0.419897","0.37085","0.288306","-0.118433"
"A","1617445187.5104957","7","-10","47","52","41","36","0.682495","0.178162","-0.708862","-0.004211","0","-0.007634","0","9.286792","2.581592","-1.074268","-0.18064","0.13877","-0.403149","0.356494","0.271558","-0.111255"
"A","1617445187.500898","7","-10","48","48","40","35","0.682678","0.178101","-0.708679","-0.00415","-0.007634","-0.015267","-0.007634","9.277222","2.581592","-1.063501","-0.19021","0.139966","-0.397168","0.350513","0.27395","-0.120825"
"A","1617445187.4906583","7","-10","48","47","38","32","0.682922","0.17804","-0.708435","-0.003967","-0.015267","-0.022901","-0.007634","9.260473","2.595947","-1.038379","-0.208154","0.156714","-0.379224","0.328979","0.289502","-0.136377"
"A","1617445187.4806435","7","-9","48","47","40","37","0.683167","0.178162","-0.708191","-0.003662","-0.030534","-0.030534","-0.007634","9.254492","2.613892","-1.039575","-0.215332","0.177051","-0.386401","0.330176","0.312231","-0.137573"
"A","1617445187.4706554","7","-10","45","46","38","36","0.683472","0.178406","-0.707825","-0.003174","-0.045802","-0.030534","-0.007634","9.27124","2.623462","-1.035986","-0.198584","0.189014","-0.391187","0.331372","0.320605","-0.118433"
"A","1617445187.4604678","7","-10","49","48","40","37","0.683777","0.178711","-0.707458","-0.002502","-0.045802","-0.038168","-0.007634","9.283203","2.627051","-1.032398","-0.189014","0.196191","-0.395972","0.333765","0.326587","-0.107666"
"A","1617445187.4506576","7","-10","49","49","41","33","0.684204","0.179016","-0.70697","-0.00177","-0.053435","-0.038168","-0.015267","9.279614","2.599536","-1.022827","-0.193799","0.173462","-0.398364","0.340942","0.307446","-0.118433"
"A","1617445187.440653","7","-9","49","47","41","35","0.684631","0.179321","-0.706482","-0.000977","-0.053435","-0.038168","-0.015267","9.315503","2.567236","-0.982153","-0.160303","0.147144","-0.368457","0.318213","0.267969","-0.094507"
"A","1617445187.4306111","7","-10","47","49","42","33","0.684937","0.179626","-0.706055","-0.000061","-0.053435","-0.030534","-0.015267","9.382495","2.540918","-0.91875","-0.095703","0.128003","-0.314624","0.271558","0.221313","-0.040674"
"A","1617445187.4206238","7","-10","48","48","41","32","0.685303","0.179993","-0.705688","0.000854","-0.061069","-0.038168","-0.015267","9.449488","2.515796","-0.84458","-0.031104","0.108862","-0.248828","0.211743","0.171069","0.010767"
"A","1617445187.4106977","7","-9","50","50","44","39","0.685669","0.180359","-0.7052","0.001831","-0.061069","-0.045802","-0.022901","9.469824","2.484692","-0.740503","-0.013159","0.086133","-0.155518","0.128003","0.122021","0.016748"
"A","1617445187.400565","7","-10","47","47","41","32","0.686157","0.180786","-0.704651","0.002869","-0.068702","-0.061069","-0.022901","9.453076","2.453589","-0.634033","-0.033496","0.061011","-0.061011","0.04187","0.080151","-0.013159"
"A","1617445187.3906865","7","-8","49","47","40","38","0.686707","0.181274","-0.703918","0.004089","-0.076336","-0.068702","-0.022901","9.444702","2.423682","-0.52876","-0.043066","0.039478","0.027515","-0.037085","0.039478","-0.033496"
"A","1617445187.3808298","7","-13","49","49","39","70","0.687317","0.181824","-0.703186","0.005432","-0.083969","-0.076336","-0.022901","9.456665","2.369849","-0.434253","-0.034692","-0.003589","0.105273","-0.100488","-0.021533","-0.039478"
"A","1617445187.3705285","7","-10","47","47","41","36","0.687866","0.182434","-0.702515","0.006775","-0.083969","-0.076336","-0.030534","9.462646","2.30166","-0.364868","-0.0323","-0.0646","0.160303","-0.137573","-0.093311","-0.055029"
"A","1617445187.3608463","7","-9","49","49","42","37","0.688416","0.182983","-0.701782","0.008118","-0.076336","-0.068702","-0.030534","9.454272","2.240649","-0.30625","-0.043066","-0.11604","0.202173","-0.163892","-0.150732","-0.080151"
"A","1617445187.350763","7","-10","49","48","40","31","0.688843","0.183472","-0.701233","0.00946","-0.076336","-0.053435","-0.030534","9.460254","2.172461","-0.27395","-0.040674","-0.173462","0.223706","-0.168677","-0.210547","-0.092114"
"A","1617445187.3408425","7","-10","49","49","40","27","0.689148","0.184021","-0.700806","0.010559","-0.068702","-0.045802","-0.022901","9.487768","2.128198","-0.256006","-0.015552","-0.211743","0.233276","-0.166284","-0.256006","-0.076563"
"A","1617445187.330661","7","-10","47","46","43","37","0.689331","0.18457","-0.700439","0.011597","-0.068702","-0.038168","-0.022901","9.502124","2.125806","-0.248828","-0.002393","-0.208154","0.234473","-0.16748","-0.256006","-0.063403"
"A","1617445187.320764","7","-10","52","48","41","38","0.689453","0.185242","-0.700134","0.012512","-0.076336","-0.030534","-0.015267","9.508105","2.148535","-0.227295","0.001196","-0.181836","0.252417","-0.191406","-0.238062","-0.053833"
"A","1617445187.310696","7","-10","49","47","43","35","0.689453","0.186035","-0.69989","0.013428","-0.083969","-0.030534","-0.015267","9.520068","2.215527","-0.18064","0.013159","-0.113647","0.297876","-0.253613","-0.19021","-0.028711"
"A","1617445187.300603","7","-10","47","48","41","33","0.689514","0.186951","-0.699585","0.014526","-0.083969","-0.038168","-0.007634","9.463842","2.26936","-0.154321","-0.043066","-0.057422","0.322998","-0.294287","-0.132788","-0.070581"
"A","1617445187.290671","7","-10","52","49","43","33","0.689575","0.187744","-0.69928","0.015625","-0.076336","-0.038168","-0.015267","9.412402","2.265771","-0.143555","-0.095703","-0.057422","0.331372","-0.302661","-0.123218","-0.122021"
"A","1617445187.2806537","7","-10","48","50","38","33","0.689636","0.188293","-0.699036","0.016663","-0.053435","-0.030534","-0.022901","9.430346","2.188013","-0.154321","-0.078955","-0.128003","0.318213","-0.269165","-0.189014","-0.122021"
"A","1617445187.27072","7","-10","48","48","39","35","0.689697","0.188538","-0.698914","0.017456","-0.038168","-0.022901","-0.030534","9.453076","2.063599","-0.169873","-0.058618","-0.245239","0.300269","-0.217725","-0.297876","-0.128003"
"A","1617445186.771509","7","-10","49","49","39","37","0.683716","0.182922","-0.706421","0.005188","0.007634","0","0","9.365747","2.338745","-0.820654","-0.118433","-0.040674","-0.183032","0.186621","0.038281","-0.112451"
"A","1617445186.761618","7","-10","47","49","40","31","0.683716","0.1828","-0.706421","0.005005","0.007634","0","0","9.360962","2.362671","-0.829028","-0.123218","-0.016748","-0.191406","0.187817","0.063403","-0.110059"
"A","1617445186.7514722","7","-10","48","48","41","35","0.683716","0.1828","-0.706421","0.004822","0","0","0.007634","9.375318","2.392578","-0.842188","-0.107666","0.00957","-0.204565","0.193799","0.088525","-0.088525"
"A","1617445186.7414856","7","-9","50","49","42","37","0.683716","0.182861","-0.706421","0.004578","-0.007634","0","0.007634","9.390869","2.44043","-0.850561","-0.092114","0.052637","-0.212939","0.19021","0.126807","-0.062207"
"A","1617445186.7316065","7","-10","49","49","41","36","0.683716","0.183044","-0.70636","0.004456","-0.015267","0","0.007634","9.406421","2.520581","-0.831421","-0.075366","0.129199","-0.193799","0.151929","0.189014","-0.028711"
"A","1617445186.7214563","7","-10","51","46","42","35","0.683777","0.18335","-0.706299","0.004456","-0.015267","-0.007634","0.007634","9.38728","2.586377","-0.820654","-0.094507","0.19021","-0.184229","0.126807","0.247632","-0.0323"
"A","1617445186.7117476","7","-10","51","47","4","37","0.683899","0.183533","-0.706116","0.004578","-0.015267","-0.015267","0","9.372925","2.622266","-0.805103","-0.107666","0.224902","-0.172266","0.105273","0.281128","-0.037085"
"A","1617445186.7015035","7","-10","47","47","13","35","0.684021","0.183533","-0.705994","0.004761","-0.007634","-0.015267","-0.007634","9.376513","2.601929","-0.806299","-0.105273","0.206958","-0.177051","0.114844","0.26438","-0.039478"
"A","1617445186.691578","7","-10","47","47","39","35","0.684143","0.18335","-0.705872","0.004944","0.007634","-0.007634","-0.015267","9.408813","2.53374","-0.817065","-0.072974","0.143555","-0.191406","0.145947","0.200977","-0.022729"
"A","1617445186.6816623","7","-9","48","48","40","37","0.684326","0.183044","-0.705811","0.005066","0.007634","-0.007634","-0.022901","9.436328","2.461963","-0.823047","-0.047852","0.076563","-0.202173","0.173462","0.135181","-0.014355"
"A","1617445186.6716652","7","-10","46","48","41","36","0.684509","0.182739","-0.705688","0.005188","-0.007634","-0.015267","-0.022901","9.439917","2.4177","-0.803906","-0.045459","0.037085","-0.187817","0.171069","0.093311","-0.022729"
"A","1617445186.66157","7","-10","48","48","40","35","0.684753","0.182556","-0.705505","0.005493","-0.022901","-0.022901","-0.022901","9.427954","2.418896","-0.739307","-0.059814","0.044263","-0.129199","0.112451","0.088525","-0.038281"
"A","1617445186.6517203","7","-10","50","49","42","33","0.684998","0.182678","-0.705261","0.006042","-0.038168","-0.030534","-0.015267","9.417188","2.44043","-0.671118","-0.072974","0.070581","-0.068188","0.045459","0.101685","-0.049048"
"A","1617445186.6415744","7","-10","49","50","44","19","0.685181","0.182922","-0.704956","0.006714","-0.045802","-0.030534","-0.015267","9.407618","2.442822","-0.613696","-0.082544","0.078955","-0.016748","-0.004785","0.098096","-0.059814"
"A","1617445186.6316657","7","-10","47","47","41","32","0.685303","0.183289","-0.704773","0.007446","-0.045802","-0.022901","-0.015267","9.393262","2.42727","-0.606519","-0.099292","0.068188","-0.011963","-0.007178","0.090918","-0.078955"
"A","1617445186.6215386","7","-9","48","47","41","32","0.685425","0.183533","-0.70459","0.008118","-0.038168","-0.022901","-0.015267","9.400439","2.383008","-0.640015","-0.093311","0.028711","-0.049048","0.038281","0.062207","-0.080151"
"A","1617445186.6117244","7","-10","47","47","39","37","0.685486","0.183655","-0.704468","0.008728","-0.022901","-0.015267","-0.022901","9.408813","2.320801","-0.675903","-0.087329","-0.025122","-0.087329","0.089722","0.020337","-0.084937"
"A","1617445186.6016045","7","-10","43","48","39","37","0.685608","0.183594","-0.704407","0.009216","-0.022901","-0.015267","-0.022901","9.407618","2.270557","-0.689062","-0.090918","-0.068188","-0.102881","0.11604","-0.013159","-0.098096"
"A","1617445186.591596","7","-10","47","48","40","37","0.685669","0.183594","-0.704285","0.009705","-0.022901","-0.015267","-0.022901","9.393262","2.228687","-0.693848","-0.10647","-0.104077","-0.110059","0.132788","-0.040674","-0.120825"
"A","1617445186.581625","7","-10","47","47","38","36","0.685791","0.183594","-0.704163","0.010193","-0.030534","-0.015267","-0.022901","9.374121","2.209546","-0.691455","-0.126807","-0.117236","-0.111255","0.137573","-0.047852","-0.143555"
"A","1617445186.5716898","7","-10","49","47","36","35","0.685913","0.183655","-0.704041","0.010742","-0.030534","-0.015267","-0.022901","9.359766","2.204761","-0.687866","-0.143555","-0.11604","-0.111255","0.136377","-0.043066","-0.159106"
"A","1617445186.561814","7","-9","48","49","39","35","0.685974","0.183899","-0.703918","0.011292","-0.038168","-0.015267","-0.015267","9.358569","2.21792","-0.691455","-0.145947","-0.098096","-0.11604","0.136377","-0.023926","-0.15791"
"A","1617445186.5515287","7","-9","47","51","40","35","0.686096","0.184143","-0.703735","0.01178","-0.038168","-0.015267","-0.015267","9.356176","2.258594","-0.708203","-0.149536","-0.055029","-0.136377","0.144751","0.021533","-0.149536"
"A","1617445186.5418007","7","-9","48","46","40","36","0.686157","0.184387","-0.703552","0.012329","-0.038168","-0.015267","-0.015267","9.352588","2.299268","-0.714185","-0.153125","-0.00957","-0.144751","0.139966","0.066992","-0.142358"
"A","1617445186.5314856","7","-10","48","48","41","33","0.686279","0.184631","-0.703369","0.012817","-0.038168","-0.015267","-0.015267","9.350195","2.326782","-0.715381","-0.156714","0.019141","-0.149536","0.136377","0.095703","-0.13877"
"A","1617445186.521616","7","-9","48","47","40","38","0.686401","0.184875","-0.703186","0.013367","-0.030534","-0.022901","-0.007634","9.346606","2.339942","-0.690259","-0.161499","0.035889","-0.128003","0.110059","0.10647","-0.139966"
"A","1617445186.5116837","7","-9","45","48","41","36","0.686584","0.184998","-0.702942","0.013855","-0.030534","-0.030534","-0.015267","9.32268","2.327979","-0.651978","-0.186621","0.028711","-0.095703","0.081348","0.096899","-0.168677"
"A","1617445186.501563","7","-10","47","48","41","35","0.686829","0.18512","-0.702637","0.014343","-0.030534","-0.030534","-0.015267","9.298755","2.304053","-0.607715","-0.211743","0.008374","-0.058618","0.050244","0.07417","-0.19978"
"A","1617445186.4918563","7","-9","49","49","41","35","0.687134","0.185303","-0.702332","0.014893","-0.030534","-0.030534","-0.015267","9.305933","2.270557","-0.575415","-0.206958","-0.019141","-0.033496","0.034692","0.040674","-0.203369"
"A","1617445186.4817364","7","-10","47","46","36","31","0.687439","0.185425","-0.702026","0.015442","-0.030534","-0.030534","-0.015267","9.332251","2.243042","-0.556274","-0.181836","-0.04187","-0.022729","0.029907","0.010767","-0.184229"
"A","1617445186.4716368","7","-9","47","47","39","31","0.687683","0.185608","-0.701721","0.015991","-0.030534","-0.030534","-0.015267","9.362158","2.222705","-0.5479","-0.153125","-0.058618","-0.021533","0.034692","-0.011963","-0.160303"
"A","1617445186.4615946","7","-10","47","47","40","31","0.687927","0.185791","-0.701355","0.016541","-0.038168","-0.030534","-0.015267","9.389673","2.22749","-0.534741","-0.126807","-0.049048","-0.015552","0.026318","-0.010767","-0.132788"
"A","1617445186.4517837","7","-10","47","48","41","38","0.688171","0.185974","-0.701111","0.017212","-0.038168","-0.030534","-0.015267","9.413599","2.239453","-0.523975","-0.105273","-0.0323","-0.010767","0.016748","-0.001196","-0.108862"
"A","1617445186.4416986","7","-9","49","50","41","33","0.688293","0.186279","-0.700867","0.017822","-0.045802","-0.030534","-0.015267","9.444702","2.265771","-0.52876","-0.075366","-0.002393","-0.020337","0.017944","0.020337","-0.071777"
"A","1617445186.4317083","7","-10","49","47","40","35","0.688477","0.186584","-0.700562","0.018494","-0.038168","-0.030534","-0.015267","9.445898","2.28252","-0.527563","-0.07417","0.017944","-0.025122","0.016748","0.040674","-0.065796"
"A","1617445186.4217377","7","-10","48","48","41","33","0.688721","0.18689","-0.700256","0.019104","-0.038168","-0.038168","-0.015267","9.424365","2.262183","-0.520386","-0.098096","0.001196","-0.023926","0.020337","0.029907","-0.093311"
"A","1617445186.4118388","7","-9","48","46","40","38","0.689087","0.187073","-0.699829","0.019714","-0.030534","-0.038168","-0.015267","9.406421","2.226294","-0.495264","-0.117236","-0.029907","-0.00957","0.014355","0.002393","-0.119629"
"A","1617445186.4016757","7","-10","49","49","41","35","0.689392","0.187256","-0.699463","0.020325","-0.030534","-0.038168","-0.015267","9.429151","2.171265","-0.468945","-0.095703","-0.080151","0.007178","0.014355","-0.053833","-0.111255"
"A","1617445186.391854","7","-10","47","48","37","32","0.689758","0.187378","-0.699036","0.020874","-0.030534","-0.038168","-0.015267","9.441113","2.142554","-0.440234","-0.084937","-0.104077","0.025122","0.003589","-0.08374","-0.10647"
"A","1617445186.3816705","7","-10","47","49","39","38","0.690063","0.187561","-0.698669","0.021423","-0.030534","-0.045802","-0.022901","9.447095","2.110254","-0.416309","-0.080151","-0.132788","0.040674","-0.001196","-0.11604","-0.110059"
"A","1617445186.371706","7","-10","48","48","41","35","0.69043","0.187622","-0.698242","0.022095","-0.030534","-0.045802","-0.022901","9.439917","2.062402","-0.417505","-0.089722","-0.173462","0.028711","0.020337","-0.14834","-0.128003"
"A","1617445186.361621","7","-10","49","49","39","37","0.690857","0.187622","-0.697815","0.022705","-0.030534","-0.045802","-0.030534","9.437525","2.026514","-0.411523","-0.094507","-0.203369","0.022729","0.034692","-0.173462","-0.13877"
"A","1617445186.3516884","7","-10","48","47","42","34","0.691223","0.187622","-0.697449","0.023376","-0.022901","-0.045802","-0.030534","9.459058","1.984644","-0.404346","-0.075366","-0.236865","0.019141","0.049048","-0.208154","-0.126807"
"A","1617445186.3416462","7","-10","47","46","88","33","0.691589","0.187622","-0.697083","0.023926","-0.022901","-0.045802","-0.030534","9.462646","1.959522","-0.403149","-0.07417","-0.256006","0.010767","0.062207","-0.223706","-0.130396"
"A","1617445186.3318791","7","-10","49","48","39","35","0.691956","0.187683","-0.696655","0.024475","-0.030534","-0.038168","-0.022901","9.438721","1.990625","-0.401953","-0.099292","-0.220117","0.001196","0.061011","-0.181836","-0.145947"
"A","1617445186.3216212","7","-10","49","50","41","35","0.692261","0.187866","-0.69635","0.024841","-0.030534","-0.030534","-0.007634","9.425562","2.048047","-0.397168","-0.113647","-0.161499","-0.001196","0.045459","-0.123218","-0.145947"
"A","1617445186.311691","7","-10","48","47","40","33","0.692383","0.188171","-0.696045","0.025085","-0.030534","-0.015267","0.007634","9.433935","2.13418","-0.41272","-0.104077","-0.076563","-0.021533","0.039478","-0.040674","-0.117236"
"A","1617445186.3014994","7","-10","46","48","37","33","0.692444","0.18866","-0.695862","0.025269","-0.030534","-0.015267","0.015267","9.436328","2.251416","-0.43186","-0.100488","0.034692","-0.04187","0.026318","0.066992","-0.087329"
"A","1617445186.298232","7","-10","47","46","40","33","0.692505","0.189209","-0.695679","0.025391","-0.030534","-0.015267","0.015267","9.414795","2.339942","-0.462964","-0.120825","0.117236","-0.07417","0.031104","0.15791","-0.087329"
"A","1617445186.296747","7","-10","47","46","46","29","0.692566","0.189636","-0.695496","0.025513","-0.030534","-0.015267","0.007634","9.415991","2.391382","-0.480908","-0.119629","0.163892","-0.094507","0.037085","0.206958","-0.075366"
"A","1617445186.2718775","7","-10","48","47","41","33","0.692688","0.189941","-0.695312","0.025818","-0.022901","-0.015267","0","9.396851","2.3854","-0.495264","-0.13877","0.15791","-0.112451","0.055029","0.210547","-0.094507"
"A","1617445186.2616706","7","-10","49","48","39","33","0.69281","0.190063","-0.695129","0.026184","-0.022901","-0.015267","-0.007634","9.410009","2.330371","-0.495264","-0.12561","0.105273","-0.11604","0.07417","0.160303","-0.093311"
"A","1617445186.2519734","7","-10","47","48","42","37","0.692932","0.190002","-0.695007","0.026611","-0.022901","-0.015267","-0.022901","9.449488","2.229883","-0.48689","-0.088525","0.010767","-0.111255","0.099292","0.063403","-0.078955"
"A","1617445186.2425406","7","-9","47","49","40","38","0.693054","0.189941","-0.694885","0.0271","-0.022901","-0.015267","-0.022901","9.485376","2.127002","-0.460571","-0.053833","-0.08374","-0.088525","0.107666","-0.038281","-0.066992"
"A","1617445186.2317436","7","-10","47","47","36","32","0.693237","0.189819","-0.694702","0.027588","-0.022901","-0.015267","-0.030534","9.512891","2.055225","-0.388794","-0.028711","-0.147144","-0.022729","0.0646","-0.122021","-0.059814"
"A","1617445186.2217274","7","-10","48","50","39","35","0.69342","0.189819","-0.694519","0.028137","-0.030534","-0.022901","-0.022901","9.530835","2.015747","-0.291895","-0.011963","-0.18064","0.068188","-0.00957","-0.184229","-0.053833"
"A","1617445186.211933","7","-10","47","48","41","37","0.693542","0.18988","-0.694336","0.028687","-0.038168","-0.030534","-0.022901","9.515284","1.993018","-0.193799","-0.028711","-0.197388","0.161499","-0.094507","-0.224902","-0.077759"
"A","1617445186.2018144","7","-13","47","50","41","36","0.693726","0.190125","-0.694092","0.029236","-0.038168","-0.030534","-0.015267","9.474609","1.969092","-0.114844","-0.071777","-0.217725","0.235669","-0.160303","-0.257202","-0.126807"
"A","1617445186.19182","7","-10","47","48","41","36","0.693848","0.190369","-0.693848","0.029785","-0.038168","-0.022901","-0.015267","9.455469","1.949951","-0.068188","-0.090918","-0.233276","0.277539","-0.194995","-0.279932","-0.149536"
"A","1617445186.1817076","7","-10","45","48","39","36","0.693909","0.190796","-0.693665","0.030273","-0.038168","-0.022901","-0.007634","9.480591","1.936792","-0.040674","-0.065796","-0.246436","0.302661","-0.214136","-0.305054","-0.129199"
"A","1617445186.172588","7","-9","47","45","43","37","0.693909","0.191223","-0.693542","0.030701","-0.038168","-0.022901","-0.007634","9.484179","1.947559","-0.017944","-0.063403","-0.235669","0.325391","-0.238062","-0.303857","-0.12561"
"A","1617445186.1624715","7","-10","48","57","40","33","0.693909","0.191589","-0.69342","0.031128","-0.030534","-0.015267","-0.007634","9.459058","1.937988","-0.00957","-0.088525","-0.244043","0.333765","-0.244043","-0.308643","-0.151929"
"A","1617445186.1516623","7","-11","48","47","39","37","0.693848","0.191833","-0.693359","0.031494","-0.015267","-0.007634","-0.007634","9.457861","1.878174","-0.011963","-0.089722","-0.301465","0.331372","-0.223706","-0.361279","-0.165088"
"A","1617445186.1418936","7","-11","45","47","44","36","0.693726","0.192017","-0.69342","0.031616","-0.007634","0","-0.015267","9.477002","1.833911","-0.035889","-0.069385","-0.346924","0.311035","-0.19021","-0.400757","-0.155518"
"A","1617445186.1317854","7","-9","47","48","39","34","0.693542","0.192017","-0.693665","0.031616","0.007634","0.007634","-0.007634","9.496142","1.8052","-0.082544","-0.05144","-0.374438","0.270361","-0.142358","-0.417505","-0.142358"
"A","1617445186.1219027","7","-10","49","47","39","38","0.693298","0.191956","-0.693909","0.031372","0.015267","0.022901","-0.007634","9.518872","1.787256","-0.123218","-0.027515","-0.393579","0.235669","-0.102881","-0.429468","-0.122021"
"A","1617445186.11193","7","-8","47","50","42","36","0.692993","0.191895","-0.694275","0.030884","0.015267","0.022901","0","9.52605","1.807593","-0.168677","-0.019141","-0.378027","0.19978","-0.072974","-0.406738","-0.110059"
"A","1617445186.1024525","7","-9","47","48","41","31","0.692688","0.192017","-0.69458","0.030334","0","0.022901","0.015267","9.499731","1.904492","-0.198584","-0.044263","-0.288306","0.179443","-0.082544","-0.311035","-0.113647"
"A","1617445186.092344","7","-8","52","48","40","31","0.692322","0.192383","-0.694763","0.029846","-0.007634","0.022901","0.022901","9.473413","2.058814","-0.19978","-0.065796","-0.144751","0.186621","-0.133984","-0.175854","-0.102881"
"A","1617445186.0817063","7","-10","48","50","42","35","0.692017","0.192993","-0.695007","0.029358","-0.015267","0.022901","0.038168","9.457861","2.214331","-0.191406","-0.078955","-0.002393","0.205762","-0.197388","-0.046655","-0.084937"
"A","1617445186.071767","7","-10","51","50","41","36","0.69165","0.193665","-0.69519","0.028931","-0.015267","0.015267","0.038168","9.420776","2.319604","-0.204565","-0.112451","0.087329","0.202173","-0.22251","0.043066","-0.096899"
"A","1617445186.061626","7","-10","49","48","40","36","0.691284","0.194153","-0.695374","0.028503","0","0.015267","0.030534","9.396851","2.360278","-0.228491","-0.132788","0.117236","0.187817","-0.217725","0.080151","-0.110059"
"A","1617445186.0516703","7","-10","52","48","41","37","0.690979","0.194275","-0.695679","0.028076","0.022901","0.022901","0.015267","9.394458","2.305249","-0.271558","-0.133984","0.056226","0.154321","-0.16748","0.034692","-0.123218"
"A","1617445186.042467","7","-10","45","46","39","38","0.690735","0.194031","-0.696045","0.027588","0.045802","0.030534","0","9.425562","2.177246","-0.328979","-0.101685","-0.072974","0.104077","-0.078955","-0.075366","-0.119629"
"A","1617445186.0323656","7","-10","48","47","39","35","0.690491","0.19342","-0.696472","0.026978","0.053435","0.030534","-0.015267","9.457861","2.043262","-0.361279","-0.069385","-0.205762","0.078955","-0.013159","-0.197388","-0.117236"
"A","1617445186.0225132","7","-10","47","46","42","35","0.690308","0.192749","-0.696838","0.026367","0.045802","0.022901","-0.015267","9.480591","1.954736","-0.364868","-0.046655","-0.291895","0.080151","0.010767","-0.282324","-0.114844"
"A","1617445186.0123832","7","-10","49","50","40","37","0.690186","0.1922","-0.697205","0.025757","0.038168","0.022901","-0.007634","9.485376","1.91167","-0.334961","-0.043066","-0.336157","0.114844","-0.008374","-0.334961","-0.123218"
"A","1617445186.0023787","7","-9","51","50","41","38","0.690002","0.191895","-0.697449","0.025208","0.022901","0.015267","0","9.462646","1.935596","-0.290698","-0.063403","-0.314624","0.165088","-0.063403","-0.325391","-0.141162"
"A","1617445185.9925857","7","-10","49","48","41","32","0.689819","0.191833","-0.697632","0.024658","0.022901","0.015267","0.015267","9.415991","1.990625","-0.27395","-0.108862","-0.265576","0.186621","-0.100488","-0.275146","-0.174658"
"A","1617445185.982435","7","-10","47","49","40","39","0.689575","0.191895","-0.697876","0.023987","0.022901","0.015267","0.022901","9.372925","2.06001","-0.279932","-0.149536","-0.204565","0.187817","-0.120825","-0.209351","-0.200977"
"A","1617445185.9723833","7","-10","48","49","40","39","0.689331","0.192017","-0.698181","0.023071","0.030534","0.030534","0.030534","9.334643","2.122217","-0.336157","-0.184229","-0.155518","0.139966","-0.090918","-0.141162","-0.221313"
"A","1617445185.96252","7","-10","48","47","38","35","0.688965","0.192139","-0.698486","0.022034","0.038168","0.038168","0.038168","9.305933","2.253808","-0.429468","-0.208154","-0.038281","0.056226","-0.046655","-0.002393","-0.212939"
"A","1617445185.9518838","7","-10","47","54","42","33","0.688599","0.192261","-0.698914","0.020874","0.045802","0.045802","0.038168","9.301147","2.381812","-0.534741","-0.209351","0.071777","-0.035889","0.007178","0.126807","-0.184229"
"A","1617445185.9424868","7","-10","47","50","39","37","0.68811","0.192261","-0.699402","0.019653","0.053435","0.053435","0.038168","9.339429","2.476318","-0.641211","-0.166284","0.151929","-0.129199","0.07417","0.217725","-0.118433"
"A","1617445185.9318988","7","-10","47","46","40","35","0.687622","0.192017","-0.700012","0.018372","0.061069","0.061069","0.038168","9.383692","2.527759","-0.72854","-0.119629","0.191406","-0.200977","0.132788","0.26438","-0.058618"
"A","1617445185.922526","7","-11","49","48","34","35","0.687195","0.19165","-0.700562","0.01709","0.068702","0.053435","0.022901","9.384888","2.551685","-0.791943","-0.114844","0.204565","-0.252417","0.179443","0.289502","-0.047852"
"A","1617445185.9125965","7","-10","47","48","41","33","0.68689","0.191101","-0.70105","0.01593","0.061069","0.045802","0.015267","9.369336","2.554077","-0.819458","-0.128003","0.19978","-0.270361","0.198584","0.293091","-0.059814"
"A","1617445185.9026215","7","-10","48","48","40","33","0.686646","0.190491","-0.701416","0.014954","0.053435","0.030534","0.015267","9.38728","2.519385","-0.797925","-0.107666","0.160303","-0.242847","0.184229","0.242847","-0.05144"
"A","1617445185.892378","7","-9","47","48","40","36","0.686523","0.189941","-0.701721","0.014099","0.045802","0.022901","0.007634","9.399243","2.4823","-0.773999","-0.094507","0.119629","-0.215332","0.169873","0.193799","-0.050244"
"A","1617445185.882557","7","-10","49","49","41","33","0.686523","0.189453","-0.701904","0.013489","0.045802","0.015267","0","9.392065","2.423682","-0.76084","-0.101685","0.059814","-0.200977","0.173462","0.136377","-0.071777"
"A","1617445185.872475","7","-10","51","48","39","33","0.686523","0.188904","-0.702026","0.012939","0.045802","0.007634","-0.007634","9.388476","2.354297","-0.766821","-0.105273","-0.008374","-0.206958","0.198584","0.075366","-0.092114"
"A","1617445185.8625395","7","-10","47","48","40","37","0.686584","0.188293","-0.702148","0.012451","0.045802","0.007634","-0.007634","9.400439","2.300464","-0.766821","-0.093311","-0.061011","-0.208154","0.215332","0.022729","-0.092114"
"A","1617445185.8524508","7","-10","49","48","40","37","0.686584","0.187683","-0.702271","0.011902","0.045802","0.015267","-0.015267","9.420776","2.255005","-0.772803","-0.072974","-0.10647","-0.215332","0.234473","-0.021533","-0.08374"
"A","1617445185.842567","7","-10","51","50","41","33","0.686584","0.187012","-0.702454","0.011353","0.053435","0.015267","-0.007634","9.431543","2.22749","-0.777588","-0.062207","-0.132788","-0.218921","0.245239","-0.047852","-0.078955"
"A","1617445185.8326705","7","-10","46","48","41","35","0.686523","0.186401","-0.702698","0.010681","0.045802","0.022901","-0.007634","9.435132","2.244238","-0.79314","-0.058618","-0.11604","-0.233276","0.25481","-0.029907","-0.070581"
"A","1617445185.8225622","7","-10","47","46","41","37","0.686401","0.185913","-0.702942","0.009888","0.045802","0.030534","0.007634","9.439917","2.299268","-0.821851","-0.052637","-0.0646","-0.258398","0.26438","0.021533","-0.05144"
"A","1617445185.8124237","7","-10","49","47","40","35","0.686218","0.185669","-0.703186","0.009033","0.038168","0.030534","0.015267","9.444702","2.3854","-0.858936","-0.045459","0.011963","-0.290698","0.275146","0.099292","-0.023926"
"A","1617445185.8025236","7","-10","48","49","40","35","0.686096","0.185547","-0.703369","0.008179","0.030534","0.022901","0.022901","9.410009","2.512207","-0.900806","-0.077759","0.129199","-0.327783","0.278735","0.226099","-0.023926"
"A","1617445185.792571","7","-10","48","48","40","36","0.686035","0.185608","-0.703491","0.007385","0.015267","0.015267","0.030534","9.356176","2.633032","-0.912769","-0.129199","0.238062","-0.337354","0.258398","0.343335","-0.046655"
"A","1617445185.7825177","7","-10","49","50","42","36","0.685974","0.18573","-0.703491","0.006775","0.015267","0.007634","0.030534","9.323877","2.740698","-0.912769","-0.159106","0.336157","-0.336157","0.230884","0.441431","-0.05144"
"A","1617445185.77248","7","-10","47","50","38","37","0.685974","0.185791","-0.70343","0.006287","0.007634","0.007634","0.022901","9.30354","2.818457","-0.903198","-0.175854","0.406738","-0.326587","0.202173","0.508423","-0.050244"
"A","1617445185.7626758","7","-10","47","47","41","34","0.685974","0.185791","-0.703491","0.005981","0.015267","0.007634","0.015267","9.305933","2.84956","-0.906787","-0.173462","0.433057","-0.330176","0.198584","0.533545","-0.040674"
"A","1617445185.7524655","7","-9","47","49","38","32","0.685974","0.185608","-0.703552","0.005737","0.022901","0.015267","0","9.341822","2.816064","-0.923535","-0.137573","0.399561","-0.345728","0.223706","0.497656","-0.013159"
"A","1617445185.7426436","7","-9","47","47","42","33","0.685913","0.185181","-0.703674","0.005554","0.022901","0.015267","-0.007634","9.390869","2.737109","-0.96062","-0.088525","0.322998","-0.382812","0.281128","0.42229","0.015552"
"A","1617445185.7325644","7","-10","47","48","41","36","0.685913","0.184692","-0.703857","0.005493","0.015267","0.007634","-0.015267","9.415991","2.673706","-0.966602","-0.065796","0.265576","-0.387598","0.301465","0.364868","0.023926"
"A","1617445185.722653","7","-10","48","48","42","36","0.686035","0.184265","-0.703857","0.005554","0","-0.007634","-0.022901","9.406421","2.610303","-0.955835","-0.077759","0.208154","-0.38042","0.309839","0.312231","-0.001196"
"A","1617445185.7127016","7","-10","48","48","39","39","0.686218","0.18396","-0.703735","0.005859","-0.015267","-0.015267","-0.022901","9.368139","2.567236","-0.902002","-0.117236","0.173462","-0.331372","0.271558","0.276343","-0.05144"
"A","1617445185.7026875","7","-10","49","47","42","36","0.686462","0.183777","-0.703552","0.006348","-0.030534","-0.022901","-0.022901","9.310718","2.545703","-0.827832","-0.177051","0.160303","-0.26438","0.209351","0.261987","-0.11604"
"A","1617445185.692599","7","-10","49","48","41","37","0.686646","0.183777","-0.703308","0.00708","-0.038168","-0.022901","-0.022901","9.26167","2.5146","-0.768018","-0.228491","0.13877","-0.210547","0.162695","0.240454","-0.174658"
"A","1617445185.682619","7","-10","50","47","42","36","0.686829","0.183777","-0.703186","0.007751","-0.030534","-0.015267","-0.022901","9.258081","2.477515","-0.724951","-0.235669","0.110059","-0.171069","0.131592","0.205762","-0.191406"
"A","1617445185.6728494","7","-10","47","46","41","37","0.68689","0.183777","-0.703125","0.008423","-0.030534","-0.007634","-0.022901","9.283203","2.435645","-0.720166","-0.212939","0.076563","-0.168677","0.13877","0.16748","-0.178247"
"A","1617445185.6627164","7","-10","49","48","38","35","0.686829","0.183777","-0.703125","0.009033","-0.030534","-0.007634","-0.022901","9.310718","2.392578","-0.73811","-0.186621","0.043066","-0.185425","0.163892","0.135181","-0.159106"
"A","1617445185.652734","7","-10","49","48","40","33","0.68689","0.183777","-0.703125","0.009583","-0.030534","-0.015267","-0.030534","9.315503","2.335156","-0.748877","-0.184229","-0.005981","-0.197388","0.189014","0.090918","-0.168677"
"A","1617445185.6425378","7","-10","49","46","38","36","0.687012","0.183777","-0.703003","0.010254","-0.038168","-0.022901","-0.030534","9.29038","2.294482","-0.73811","-0.211743","-0.038281","-0.19021","0.19021","0.065796","-0.203369"
"A","1617445185.632777","7","-10","47","49","40","32","0.687195","0.183838","-0.702698","0.011047","-0.045802","-0.030534","-0.030534","9.24851","2.270557","-0.693848","-0.25481","-0.052637","-0.151929","0.156714","0.052637","-0.250024"
"A","1617445185.622603","7","-10","48","46","41","33","0.6875","0.184021","-0.702393","0.011963","-0.053435","-0.038168","-0.022901","9.216211","2.239453","-0.636426","-0.290698","-0.075366","-0.102881","0.114844","0.027515","-0.293091"
"A","1617445185.612645","7","-10","49","48","42","33","0.687805","0.184265","-0.701965","0.012878","-0.053435","-0.038168","-0.022901","9.191089","2.182031","-0.608911","-0.318213","-0.124414","-0.08374","0.110059","-0.015552","-0.332568"
"A","1617445185.6026258","7","-10","48","48","42","37","0.688049","0.184509","-0.70166","0.013794","-0.045802","-0.030534","-0.022901","9.222193","2.121021","-0.593359","-0.289502","-0.177051","-0.075366","0.117236","-0.07417","-0.318213"
"A","1617445185.5926049","7","-10","49","48","40","33","0.688232","0.184814","-0.701416","0.014465","-0.045802","-0.022901","-0.015267","9.297559","2.087524","-0.604126","-0.215332","-0.205762","-0.090918","0.141162","-0.114844","-0.252417"
"A","1617445185.582708","7","-10","47","48","40","35","0.688416","0.185181","-0.701111","0.015015","-0.045802","-0.030534","-0.007634","9.341822","2.11145","-0.610107","-0.172266","-0.18064","-0.102881","0.145947","-0.098096","-0.203369"
"A","1617445185.5726411","7","-10","49","47","40","35","0.688599","0.18573","-0.700745","0.015564","-0.053435","-0.038168","0","9.362158","2.147339","-0.595752","-0.151929","-0.144751","-0.094507","0.128003","-0.071777","-0.175854"
"A","1617445185.5626917","7","-10","49","49","40","33","0.688904","0.186401","-0.700256","0.016113","-0.061069","-0.045802","0.007634","9.375318","2.207153","-0.574219","-0.13877","-0.088525","-0.081348","0.099292","-0.026318","-0.150732"
"A","1617445185.5526392","7","-10","48","50","40","33","0.68927","0.187195","-0.699707","0.016724","-0.068702","-0.053435","0.007634","9.381299","2.275342","-0.546704","-0.132788","-0.023926","-0.063403","0.0646","0.026318","-0.130396"
"A","1617445185.5427475","7","-9","49","50","43","33","0.689636","0.187988","-0.699097","0.017456","-0.061069","-0.053435","0.007634","9.371729","2.318408","-0.523975","-0.141162","0.015552","-0.05144","0.040674","0.062207","-0.130396"
"A","1617445185.5325184","7","-10","49","46","42","33","0.690125","0.18866","-0.698425","0.018127","-0.053435","-0.053435","0","9.406421","2.326782","-0.50603","-0.107666","0.022729","-0.046655","0.034692","0.059814","-0.096899"
"A","1617445185.52287","7","-10","47","48","39","36","0.690552","0.189148","-0.697876","0.018799","-0.038168","-0.045802","0","9.475805","2.302856","-0.490479","-0.039478","0","-0.043066","0.039478","0.021533","-0.035889"
"A","1617445185.5126543","7","-10","51","48","42","33","0.690918","0.189514","-0.697388","0.019348","-0.038168","-0.045802","-0.007634","9.541601","2.298071","-0.466553","0.025122","-0.003589","-0.029907","0.029907","0","0.023926"
"A","1617445185.5025632","7","-10","47","49","39","33","0.691284","0.189819","-0.696899","0.019897","-0.045802","-0.045802","-0.007634","9.572705","2.316016","-0.428271","0.056226","0.015552","-0.002393","0","0.001196","0.057422"
"A","1617445185.4929564","7","-8","49","48","40","35","0.691711","0.190186","-0.696411","0.020569","-0.053435","-0.045802","-0.015267","9.595434","2.327979","-0.378027","0.076563","0.029907","0.035889","-0.040674","0","0.078955"
"A","1617445185.482679","7","-10","48","50","38","35","0.692078","0.190552","-0.695862","0.021362","-0.053435","-0.053435","-0.015267","9.59065","2.329175","-0.321802","0.070581","0.034692","0.080151","-0.08374","-0.007178","0.072974"
"A","1617445185.4726722","7","-10","51","49","39","40","0.692444","0.190979","-0.695374","0.022156","-0.053435","-0.053435","-0.015267","9.571508","2.314819","-0.269165","0.050244","0.023926","0.123218","-0.122021","-0.025122","0.049048"
"A","1617445185.4626715","7","-10","51","46","43","36","0.69281","0.191467","-0.694824","0.023071","-0.061069","-0.045802","-0.015267","9.578687","2.284912","-0.220117","0.056226","0","0.160303","-0.150732","-0.059814","0.047852"
"A","1617445185.4527693","7","-10","48","50","40","35","0.693054","0.191895","-0.694458","0.023926","-0.053435","-0.045802","-0.015267","9.587061","2.256201","-0.19978","0.063403","-0.023926","0.173462","-0.155518","-0.088525","0.049048"
"A","1617445185.442621","7","-7","47","48","40","33","0.693298","0.192322","-0.694092","0.02478","-0.053435","-0.038168","-0.022901","9.596631","2.222705","-0.187817","0.070581","-0.052637","0.178247","-0.150732","-0.118433","0.049048"
"A","1617445185.4327333","7","-10","47","48","41","33","0.69342","0.192627","-0.693787","0.025635","-0.053435","-0.030534","-0.022901","9.625341","2.184424","-0.174658","0.098096","-0.084937","0.186621","-0.14834","-0.156714","0.068188"
"A","1617445185.4227858","7","-10","48","49","40","31","0.693481","0.192871","-0.693665","0.026428","-0.053435","-0.022901","-0.030534","9.655249","2.140161","-0.163892","0.126807","-0.122021","0.196191","-0.144751","-0.200977","0.087329"
"A","1617445185.4128108","7","-10","48","46","41","36","0.693481","0.193115","-0.693604","0.027283","-0.053435","-0.015267","-0.038168","9.655249","2.099487","-0.143555","0.123218","-0.154321","0.215332","-0.153125","-0.235669","0.075366"
"A","1617445185.402656","7","-10","48","46","39","36","0.69342","0.193298","-0.693542","0.028259","-0.053435","-0.022901","-0.038168","9.624146","2.055225","-0.105273","0.090918","-0.186621","0.253613","-0.179443","-0.270361","0.035889"
"A","1617445185.3927872","7","-10","72","48","41","36","0.693359","0.193481","-0.693481","0.029236","-0.053435","-0.015267","-0.038168","9.565527","1.987036","-0.053833","0.029907","-0.244043","0.30625","-0.214136","-0.326587","-0.037085"
"A","1617445185.3834257","7","-10","48","48","47","37","0.693298","0.193604","-0.693481","0.030212","-0.045802","-0.015267","-0.038168","9.499731","1.908081","-0.015552","-0.038281","-0.311035","0.344531","-0.23208","-0.385205","-0.119629"
"A","1617445185.372852","7","-11","47","46","38","33","0.693115","0.193726","-0.693604","0.031067","-0.038168","0","-0.038168","9.460254","1.825537","-0.004785","-0.080151","-0.382812","0.360083","-0.224902","-0.447412","-0.177051"
"A","1617445185.3626163","7","-10","47","45","41","37","0.69281","0.193909","-0.693848","0.031677","-0.030534","0.007634","-0.030534","9.461451","1.776489","-0.015552","-0.080151","-0.424683","0.356494","-0.208154","-0.484497","-0.186621"
"A","1617445185.352871","7","-10","49","47","41","34","0.692383","0.194092","-0.694153","0.032043","-0.030534","0.015267","-0.022901","9.457861","1.770508","-0.057422","-0.08374","-0.427075","0.325391","-0.177051","-0.476123","-0.189014"
"A","1617445185.3426664","7","-9","48","48","41","34","0.691956","0.194275","-0.694519","0.032288","-0.022901","0.022901","-0.015267","9.423169","1.783667","-0.101685","-0.118433","-0.411523","0.291895","-0.150732","-0.443823","-0.218921"
"A","1617445185.3335066","7","-10","49","47","38","33","0.691528","0.194458","-0.694946","0.03241","-0.015267","0.022901","-0.015267","9.381299","1.815967","-0.147144","-0.160303","-0.378027","0.258398","-0.130396","-0.393579","-0.251221"
"A","1617445185.3234189","7","-10","51","49","39","35","0.690979","0.194702","-0.695374","0.03241","-0.015267","0.030534","-0.007634","9.371729","1.855444","-0.200977","-0.168677","-0.33855","0.218921","-0.105273","-0.342139","-0.248828"
"A","1617445185.3127954","7","-10","48","48","41","35","0.69043","0.194885","-0.695923","0.032288","-0.007634","0.038168","0","9.372925","1.891333","-0.27395","-0.16748","-0.305054","0.161499","-0.061011","-0.293091","-0.238062"
"A","1617445185.3033676","7","-10","49","46","40","35","0.689819","0.195007","-0.696472","0.031982","0.007634","0.045802","0","9.370532","1.922436","-0.34812","-0.16748","-0.277539","0.104077","-0.015552","-0.250024","-0.229687"
"A","1617445185.2926223","7","-10","47","46","40","33","0.689209","0.195007","-0.697083","0.031555","0.015267","0.045802","0","9.364551","1.955933","-0.419897","-0.172266","-0.246436","0.049048","0.026318","-0.202173","-0.224902"
"A","1617445185.282724","7","-7","49","48","40","33","0.68866","0.195007","-0.697632","0.031067","0.015267","0.045802","0","9.364551","2.024121","-0.46416","-0.169873","-0.183032","0.020337","0.033496","-0.135181","-0.206958"
"A","1617445184.9834642","7","-10","48","46","38","33","0.686829","0.190735","-0.700989","0.022522","-0.022901","0.007634","-0.007634","9.49375","2.405737","-0.68667","-0.026318","0.147144","-0.142358","0.090918","0.184229","0.015552"
"A","1617445184.973605","7","-10","48","48","40","39","0.686707","0.190918","-0.70105","0.022827","-0.030534","0.007634","-0.007634","9.484179","2.412915","-0.683081","-0.035889","0.156714","-0.135181","0.081348","0.192603","0.008374"
"A","1617445184.9634826","7","-10","47","46","40","32","0.686523","0.191101","-0.701111","0.023193","-0.038168","0","-0.015267","9.460254","2.423682","-0.66394","-0.059814","0.169873","-0.112451","0.055029","0.203369","-0.011963"
"A","1617445184.9537058","7","-10","45","24","38","35","0.686401","0.191284","-0.701172","0.023804","-0.045802","0","-0.022901","9.443506","2.410522","-0.625659","-0.077759","0.163892","-0.071777","0.016748","0.19021","-0.033496"
"A","1617445184.9435542","7","-10","47","48","39","35","0.686279","0.191467","-0.701233","0.024597","-0.045802","0","-0.030534","9.427954","2.362671","-0.5802","-0.095703","0.124414","-0.022729","-0.016748","0.143555","-0.062207"
"A","1617445184.9335551","7","-10","45","48","39","37","0.686157","0.191467","-0.701355","0.025513","-0.038168","0","-0.038168","9.402832","2.25979","-0.551489","-0.124414","0.034692","0.007178","-0.019141","0.058618","-0.112451"
"A","1617445184.9234543","7","-10","48","47","39","35","0.686035","0.191345","-0.701477","0.026428","-0.030534","0","-0.045802","9.393262","2.106665","-0.517993","-0.137573","-0.101685","0.043066","-0.011963","-0.07417","-0.159106"
"A","1617445184.9134977","7","-10","46","47","40","31","0.685913","0.191101","-0.701599","0.027283","-0.030534","0","-0.053435","9.383692","1.983447","-0.461768","-0.149536","-0.209351","0.101685","-0.034692","-0.189014","-0.197388"
"A","1617445184.903717","7","-10","49","49","38","36","0.685791","0.190918","-0.701782","0.028076","-0.038168","0","-0.045802","9.370532","1.909277","-0.382812","-0.16748","-0.270361","0.183032","-0.093311","-0.266772","-0.233276"
"A","1617445184.893567","7","-11","45","46","35","35","0.685608","0.190857","-0.701904","0.028748","-0.038168","0","-0.038168","9.341822","1.860229","-0.309839","-0.197388","-0.308643","0.259595","-0.154321","-0.318213","-0.275146"
"A","1617445184.8837962","7","-10","45","45","41","33","0.685364","0.190979","-0.702087","0.029358","-0.038168","0","-0.022901","9.332251","1.833911","-0.247632","-0.208154","-0.326587","0.327783","-0.212939","-0.352905","-0.293091"
"A","1617445184.873638","7","-10","44","47","41","36","0.68512","0.191223","-0.702209","0.029785","-0.038168","0","-0.015267","9.310718","1.84707","-0.22251","-0.229687","-0.309839","0.358887","-0.247632","-0.343335","-0.312231"
"A","1617445184.863507","7","-10","47","47","39","32","0.684875","0.191711","-0.702332","0.030151","-0.045802","-0.007634","-0.007634","9.277222","1.893726","-0.23208","-0.263184","-0.26438","0.356494","-0.259595","-0.293091","-0.334961"
"A","1617445184.8537648","7","-10","47","46","40","39","0.684692","0.192261","-0.702332","0.030579","-0.045802","-0.007634","0","9.244922","1.952344","-0.259595","-0.295483","-0.205762","0.332568","-0.25481","-0.223706","-0.352905"
"A","1617445184.8436246","7","-10","46","47","39","35","0.684509","0.19281","-0.702332","0.030945","-0.038168","-0.007634","0","9.234156","1.99541","-0.300269","-0.305054","-0.165088","0.29668","-0.233276","-0.173462","-0.350513"
"A","1617445184.8336957","7","-10","48","46","41","33","0.684326","0.193176","-0.702454","0.031311","-0.022901","0","-0.007634","9.2521","2.001392","-0.351709","-0.288306","-0.15791","0.250024","-0.19021","-0.156714","-0.330176"
"A","1617445184.8235028","7","-10","48","47","39","35","0.684082","0.193237","-0.702576","0.031494","0","0.007634","-0.015267","9.286792","1.966699","-0.425879","-0.252417","-0.19021","0.18064","-0.113647","-0.173462","-0.297876"
"A","1617445184.8137743","7","-10","48","49","36","35","0.68396","0.193115","-0.70282","0.031494","0.015267","0.007634","-0.015267","9.325073","1.918848","-0.474927","-0.215332","-0.235669","0.136377","-0.057422","-0.209351","-0.269165"
"A","1617445184.803676","7","-10","49","46","39","35","0.683777","0.19281","-0.703064","0.031311","0.022901","0.015267","-0.022901","9.375318","1.875781","-0.494067","-0.165088","-0.276343","0.122021","-0.029907","-0.25481","-0.228491"
"A","1617445184.793533","7","-10","49","48","40","37","0.683655","0.192383","-0.703308","0.031067","0.022901","0.007634","-0.015267","9.411206","1.84707","-0.512012","-0.129199","-0.301465","0.107666","-0.008374","-0.281128","-0.198584"
"A","1617445184.7836528","7","-10","49","48","40","29","0.683533","0.192078","-0.703491","0.03064","0.022901","0.007634","0","9.415991","1.863818","-0.526367","-0.123218","-0.285913","0.096899","-0.003589","-0.265576","-0.187817"
"A","1617445184.773512","7","-11","43","46","40","31","0.683533","0.192017","-0.703552","0.030212","0.015267","0","0.007634","9.406421","1.940381","-0.537134","-0.132788","-0.215332","0.087329","-0.016748","-0.194995","-0.181836"
"A","1617445184.763811","7","-10","45","47","39","35","0.683472","0.1922","-0.703552","0.029724","0","-0.007634","0.015267","9.388476","2.057617","-0.575415","-0.147144","-0.10647","0.050244","-0.015552","-0.078955","-0.169873"
"A","1617445184.7537014","7","-10","45","46","39","33","0.683533","0.192566","-0.703491","0.029358","0","-0.007634","0.022901","9.344213","2.193994","-0.626855","-0.191406","0.017944","0","-0.007178","0.059814","-0.181836"
"A","1617445184.7436676","7","-10","47","46","40","36","0.683533","0.19281","-0.703369","0.028992","0.007634","-0.007634","0.022901","9.301147","2.296875","-0.691455","-0.230884","0.112451","-0.0646","0.023926","0.175854","-0.194995"
"A","1617445184.7337198","7","-10","45","46","40","35","0.683594","0.192871","-0.703369","0.028564","0.022901","0.007634","0.015267","9.298755","2.34353","-0.769214","-0.23208","0.153125","-0.143555","0.086133","0.238062","-0.181836"
"A","1617445184.723706","7","-10","47","45","41","35","0.683533","0.192627","-0.703491","0.028137","0.038168","0.015267","0.007634","9.347803","2.335156","-0.855347","-0.183032","0.142358","-0.227295","0.169873","0.242847","-0.131592"
"A","1617445184.7136426","7","-10","48","48","39","36","0.683411","0.192139","-0.703735","0.027588","0.045802","0.022901","-0.007634","9.411206","2.302856","-0.935498","-0.118433","0.108862","-0.303857","0.253613","0.218921","-0.070581"
"A","1617445184.7037854","7","-11","45","47","42","37","0.683411","0.191528","-0.703979","0.0271","0.038168","0.022901","-0.015267","9.445898","2.25979","-0.961816","-0.084937","0.068188","-0.328979","0.290698","0.18064","-0.045459"
"A","1617445184.6935923","7","-10","47","47","38","36","0.683411","0.190918","-0.704102","0.026733","0.022901","0.007634","-0.015267","9.454272","2.241846","-0.936694","-0.076563","0.052637","-0.305054","0.272754","0.156714","-0.04187"
"A","1617445184.683701","7","-10","49","46","38","36","0.683472","0.190552","-0.704163","0.026489","0.007634","0","-0.007634","9.420776","2.245435","-0.894824","-0.110059","0.057422","-0.26438","0.233276","0.156714","-0.076563"
"A","1617445184.673549","7","-10","47","46","42","35","0.683533","0.190552","-0.704102","0.026428","-0.015267","-0.007634","0","9.374121","2.289697","-0.858936","-0.156714","0.100488","-0.229687","0.186621","0.197388","-0.114844"
"A","1617445184.663785","7","-10","49","48","40","33","0.683655","0.190674","-0.703918","0.02655","-0.015267","-0.015267","0.007634","9.31311","2.316016","-0.855347","-0.217725","0.126807","-0.229687","0.178247","0.235669","-0.168677"
"A","1617445184.6536314","7","-10","49","47","37","33","0.683716","0.190857","-0.703796","0.026672","-0.015267","-0.007634","0.007634","9.29038","2.304053","-0.891235","-0.240454","0.113647","-0.267969","0.217725","0.240454","-0.191406"
"A","1617445184.6436336","7","-10","50","50","40","36","0.683777","0.190918","-0.703735","0.026733","0","0","0","9.325073","2.266968","-0.95105","-0.205762","0.076563","-0.328979","0.287109","0.216528","-0.161499"
"A","1617445184.633645","7","-10","51","47","37","35","0.683777","0.190796","-0.703796","0.026733","0.007634","0.007634","0","9.400439","2.226294","-1.012061","-0.131592","0.037085","-0.38999","0.358887","0.18064","-0.094507"
"A","1617445184.624588","7","-9","49","46","38","33","0.683777","0.190613","-0.703796","0.026611","0.007634","0","-0.007634","9.461451","2.19519","-1.05752","-0.069385","0.007178","-0.435449","0.411523","0.151929","-0.037085"
"A","1617445184.613799","7","-10","48","50","40","33","0.683899","0.190491","-0.703735","0.02655","-0.007634","-0.007634","-0.007634","9.478198","2.19519","-1.046753","-0.053833","0.007178","-0.428271","0.404346","0.145947","-0.022729"
"A","1617445184.603975","7","-10","47","46","37","32","0.684143","0.190491","-0.703552","0.026733","-0.022901","-0.022901","-0.007634","9.459058","2.201172","-0.996509","-0.07417","0.014355","-0.382812","0.358887","0.143555","-0.044263"
"A","1617445184.5940402","7","-9","49","47","40","33","0.684448","0.190735","-0.703125","0.0271","-0.045802","-0.030534","-0.007634","9.429151","2.235864","-0.913965","-0.104077","0.050244","-0.309839","0.277539","0.162695","-0.070581"
"A","1617445184.5843985","7","-10","49","48","42","35","0.684814","0.191101","-0.702637","0.027649","-0.053435","-0.038168","0","9.395655","2.270557","-0.826636","-0.13877","0.086133","-0.233276","0.193799","0.181836","-0.101685"
"A","1617445184.5736074","7","-10","48","48","40","32","0.685181","0.191589","-0.702148","0.028381","-0.045802","-0.038168","0","9.384888","2.26936","-0.756055","-0.150732","0.086133","-0.173462","0.136377","0.166284","-0.11604"
"A","1617445184.5642457","7","-10","47","47","42","33","0.685486","0.191956","-0.701721","0.028992","-0.038168","-0.030534","-0.007634","9.414795","2.234668","-0.71897","-0.122021","0.053833","-0.144751","0.118433","0.120825","-0.098096"
"A","1617445184.5543013","7","-10","48","47","41","35","0.685669","0.1922","-0.701416","0.029541","-0.030534","-0.022901","-0.007634","9.461451","2.219116","-0.714185","-0.075366","0.04187","-0.145947","0.124414","0.099292","-0.055029"
"A","1617445184.5443127","7","-10","48","45","39","39","0.685852","0.192383","-0.701172","0.030029","-0.030534","-0.022901","-0.007634","9.475805","2.215527","-0.709399","-0.062207","0.04187","-0.147144","0.12561","0.096899","-0.04187"
"A","1617445184.534265","7","-10","49","47","39","36","0.686035","0.192627","-0.700928","0.030396","-0.038168","-0.022901","-0.007634","9.471021","2.209546","-0.674707","-0.068188","0.035889","-0.117236","0.098096","0.08374","-0.05144"
"A","1617445184.5242968","7","-10","48","48","39","34","0.686279","0.192993","-0.700562","0.030884","-0.053435","-0.030534","0","9.456665","2.256201","-0.614893","-0.082544","0.08374","-0.0646","0.033496","0.11604","-0.057422"
"A","1617445184.5144837","7","-10","51","48","39","12","0.686462","0.193542","-0.700195","0.031494","-0.061069","-0.030534","0","9.447095","2.321997","-0.563452","-0.092114","0.149536","-0.019141","-0.029907","0.163892","-0.055029"
"A","1617445184.503616","7","-10","48","46","39","33","0.686584","0.194275","-0.69989","0.032227","-0.068702","-0.030534","0","9.472217","2.383008","-0.523975","-0.068188","0.210547","0.015552","-0.082544","0.204565","-0.020337"
"A","1617445184.4937108","7","-10","48","48","40","36","0.686646","0.195007","-0.699585","0.03302","-0.068702","-0.030534","-0.007634","9.479395","2.394971","-0.491675","-0.061011","0.22251","0.045459","-0.114844","0.204565","-0.011963"
"A","1617445184.4837525","7","-10","47","47","40","33","0.686768","0.195496","-0.69928","0.033997","-0.061069","-0.038168","-0.015267","9.459058","2.33396","-0.456982","-0.08374","0.16748","0.075366","-0.12561","0.14834","-0.047852"
"A","1617445184.4743824","7","-10","45","48","35","35","0.686951","0.19574","-0.698975","0.035034","-0.053435","-0.038168","-0.030534","9.433935","2.203564","-0.419897","-0.111255","0.047852","0.10647","-0.118433","0.034692","-0.102881"
"A","1617445184.4643612","7","-10","47","46","38","33","0.687134","0.195801","-0.698669","0.036072","-0.053435","-0.030534","-0.038168","9.461451","2.063599","-0.362476","-0.086133","-0.078955","0.156714","-0.124414","-0.102881","-0.108862"
"A","1617445184.4543092","7","-10","45","48","40","33","0.687317","0.195801","-0.698486","0.03717","-0.045802","-0.030534","-0.045802","9.503321","1.955933","-0.279932","-0.047852","-0.172266","0.233276","-0.165088","-0.22251","-0.095703"
"A","1617445184.4443853","7","-11","46","48","36","31","0.687439","0.195801","-0.698303","0.038208","-0.045802","-0.030534","-0.045802","9.538013","1.851856","-0.19978","-0.016748","-0.263184","0.308643","-0.205762","-0.337354","-0.088525"
"A","1617445184.4343555","7","-10","44","46","38","36","0.687439","0.195923","-0.698181","0.039124","-0.045802","-0.030534","-0.038168","9.555957","1.79563","-0.137573","-0.001196","-0.308643","0.368457","-0.246436","-0.401953","-0.086133"
"A","1617445184.4244635","7","-10","48","47","41","35","0.687439","0.196228","-0.698059","0.039917","-0.053435","-0.030534","-0.022901","9.541601","1.778882","-0.108862","-0.016748","-0.318213","0.395972","-0.269165","-0.417505","-0.104077"
"A","1617445184.4145224","7","-10","45","46","39","33","0.687439","0.196655","-0.697876","0.04071","-0.061069","-0.030534","-0.015267","9.512891","1.817163","-0.093311","-0.046655","-0.275146","0.410327","-0.29668","-0.376831","-0.124414"
"A","1617445184.4043736","7","-10","45","47","41","34","0.687439","0.197327","-0.697693","0.041443","-0.061069","-0.022901","-0.007634","9.488965","1.873389","-0.087329","-0.071777","-0.217725","0.416309","-0.321802","-0.320605","-0.137573"
"A","1617445184.3944993","7","-10","48","48","35","32","0.687378","0.197998","-0.69751","0.042114","-0.061069","-0.022901","-0.007634","9.455469","1.916455","-0.095703","-0.104077","-0.174658","0.407935","-0.327783","-0.271558","-0.159106"
"A","1617445184.384423","7","-10","48","48","40","38","0.687256","0.198547","-0.697449","0.042786","-0.045802","-0.022901","-0.007634","9.408813","1.910474","-0.124414","-0.151929","-0.178247","0.381616","-0.302661","-0.257202","-0.205762"
"A","1617445184.374488","7","-10","49","48","40","37","0.687195","0.198914","-0.697388","0.043274","-0.022901","-0.015267","-0.015267","9.376513","1.849463","-0.183032","-0.184229","-0.238062","0.324194","-0.228491","-0.285913","-0.246436"
"A","1617445184.3643262","7","-10","53","48","38","34","0.687134","0.198975","-0.697388","0.043518","-0.007634","-0.007634","-0.015267","9.389673","1.804004","-0.251221","-0.172266","-0.279932","0.257202","-0.150732","-0.305054","-0.240454"
"A","1617445184.354489","7","-10","45","47","40","33","0.687073","0.198914","-0.69751","0.043518","0.007634","0","-0.015267","9.421972","1.809985","-0.311035","-0.139966","-0.272754","0.198584","-0.098096","-0.285913","-0.204565"
"A","1617445184.3444445","7","-10","49","48","38","35","0.686951","0.198792","-0.697632","0.043457","0.015267","0","-0.015267","9.436328","1.836304","-0.361279","-0.12561","-0.245239","0.151929","-0.062207","-0.247632","-0.181836"
"A","1617445184.3343964","7","-9","48","48","40","37","0.68689","0.198608","-0.697754","0.043213","0.015267","0","-0.007634","9.430346","1.880566","-0.410327","-0.131592","-0.202173","0.105273","-0.033496","-0.191406","-0.175854"
"A","1617445184.3244076","7","-10","48","46","35","29","0.686829","0.198547","-0.697876","0.042908","0.007634","0","0","9.423169","1.95354","-0.462964","-0.137573","-0.131592","0.055029","-0.00957","-0.108862","-0.165088"
"A","1617445184.314485","7","-10","48","47","40","36","0.686768","0.198669","-0.697937","0.042542","0","0","0.015267","9.407618","2.051636","-0.516797","-0.151929","-0.039478","0.003589","0.005981","-0.003589","-0.156714"
"A","1617445184.3045104","7","-10","48","47","39","35","0.686707","0.198853","-0.697937","0.042236","0","0","0.015267","9.390869","2.172461","-0.598145","-0.16748","0.072974","-0.075366","0.04187","0.128003","-0.143555"
"A","1617445184.2944748","7","-10","49","47","42","33","0.686646","0.199097","-0.697937","0.04187","0.007634","0","0.022901","9.372925","2.257397","-0.693848","-0.183032","0.149536","-0.168677","0.104077","0.233276","-0.136377"
"A","1617445184.2844443","7","-9","49","48","40","35","0.686646","0.199158","-0.697937","0.041504","0.015267","0","0.015267","9.366943","2.312427","-0.790747","-0.187817","0.19978","-0.265576","0.178247","0.312231","-0.12561"
"A","1617445184.2744634","7","-10","49","48","42","37","0.686707","0.199036","-0.697937","0.041138","0.022901","0.007634","0.007634","9.382495","2.350708","-0.884058","-0.171069","0.234473","-0.358887","0.25481","0.37085","-0.096899"
"A","1617445184.2643404","7","-10","49","47","39","33","0.686768","0.19873","-0.697998","0.040771","0.030534","0.007634","0","9.424365","2.367456","-0.961816","-0.129199","0.250024","-0.437842","0.325391","0.401953","-0.047852"
"A","1617445184.254386","7","-10","45","47","40","33","0.686829","0.198242","-0.698059","0.040466","0.030534","0.007634","-0.015267","9.472217","2.365063","-1.028809","-0.081348","0.248828","-0.507227","0.393579","0.41272","0.001196"
"A","1617445184.244547","7","-10","47","46","36","58","0.686951","0.197632","-0.69812","0.040283","0.022901","0","-0.015267","9.494946","2.354297","-1.056323","-0.059814","0.244043","-0.537134","0.423486","0.41272","0.021533"
"A","1617445184.2345216","7","-11","45","47","39","35","0.687195","0.197144","-0.697998","0.040283","0.007634","-0.015267","-0.015267","9.474609","2.339942","-1.046753","-0.081348","0.235669","-0.534741","0.424683","0.409131","0"
"A","1617445184.224513","7","-10","46","48","39","31","0.687561","0.196838","-0.697754","0.040405","-0.022901","-0.022901","-0.015267","9.447095","2.349512","-0.997705","-0.111255","0.248828","-0.495264","0.381616","0.413916","-0.028711"
"A","1617445184.2145882","7","-15","47","48","40","37","0.687866","0.196899","-0.697388","0.040894","-0.045802","-0.030534","-0.007634","9.424365","2.394971","-0.911572","-0.135181","0.299072","-0.418701","0.291895","0.441431","-0.046655"
"A","1617445184.2046006","7","-10","47","46","-8","32","0.688171","0.197144","-0.697021","0.041687","-0.053435","-0.030534","-0.007634","9.383692","2.40813","-0.833813","-0.178247","0.318213","-0.349316","0.218921","0.446216","-0.088525"
"A","1617445184.1944969","7","-10","45","46","40","32","0.688416","0.197266","-0.696655","0.042542","-0.038168","-0.022901","-0.015267","9.372925","2.329175","-0.782373","-0.191406","0.247632","-0.30625","0.200977","0.369653","-0.118433"
"A","1617445184.1846073","7","-10","48","48","41","37","0.688599","0.197327","-0.696472","0.043274","-0.030534","-0.015267","-0.022901","9.431543","2.202368","-0.759644","-0.135181","0.129199","-0.289502","0.224902","0.242847","-0.089722"
"A","1617445184.1745098","7","-10","49","46","40","35","0.68866","0.197144","-0.69635","0.043945","-0.022901","-0.007634","-0.030534","9.504517","2.091113","-0.741699","-0.063403","0.029907","-0.275146","0.246436","0.131592","-0.04187"
"A","1617445184.1645255","7","-10","52","47","44","35","0.688782","0.197021","-0.696228","0.044617","-0.030534","-0.015267","-0.038168","9.536817","2.022925","-0.71897","-0.033496","-0.027515","-0.256006","0.248828","0.066992","-0.026318"
"A","1617445184.154616","7","-10","48","47","40","31","0.688904","0.19696","-0.696106","0.045349","-0.045802","-0.022901","-0.038168","9.548779","1.990625","-0.671118","-0.025122","-0.049048","-0.212939","0.215332","0.031104","-0.023926"
"A","1617445184.144699","7","-10","49","47","37","33","0.689087","0.197083","-0.695862","0.046265","-0.061069","-0.030534","-0.030534","9.552368","1.981055","-0.599341","-0.023926","-0.049048","-0.147144","0.154321","0.008374","-0.026318"
"A","1617445184.1346524","7","-19","49","47","40","31","0.68927","0.19751","-0.695435","0.047241","-0.076336","-0.038168","-0.022901","9.502124","2.015747","-0.501245","-0.075366","-0.008374","-0.056226","0.052637","0.026318","-0.071777"
"A","1617445184.124594","7","-9","47","47","39","37","0.689453","0.198181","-0.695007","0.048401","-0.091603","-0.038168","-0.015267","9.457861","2.058814","-0.406738","-0.120825","0.039478","0.029907","-0.044263","0.050244","-0.111255"
"A","1617445184.1146944","7","-10","47","47","40","33","0.689514","0.199036","-0.69458","0.049622","-0.091603","-0.030534","-0.015267","9.456665","2.067188","-0.342139","-0.123218","0.052637","0.089722","-0.105273","0.04187","-0.112451"
"A","1617445184.1045225","7","-10","49","50","38","33","0.689514","0.199768","-0.694275","0.050842","-0.083969","-0.030534","-0.015267","9.472217","2.038476","-0.314624","-0.108862","0.029907","0.114844","-0.120825","0.00957","-0.105273"
"A","1617445184.094514","7","-10","48","48","39","37","0.689453","0.200378","-0.694092","0.052002","-0.068702","-0.022901","-0.030534","9.490161","1.967896","-0.333765","-0.093311","-0.0323","0.095703","-0.080151","-0.043066","-0.101685"
"A","1617445184.084506","7","-10","45","48","7","23","0.689331","0.200745","-0.694031","0.053101","-0.061069","-0.007634","-0.030534","9.533228","1.863818","-0.34812","-0.052637","-0.12561","0.082544","-0.033496","-0.132788","-0.080151"
"A","1617445184.0746574","7","-11","47","49","39","33","0.689148","0.201111","-0.694031","0.054077","-0.061069","-0.007634","-0.030534","9.569117","1.794434","-0.352905","-0.017944","-0.185425","0.080151","-0.00957","-0.193799","-0.057422"
"A","1617445184.064576","7","-10","47","46","43","36","0.688904","0.201538","-0.694092","0.055054","-0.068702","-0.007634","-0.030534","9.55835","1.769312","-0.344531","-0.031104","-0.202173","0.093311","-0.015552","-0.210547","-0.07417"
"A","1617445184.0545166","7","-10","47","47","41","33","0.688721","0.202026","-0.694031","0.055969","-0.076336","-0.007634","-0.022901","9.527246","1.758545","-0.324194","-0.062207","-0.206958","0.11604","-0.035889","-0.216528","-0.10647"
"A","1617445184.044615","7","-10","48","47","39","33","0.688538","0.202637","-0.69397","0.056946","-0.076336","-0.007634","-0.022901","9.492554","1.778882","-0.290698","-0.098096","-0.18064","0.153125","-0.080151","-0.198584","-0.13877"
"A","1617445184.0346131","7","-10","48","48","41","32","0.688293","0.20343","-0.693909","0.057861","-0.083969","-0.015267","-0.015267","9.469824","1.818359","-0.248828","-0.122021","-0.13877","0.19978","-0.13877","-0.173462","-0.155518"
"A","1617445184.0244546","7","-10","48","48","42","35","0.68811","0.204285","-0.693726","0.058838","-0.091603","-0.015267","-0.015267","9.438721","1.865015","-0.202173","-0.151929","-0.089722","0.248828","-0.203369","-0.139966","-0.177051"
"A","1617445184.0146103","7","-10","47","47","41","33","0.687927","0.2052","-0.693604","0.059875","-0.083969","-0.015267","-0.015267","9.415991","1.92124","-0.168677","-0.175854","-0.031104","0.284717","-0.258398","-0.095703","-0.191406"
"A","1617445184.004621","7","-10","48","47","40","35","0.687683","0.205933","-0.693481","0.060974","-0.076336","-0.015267","-0.022901","9.405225","1.909277","-0.159106","-0.187817","-0.037085","0.297876","-0.267969","-0.105273","-0.204565"
"A","1617445183.9946396","7","-10","44","44","40","35","0.687439","0.206482","-0.693481","0.062012","-0.061069","-0.007634","-0.030534","9.410009","1.84707","-0.150732","-0.184229","-0.092114","0.311035","-0.259595","-0.161499","-0.212939"
"A","1617445183.9846404","7","-10","48","46","42","35","0.687195","0.206726","-0.693604","0.062927","-0.045802","0","-0.038168","9.411206","1.769312","-0.144751","-0.185425","-0.159106","0.321802","-0.244043","-0.226099","-0.227295"
"A","1617445183.9746344","7","-10","48","47","39","37","0.68689","0.206848","-0.693787","0.063782","-0.045802","0","-0.038168","9.404028","1.68916","-0.13877","-0.194995","-0.227295","0.333765","-0.229687","-0.290698","-0.251221"
"A","1617445183.9645112","7","-10","48","44","40","33","0.686646","0.20697","-0.693909","0.064575","-0.038168","-0.007634","-0.038168","9.402832","1.626953","-0.124414","-0.197388","-0.279932","0.351709","-0.226099","-0.345728","-0.26438"
"A","1617445183.954695","7","-10","45","48","39","35","0.686401","0.207092","-0.694031","0.065308","-0.045802","-0.007634","-0.038168","9.383692","1.580298","-0.095703","-0.217725","-0.317017","0.385205","-0.242847","-0.387598","-0.293091"
"A","1617445183.944734","7","-11","47","48","40","36","0.686279","0.207336","-0.694031","0.06604","-0.053435","-0.015267","-0.030534","9.360962","1.567139","-0.052637","-0.242847","-0.322998","0.430664","-0.282324","-0.405542","-0.320605"
"A","1617445183.9346004","7","-10","48","48","37","33","0.686096","0.207764","-0.69397","0.066833","-0.061069","-0.015267","-0.022901","9.327466","1.576709","0.002393","-0.276343","-0.307446","0.488086","-0.340942","-0.407935","-0.354102"
"A","1617445183.9244435","7","-10","46","46","40","32","0.685913","0.208313","-0.693909","0.067688","-0.061069","-0.015267","-0.015267","9.298755","1.559961","0.035889","-0.30625","-0.319409","0.523975","-0.369653","-0.427075","-0.386401"
"A","1617445183.9147646","7","-8","46","48","40","31","0.68573","0.208801","-0.693909","0.068359","-0.045802","-0.007634","-0.007634","9.310718","1.491772","0.05144","-0.294287","-0.384009","0.543115","-0.361279","-0.495264","-0.388794"
"A","1617445183.9046476","7","-10","47","48","40","37","0.685425","0.209229","-0.694031","0.068787","-0.030534","0","-0.007634","9.332251","1.425977","0.050244","-0.272754","-0.448608","0.549097","-0.340942","-0.56106","-0.38042"
"A","1617445183.894673","7","-10","47","47","41","32","0.68512","0.209595","-0.694214","0.06897","-0.015267","0.007634","-0.007634","9.358569","1.37334","0.028711","-0.246436","-0.502441","0.534741","-0.305054","-0.608911","-0.364868"
"A","1617445183.8846962","7","-10","47","46","41","35","0.684814","0.209778","-0.694458","0.06897","0","0.015267","-0.007634","9.400439","1.320703","0.011963","-0.203369","-0.555078","0.526367","-0.276343","-0.661548","-0.332568"
"A","1617445183.874683","7","-10","47","40","40","35","0.684509","0.209778","-0.694763","0.068665","0.015267","0.007634","-0.007634","9.412402","1.278833","-0.005981","-0.19021","-0.600537","0.516797","-0.248828","-0.701025","-0.328979"
"A","1617445183.8647237","7","-10","47","48","40","33","0.684326","0.209656","-0.695007","0.068237","0.022901","0.007634","0","9.399243","1.270459","-0.010767","-0.202173","-0.611304","0.517993","-0.247632","-0.709399","-0.343335"
"A","1617445183.85474","7","-10","47","48","39","35","0.684204","0.209656","-0.695251","0.067566","0.030534","0.007634","0.007634","9.372925","1.293188","-0.020337","-0.227295","-0.596948","0.514404","-0.250024","-0.689062","-0.364868"
"A","1617445183.8446355","7","-10","44","45","36","33","0.684021","0.209778","-0.695435","0.066711","0.030534","0.007634","0.030534","9.376513","1.368555","-0.029907","-0.221313","-0.533545","0.512012","-0.272754","-0.631641","-0.34812"
"A","1617445183.8347075","7","-10","48","47","36","37","0.683899","0.210022","-0.695618","0.065613","0.030534","0.015267","0.045802","9.374121","1.49895","-0.055029","-0.220117","-0.421094","0.492871","-0.299072","-0.521582","-0.325391"
"A","1617445183.824597","7","-11","47","48","38","38","0.683716","0.210449","-0.695801","0.064392","0.038168","0.022901","0.053435","9.364551","1.659253","-0.098096","-0.224902","-0.282324","0.458179","-0.320605","-0.381616","-0.301465"
"A","1617445183.8147569","7","1","49","48","38","33","0.683472","0.210815","-0.696045","0.062988","0.045802","0.030534","0.061069","9.395655","1.79563","-0.143555","-0.187817","-0.168677","0.42229","-0.330176","-0.271558","-0.24165"
"A","1617445183.804497","7","-10","49","49","40","37","0.683167","0.210999","-0.696411","0.061462","0.068702","0.038168","0.053435","9.445898","1.882959","-0.211743","-0.132788","-0.102881","0.366064","-0.302661","-0.200977","-0.171069"
"A","1617445183.7945812","7","-10","48","47","40","36","0.682922","0.210876","-0.696777","0.059937","0.083969","0.030534","0.038168","9.466235","1.917651","-0.267969","-0.107666","-0.086133","0.319409","-0.265576","-0.173462","-0.141162"
"A","1617445183.7846673","7","-10","47","48","40","32","0.6828","0.210327","-0.697205","0.058411","0.099237","0.022901","0.022901","9.439917","1.881763","-0.302661","-0.130396","-0.133984","0.291895","-0.22251","-0.200977","-0.172266"
"A","1617445183.7746732","7","-10","44","48","39","33","0.6828","0.209473","-0.697571","0.056824","0.122137","0.015267","0.015267","9.406421","1.788452","-0.351709","-0.161499","-0.236865","0.246436","-0.143555","-0.269165","-0.221313"
"A","1617445183.7647429","7","-10","45","47","39","31","0.682922","0.208374","-0.697937","0.055115","0.122137","0.015267","0.015267","9.398046","1.719067","-0.398364","-0.168677","-0.31582","0.19978","-0.072974","-0.321802","-0.24165"
"A","1617445183.7547395","7","-10","47","48","40","37","0.683044","0.207336","-0.698303","0.053284","0.122137","0.022901","0.022901","9.398046","1.733423","-0.447412","-0.166284","-0.312231","0.151929","-0.031104","-0.301465","-0.235669"
"A","1617445183.7445595","7","-10","47","47","39","35","0.683044","0.206543","-0.698669","0.05127","0.122137","0.030534","0.038168","9.405225","1.82793","-0.515601","-0.155518","-0.234473","0.087329","0","-0.209351","-0.205762"
"A","1617445183.734906","7","-10","47","49","37","32","0.682983","0.205872","-0.699097","0.049072","0.122137","0.045802","0.053435","9.414795","1.960718","-0.594556","-0.141162","-0.122021","0.014355","0.026318","-0.084937","-0.163892"
"A","1617445183.7245874","7","-10","47","46","38","33","0.682739","0.205505","-0.699585","0.046631","0.114504","0.061069","0.076336","9.432739","2.146142","-0.701025","-0.11604","0.034692","-0.080151","0.059814","0.084937","-0.100488"
"A","1617445183.7146904","7","-10","47","44","40","33","0.682434","0.205383","-0.700073","0.044067","0.099237","0.061069","0.091603","9.460254","2.386597","-0.814673","-0.080151","0.244043","-0.18064","0.082544","0.301465","-0.011963"
"A","1617445183.7047129","7","-10","47","46","38","33","0.682068","0.205566","-0.700562","0.041565","0.083969","0.061069","0.099237","9.477002","2.680884","-0.919946","-0.055029","0.502441","-0.271558","0.080151","0.562256","0.075366"
"A","1617445183.694622","7","-10","48","48","35","33","0.681763","0.205872","-0.700867","0.039368","0.068702","0.045802","0.099237","9.442309","2.944067","-1.009668","-0.081348","0.733325","-0.350513","0.076563","0.805103","0.108862"
"A","1617445183.684756","7","-11","48","49","36","33","0.68158","0.206055","-0.701111","0.037537","0.068702","0.030534","0.076336","9.393262","3.103174","-1.111353","-0.124414","0.866113","-0.443823","0.120825","0.966602","0.10647"
"A","1617445183.6746838","7","-10","48","45","39","31","0.681519","0.20575","-0.701355","0.036011","0.091603","0.022901","0.053435","9.365747","3.099585","-1.223804","-0.147144","0.845776","-0.552686","0.23208","0.989331","0.088525"
"A","1617445183.6646273","7","-10","48","47","39","35","0.681641","0.204773","-0.701599","0.034668","0.114504","0.030534","0.015267","9.406421","2.932105","-1.33147","-0.105273","0.672314","-0.661548","0.395972","0.855347","0.096899"
"A","1617445183.654673","7","-10","47","44","37","33","0.681885","0.203247","-0.701904","0.033386","0.129771","0.022901","-0.007634","9.490161","2.694043","-1.406836","-0.022729","0.436646","-0.740503","0.553882","0.6448","0.128003"
"A","1617445183.6445737","7","-10","47","47","38","36","0.68219","0.201477","-0.702148","0.032227","0.114504","0.022901","-0.022901","9.578687","2.467944","-1.409229","0.062207","0.216528","-0.750073","0.637622","0.423486","0.160303"
"A","1617445183.6347992","7","-10","48","48","40","33","0.682556","0.19989","-0.702209","0.03125","0.076336","0.015267","-0.030534","9.654053","2.344727","-1.309937","0.136377","0.100488","-0.660352","0.593359","0.267969","0.198584"
"A","1617445183.625405","7","-10","48","47","40","33","0.682983","0.198792","-0.702209","0.030762","0.030534","-0.007634","-0.022901","9.666016","2.310034","-1.136475","0.145947","0.071777","-0.49646","0.448608","0.186621","0.19021"
"A","1617445183.6146483","7","-11","44","50","40","39","0.683411","0.198303","-0.701904","0.030701","-0.007634","-0.022901","-0.007634","9.599024","2.337549","-0.907983","0.077759","0.102881","-0.279932","0.23208","0.163892","0.11604"
"A","1617445183.6054862","7","-10","45","46","39","35","0.683838","0.198303","-0.701477","0.030823","-0.022901","-0.030534","0.007634","9.491358","2.394971","-0.675903","-0.029907","0.160303","-0.059814","0.004785","0.172266","0.010767"
"A","1617445183.595394","7","-10","47","46","40","36","0.684082","0.198669","-0.701111","0.031067","-0.030534","-0.022901","0.022901","9.423169","2.446411","-0.519189","-0.098096","0.209351","0.088525","-0.151929","0.186621","-0.052637"
"A","1617445183.585396","7","-10","48","46","41","36","0.684204","0.199219","-0.700867","0.031189","-0.022901","-0.022901","0.022901","9.384888","2.478711","-0.470142","-0.135181","0.234473","0.135181","-0.204565","0.204565","-0.084937"
"A","1617445183.57551","7","-9","47","47","39","33","0.684204","0.199707","-0.700684","0.03125","-0.015267","-0.015267","0.022901","9.376513","2.485889","-0.502441","-0.141162","0.236865","0.101685","-0.174658","0.217725","-0.088525"
"A","1617445183.5646658","7","-10","48","47","40","33","0.684204","0.199951","-0.700623","0.03125","-0.007634","-0.007634","0.007634","9.404028","2.441626","-0.559863","-0.113647","0.189014","0.044263","-0.104077","0.185425","-0.069385"
"A","1617445183.5553231","7","-9","46","46","42","32","0.684204","0.19989","-0.700684","0.031311","0","0","-0.007634","9.449488","2.348315","-0.599341","-0.069385","0.096899","0.005981","-0.037085","0.102881","-0.045459"
"A","1617445183.545417","7","-11","49","47","37","35","0.684204","0.199646","-0.700745","0.031372","0.007634","0","-0.022901","9.496142","2.233472","-0.595752","-0.022729","-0.011963","0.00957","-0.004785","-0.008374","-0.025122"
"A","1617445183.5354958","7","-10","44","46","40","35","0.684204","0.19928","-0.700806","0.031555","0","0","-0.030534","9.534424","2.137769","-0.5479","0.011963","-0.100488","0.056226","-0.020337","-0.112451","-0.014355"
"A","1617445183.52523","7","-11","47","46","42","35","0.684204","0.198975","-0.700867","0.03186","-0.007634","0","-0.030534","9.545191","2.06958","-0.465356","0.021533","-0.160303","0.13877","-0.078955","-0.196191","-0.023926"
"A","1617445183.51599","7","-10","45","47","42","35","0.684143","0.198792","-0.700928","0.032166","-0.015267","-0.007634","-0.022901","9.538013","2.026514","-0.358887","0.013159","-0.196191","0.245239","-0.16748","-0.260791","-0.046655"
"A","1617445183.505368","7","-11","48","46","39","32","0.684082","0.198792","-0.70105","0.032532","-0.015267","0","-0.015267","9.508105","2.016943","-0.285913","-0.017944","-0.200977","0.320605","-0.238062","-0.281128","-0.082544"
"A","1617445183.495416","7","-10","48","45","37","32","0.68396","0.198914","-0.701111","0.032715","-0.015267","0","-0.007634","9.480591","2.010962","-0.250024","-0.045459","-0.205762","0.358887","-0.272754","-0.291895","-0.112451"
"A","1617445183.2055786","7","-10","49","46","41","35","0.681641","0.19519","-0.704651","0.026062","-0.030534","-0.007634","0","9.351392","2.359082","-0.526367","-0.161499","0.110059","0.151929","-0.179443","0.093311","-0.141162"
"A","1617445183.1957448","7","-10","47","48","39","38","0.681458","0.195374","-0.704773","0.026367","-0.015267","0.007634","0","9.376513","2.29209","-0.564648","-0.137573","0.046655","0.118433","-0.126807","0.039478","-0.130396"
"A","1617445183.185562","7","-10","47","46","38","34","0.681274","0.195435","-0.704956","0.02655","-0.007634","0.015267","-0.007634","9.417188","2.213135","-0.606519","-0.096899","-0.028711","0.082544","-0.069385","-0.027515","-0.105273"
"A","1617445183.175561","7","-10","47","46","39","33","0.68103","0.195435","-0.7052","0.026611","-0.007634","0.007634","-0.015267","9.436328","2.147339","-0.634033","-0.077759","-0.093311","0.061011","-0.028711","-0.084937","-0.100488"
"A","1617445183.165526","7","-11","72","48","40","36","0.680908","0.195374","-0.705322","0.026733","-0.007634","0.007634","-0.015267","9.449488","2.086328","-0.628052","-0.065796","-0.150732","0.070581","-0.019141","-0.143555","-0.102881"
"A","1617445183.1556225","7","-10","47","46","41","31","0.680725","0.195312","-0.705505","0.026917","-0.015267","0.007634","-0.015267","9.482984","2.051636","-0.588574","-0.0323","-0.181836","0.113647","-0.050244","-0.193799","-0.080151"
"A","1617445183.145525","7","-10","48","48","41","35","0.680542","0.195312","-0.705627","0.0271","-0.022901","0.007634","-0.015267","9.504517","2.033691","-0.521582","-0.010767","-0.196191","0.185425","-0.113647","-0.234473","-0.068188"
"A","1617445183.1357338","7","-10","46","46","41","33","0.680359","0.195496","-0.705811","0.027344","-0.022901","0","-0.015267","9.502124","2.033691","-0.459375","-0.014355","-0.193799","0.252417","-0.178247","-0.251221","-0.075366"
"A","1617445183.125586","7","-10","47","46","41","31","0.680176","0.195679","-0.705933","0.027527","-0.022901","0","-0.007634","9.468628","2.039673","-0.42229","-0.047852","-0.187817","0.294287","-0.220117","-0.251221","-0.110059"
"A","1617445183.1155586","7","-10","48","48","38","36","0.679993","0.195801","-0.705994","0.02771","-0.007634","-0.007634","-0.007634","9.433935","2.025317","-0.421094","-0.081348","-0.19978","0.299072","-0.220117","-0.256006","-0.145947"
"A","1617445183.105641","7","-10","52","50","40","39","0.679871","0.195862","-0.706116","0.027771","0","0","-0.007634","9.427954","2.001392","-0.44502","-0.087329","-0.223706","0.278735","-0.193799","-0.270361","-0.155518"
"A","1617445183.0955436","7","-9","49","46","42","32","0.679749","0.19574","-0.706299","0.027771","0.015267","0","-0.015267","9.443506","1.975073","-0.495264","-0.072974","-0.247632","0.233276","-0.143555","-0.281128","-0.143555"
"A","1617445183.085639","7","-10","46","48","38","32","0.679626","0.195496","-0.706482","0.027588","0.022901","0.007634","-0.015267","9.469824","1.952344","-0.553882","-0.046655","-0.269165","0.177051","-0.082544","-0.290698","-0.118433"
"A","1617445183.0755982","7","-10","45","45","38","35","0.679443","0.19519","-0.706726","0.027222","0.030534","0.015267","-0.007634","9.481787","1.955933","-0.601733","-0.033496","-0.265576","0.133984","-0.043066","-0.277539","-0.101685"
"A","1617445183.065667","7","-10","49","48","39","36","0.67926","0.194946","-0.707031","0.026733","0.022901","0.022901","0","9.505713","2.028906","-0.635229","-0.008374","-0.194995","0.10647","-0.039478","-0.209351","-0.059814"
"A","1617445183.055422","7","-10","47","47","40","29","0.678955","0.194885","-0.707336","0.026123","0.022901","0.030534","0.007634","9.505713","2.16648","-0.661548","-0.005981","-0.0646","0.088525","-0.063403","-0.08374","-0.026318"
"A","1617445183.0454562","7","-12","49","46","39","33","0.67865","0.194885","-0.707703","0.025513","0.022901","0.030534","0.015267","9.504517","2.307642","-0.687866","-0.005981","0.068188","0.071777","-0.088525","0.04187","0.003589"
"A","1617445183.0357006","7","-10","45","47","39","29","0.678284","0.194885","-0.708069","0.024841","0.030534","0.022901","0.022901","9.461451","2.396167","-0.739307","-0.046655","0.149536","0.031104","-0.075366","0.139966","-0.013159"
"A","1617445183.0254717","7","-10","46","50","39","33","0.67804","0.194824","-0.708313","0.02417","0.022901","0.015267","0.015267","9.388476","2.434448","-0.794336","-0.11604","0.18064","-0.016748","-0.038281","0.19978","-0.069385"
"A","1617445183.0157056","7","-11","46","48","41","32","0.677917","0.194641","-0.708496","0.023682","0.015267","0.007634","0.007634","9.350195","2.476318","-0.809888","-0.153125","0.218921","-0.027515","-0.039478","0.246436","-0.095703"
"A","1617445183.0056157","7","-10","46","47","40","35","0.677856","0.19458","-0.708618","0.023499","0","0.007634","0","9.340625","2.501441","-0.790747","-0.162695","0.24165","-0.005981","-0.066992","0.26438","-0.100488"
"A","1617445182.995547","7","-10","48","46","41","32","0.677734","0.194397","-0.70874","0.023499","0.007634","0","-0.007634","9.323877","2.465552","-0.768018","-0.179443","0.209351","0.017944","-0.080151","0.230884","-0.126807"
"A","1617445182.9855652","7","-7","45","47","42","33","0.677673","0.194031","-0.708862","0.023621","0.015267","0.007634","-0.015267","9.31311","2.372241","-0.776392","-0.191406","0.123218","0.010767","-0.046655","0.156714","-0.15791"
"A","1617445182.9757168","7","-10","49","45","36","37","0.677612","0.193481","-0.709106","0.023621","0.030534","0.015267","-0.030534","9.360962","2.232275","-0.801514","-0.145947","-0.008374","-0.011963","0.014355","0.031104","-0.142358"
"A","1617445182.9657023","7","-11","47","48","40","36","0.67749","0.19281","-0.709412","0.023499","0.030534","0.015267","-0.030534","9.410009","2.132983","-0.815869","-0.098096","-0.100488","-0.022729","0.052637","-0.062207","-0.11604"
"A","1617445182.9556432","7","-10","49","47","39","36","0.677368","0.192078","-0.709717","0.023315","0.038168","0.015267","-0.030534","9.427954","2.070776","-0.797925","-0.081348","-0.154321","-0.001196","0.047852","-0.122021","-0.113647"
"A","1617445182.9456944","7","-31","47","47","40","37","0.677307","0.191406","-0.709961","0.023071","0.030534","0.007634","-0.022901","9.427954","2.031299","-0.766821","-0.082544","-0.187817","0.029907","0.028711","-0.162695","-0.124414"
"A","1617445182.9363835","7","-10","48","45","38","32","0.677307","0.190918","-0.710144","0.022827","0.015267","0","-0.015267","9.386084","2.043262","-0.742895","-0.12561","-0.173462","0.055029","0","-0.145947","-0.165088"
"A","1617445182.926412","7","-10","48","47","40","-2","0.677368","0.190735","-0.710144","0.022644","0.007634","-0.007634","-0.007634","9.327466","2.086328","-0.709399","-0.184229","-0.130396","0.087329","-0.04187","-0.101685","-0.215332"
"A","1617445182.915628","7","-10","47","48","39","33","0.677368","0.190735","-0.710083","0.022461","0","-0.007634","0.007634","9.291577","2.138965","-0.684277","-0.218921","-0.080151","0.111255","-0.078955","-0.053833","-0.239258"
"A","1617445182.9056656","7","-10","44","47","38","36","0.677429","0.190857","-0.710022","0.022339","-0.007634","-0.007634","0.007634","9.259277","2.189209","-0.687866","-0.251221","-0.033496","0.10647","-0.088525","-0.001196","-0.259595"
"A","1617445182.8962138","7","-10","48","46","39","28","0.677368","0.19104","-0.710022","0.022217","-0.007634","0","0.007634","9.24851","2.239453","-0.720166","-0.260791","0.011963","0.076563","-0.07417","0.05144","-0.256006"
"A","1617445182.8864534","7","-10","45","45","41","32","0.677246","0.191101","-0.710144","0.022217","0.007634","0.015267","-0.007634","9.265259","2.237061","-0.766821","-0.244043","0.00957","0.033496","-0.0323","0.057422","-0.236865"
"A","1617445182.8763142","7","-10","47","46","39","35","0.676941","0.190857","-0.71051","0.022156","0.022901","0.022901","-0.015267","9.32268","2.162891","-0.849365","-0.186621","-0.059814","-0.040674","0.058618","0.001196","-0.19021"
"A","1617445182.8662946","7","-10","47","47","39","32","0.676697","0.190308","-0.710938","0.021973","0.038168","0.030534","-0.022901","9.376513","2.042065","-0.949854","-0.133984","-0.175854","-0.133984","0.181836","-0.090918","-0.15791"
"A","1617445182.8564422","7","-10","48","47","36","37","0.676453","0.189636","-0.711304","0.021606","0.030534","0.022901","-0.022901","9.415991","1.966699","-1.013257","-0.094507","-0.245239","-0.191406","0.256006","-0.149536","-0.130396"
"A","1617445182.8462636","7","-11","47","46","44","29","0.676331","0.189148","-0.711609","0.021179","0.022901","0.015267","-0.015267","9.406421","1.979858","-1.015649","-0.104077","-0.23208","-0.189014","0.250024","-0.135181","-0.136377"
"A","1617445182.8363132","7","-10","47","47","39","35","0.67627","0.188965","-0.71167","0.020874","0.007634","0","0","9.365747","2.039673","-0.971387","-0.143555","-0.173462","-0.143555","0.19021","-0.084937","-0.166284"
"A","1617445182.8263097","7","-27","47","47","39","32","0.676331","0.189087","-0.711609","0.02063","0","0","0.015267","9.327466","2.123413","-0.906787","-0.181836","-0.094507","-0.080151","0.10647","-0.020337","-0.19021"
"A","1617445182.815765","7","-10","50","63","40","31","0.676392","0.189331","-0.711487","0.020386","-0.007634","-0.007634","0.015267","9.307129","2.199975","-0.856543","-0.19978","-0.025122","-0.031104","0.039478","0.033496","-0.196191"
"A","1617445182.8063548","7","-9","47","47","40","33","0.676453","0.189575","-0.711365","0.020142","0","0","0.015267","9.316699","2.249023","-0.833813","-0.189014","0.015552","-0.00957","0.005981","0.062207","-0.178247"
"A","1617445182.7957168","7","-10","48","49","39","30","0.676453","0.189697","-0.711304","0.019897","0.007634","0","0.007634","9.359766","2.263379","-0.815869","-0.144751","0.025122","0.005981","-0.010767","0.056226","-0.133984"
"A","1617445182.786258","7","-10","48","45","39","32","0.676453","0.189697","-0.711365","0.019653","0.015267","0","0","9.389673","2.241846","-0.791943","-0.114844","0","0.031104","-0.027515","0.017944","-0.113647"
"A","1617445182.776337","7","-11","47","48","37","33","0.676514","0.189392","-0.711365","0.019531","0.022901","-0.007634","-0.015267","9.398046","2.17605","-0.781177","-0.10647","-0.062207","0.039478","-0.016748","-0.04187","-0.119629"
"A","1617445182.7663105","7","-10","47","47","20","80","0.676636","0.188904","-0.711426","0.01947","0.022901","-0.007634","-0.022901","9.401636","2.074365","-0.762036","-0.105273","-0.159106","0.056226","-0.004785","-0.137573","-0.142358"
"A","1617445182.7564206","7","-10","46","47","39","31","0.676758","0.188477","-0.711426","0.019409","0.007634","-0.007634","-0.022901","9.418384","1.98584","-0.714185","-0.089722","-0.242847","0.101685","-0.023926","-0.23208","-0.150732"
"A","1617445182.746292","7","-10","49","46","41","33","0.67688","0.188232","-0.711304","0.019409","-0.007634","-0.015267","-0.007634","9.415991","1.960718","-0.649585","-0.092114","-0.265576","0.161499","-0.07417","-0.269165","-0.162695"
"A","1617445182.7365465","7","-11","48","47","39","36","0.677002","0.188416","-0.711182","0.01947","-0.030534","-0.015267","0.007634","9.414795","1.98584","-0.558667","-0.093311","-0.242847","0.250024","-0.166284","-0.272754","-0.166284"
"A","1617445182.726293","7","-10","46","46","38","29","0.677063","0.188965","-0.710999","0.019592","-0.038168","-0.015267","0.015267","9.407618","2.048047","-0.466553","-0.099292","-0.185425","0.340942","-0.269165","-0.244043","-0.166284"
"A","1617445182.7163749","7","-10","49","49","39","29","0.677002","0.189636","-0.710815","0.019653","-0.038168","-0.015267","0.022901","9.388476","2.110254","-0.385205","-0.11604","-0.131592","0.42229","-0.362476","-0.212939","-0.177051"
"A","1617445182.7064378","7","-10","45","49","40","32","0.676941","0.190308","-0.710693","0.019775","-0.022901","-0.015267","0.015267","9.351392","2.15332","-0.322998","-0.150732","-0.095703","0.48689","-0.434253","-0.19021","-0.208154"
"A","1617445182.6965697","7","-10","49","48","42","33","0.67688","0.190552","-0.710754","0.019836","0.015267","-0.007634","0","9.348999","2.091113","-0.31582","-0.154321","-0.160303","0.49646","-0.423486","-0.252417","-0.227295"
"A","1617445182.6864994","7","-10","47","46","38","38","0.676758","0.190308","-0.710876","0.019531","0.038168","0","-0.007634","9.369336","1.95354","-0.350513","-0.132788","-0.297876","0.46416","-0.352905","-0.375635","-0.235669"
"A","1617445182.6764026","7","-12","48","46","40","33","0.676636","0.189819","-0.711182","0.019043","0.053435","0.007634","-0.015267","9.378906","1.842285","-0.378027","-0.123218","-0.409131","0.440234","-0.297876","-0.47373","-0.250024"
"A","1617445182.66639","7","-10","45","46","41","35","0.676575","0.189209","-0.711426","0.018311","0.053435","0.007634","-0.007634","9.359766","1.781274","-0.410327","-0.141162","-0.471338","0.410327","-0.251221","-0.517993","-0.278735"
"A","1617445182.6563463","7","-12","44","46","40","33","0.676514","0.188843","-0.711609","0.017578","0.030534","0.007634","0.007634","9.344213","1.783667","-0.411523","-0.155518","-0.474927","0.411523","-0.252417","-0.517993","-0.294287"
"A","1617445182.6463838","7","-10","47","46","38","33","0.676392","0.188843","-0.711731","0.016846","0.007634","0.007634","0.022901","9.340625","1.878174","-0.382812","-0.156714","-0.38999","0.443823","-0.307446","-0.447412","-0.278735"
"A","1617445182.6363711","7","-10","47","47","39","33","0.676208","0.189209","-0.711792","0.016174","0","0.007634","0.030534","9.321485","2.019336","-0.332568","-0.172266","-0.261987","0.498853","-0.398364","-0.33855","-0.269165"
"A","1617445182.626489","7","-10","47","48","38","33","0.675964","0.189758","-0.711914","0.015625","0.007634","0.015267","0.038168","9.284399","2.13418","-0.276343","-0.205762","-0.161499","0.562256","-0.48689","-0.25481","-0.284717"
"A","1617445182.6163564","7","-10","46","47","40","33","0.675598","0.190125","-0.712158","0.014893","0.030534","0.022901","0.038168","9.241333","2.174854","-0.257202","-0.244043","-0.133984","0.590967","-0.521582","-0.227295","-0.318213"
"A","1617445182.6064334","7","-10","49","45","40","36","0.675232","0.190125","-0.712524","0.013916","0.068702","0.030534","0.030534","9.254492","2.116235","-0.283521","-0.227295","-0.204565","0.575415","-0.48689","-0.290698","-0.318213"
"A","1617445182.596311","7","-10","46","48","38","34","0.674927","0.189758","-0.712952","0.012573","0.091603","0.030534","0.022901","9.276026","2.024121","-0.336157","-0.200977","-0.309839","0.532349","-0.416309","-0.381616","-0.314624"
