"Alphabet","timestamp","user_id","flex_1","flex_2","flex_3","flex_4","flex_5","Qw","Qx","Qy","Qz","GYRx","GYRy","GYRz","ACCx","ACCy","ACCz","ACCx_body","ACCy_body","ACCz_body","ACCx_world","ACCy_world","ACCz_world"
"B","1617445263.5366716","7","35","-5","-33","-45","-35","0.556335","-0.143066","-0.817993","-0.029236","0.045802","0.045802","0.061069","8.68147","-0.897217","-3.691748","-0.319409","0.193799","0.023926","0.137573","0.12561","-0.322998"
"B","1617445263.5268004","7","36","-3","-34","-44","-38","0.555542","-0.142761","-0.818604","-0.030396","0.053435","0.045802","0.053435","8.683863","-0.81228","-3.785058","-0.314624","0.253613","-0.05144","0.221313","0.168677","-0.29668"
"B","1617445263.5168395","7","33","1","-33","-46","-38","0.554688","-0.142639","-0.819153","-0.031555","0.061069","0.045802","0.045802","8.673096","-0.741699","-3.85564","-0.320605","0.301465","-0.105273","0.285913","0.202173","-0.285913"
"B","1617445263.5068643","7","35","-6","-35","-44","-37","0.553955","-0.1427","-0.81958","-0.032715","0.068702","0.045802","0.038168","8.683863","-0.709399","-3.898706","-0.305054","0.313428","-0.133984","0.309839","0.210547","-0.260791"
"B","1617445263.496913","7","35","-6","-33","-45","-35","0.553284","-0.142883","-0.819946","-0.033813","0.068702","0.038168","0.030534","8.703003","-0.681885","-3.913062","-0.282324","0.322998","-0.135181","0.30625","0.223706","-0.239258"
"B","1617445263.486714","7","33","-3","-33","-43","-38","0.552673","-0.143127","-0.820312","-0.034851","0.061069","0.038168","0.030534","8.740088","-0.668726","-3.890332","-0.242847","0.320605","-0.099292","0.260791","0.236865","-0.216528"
"B","1617445263.4768283","7","35","-2","-33","-48","-36","0.552063","-0.143311","-0.820618","-0.035828","0.053435","0.030534","0.030534","8.758032","-0.640015","-3.867603","-0.221313","0.333765","-0.065796","0.227295","0.260791","-0.209351"
"B","1617445263.4667137","7","32","-3","-35","-48","-38","0.551575","-0.143433","-0.820923","-0.036621","0.038168","0.015267","0.022901","8.738892","-0.610107","-3.847266","-0.238062","0.350513","-0.035889","0.211743","0.279932","-0.238062"
"B","1617445263.4567397","7","34","-3","-33","-49","-37","0.55127","-0.143433","-0.821045","-0.037231","0.022901","0.007634","0.022901","8.699414","-0.5802","-3.81377","-0.276343","0.369653","0.001196","0.197388","0.299072","-0.288306"
"B","1617445263.446938","7","33","-3","-33","-44","-37","0.551147","-0.143494","-0.821167","-0.037659","0.015267","0","0.015267","8.645581","-0.553882","-3.79104","-0.330176","0.38999","0.027515","0.198584","0.314624","-0.350513"
"B","1617445263.4369018","7","33","-3","-33","-44","-37","0.551086","-0.143555","-0.821167","-0.037964","0.015267","-0.007634","0","8.595337","-0.549097","-3.777881","-0.38042","0.38999","0.04187","0.203369","0.307446","-0.401953"
"B","1617445263.4268537","7","32","-2","-33","-46","-35","0.551086","-0.143738","-0.821106","-0.038025","0.015267","-0.007634","-0.007634","8.571411","-0.565845","-3.759937","-0.404346","0.374438","0.058618","0.192603","0.291895","-0.428271"
"B","1617445263.416721","7","32","-3","-33","-50","-36","0.551147","-0.144043","-0.820984","-0.038025","0.015267","-0.007634","-0.022901","8.545093","-0.616089","-3.761133","-0.430664","0.327783","0.056226","0.191406","0.24165","-0.447412"
"B","1617445263.4068134","7","36","-3","-33","-45","-37","0.551208","-0.144592","-0.820862","-0.037903","0.015267","0","-0.030534","8.541504","-0.697437","-3.7396","-0.433057","0.25481","0.076563","0.154321","0.174658","-0.451001"
"B","1617445263.397025","7","33","-1","-33","-45","-38","0.551208","-0.145203","-0.820801","-0.037659","0.007634","0.007634","-0.038168","8.569018","-0.783569","-3.715674","-0.405542","0.178247","0.101685","0.100488","0.112451","-0.428271"
"B","1617445263.386683","7","36","-3","-33","-45","-37","0.551086","-0.145935","-0.82074","-0.037354","0.007634","0.007634","-0.038168","8.614477","-0.888843","-3.690552","-0.356494","0.086133","0.129199","0.0323","0.039478","-0.385205"
"B","1617445263.377483","7","35","-3","-34","-45","-36","0.550964","-0.146545","-0.82074","-0.037048","0","0.015267","-0.038168","8.646777","-1.010864","-3.689355","-0.321802","-0.023926","0.133984","-0.013159","-0.056226","-0.343335"
"B","1617445263.366726","7","35","-4","-33","-43","-36","0.550781","-0.146973","-0.820801","-0.036621","-0.015267","0.007634","-0.030534","8.65874","-1.094604","-3.676196","-0.307446","-0.096899","0.150732","-0.053833","-0.119629","-0.330176"
"B","1617445263.3568952","7","34","-2","-33","-41","-35","0.550659","-0.147217","-0.820862","-0.036133","-0.030534","0","-0.030534","8.62644","-1.136475","-3.676196","-0.336157","-0.128003","0.154321","-0.055029","-0.155518","-0.354102"
"B","1617445263.3469656","7","35","-2","-33","-50","-37","0.550659","-0.147339","-0.820862","-0.035645","-0.030534","-0.007634","-0.022901","8.558252","-1.177148","-3.715674","-0.403149","-0.160303","0.11604","-0.007178","-0.208154","-0.397168"
"B","1617445263.337159","7","36","-1","-34","-46","-36","0.550781","-0.1474","-0.820801","-0.035156","-0.030534","-0.015267","-0.022901","8.493652","-1.217822","-3.779077","-0.467749","-0.191406","0.050244","0.0646","-0.265576","-0.427075"
"B","1617445263.327755","7","35","0","-33","-48","-37","0.551025","-0.147278","-0.820679","-0.034851","-0.022901","-0.007634","-0.015267","8.475708","-1.221411","-3.831714","-0.488086","-0.19021","-0.005981","0.122021","-0.281128","-0.423486"
"B","1617445263.3169355","7","32","-4","-35","-12","-38","0.551208","-0.147156","-0.820618","-0.034607","-0.015267","-0.007634","-0.007634","8.493652","-1.21543","-3.869995","-0.471338","-0.181836","-0.046655","0.154321","-0.278735","-0.393579"
"B","1617445263.3068416","7","31","-3","-34","-43","-37","0.55127","-0.147034","-0.820557","-0.034546","-0.007634","0","0","8.541504","-1.214233","-3.895117","-0.423486","-0.18064","-0.07417","0.162695","-0.27395","-0.33855"
"B","1617445263.2969646","7","33","-3","-34","-43","-36","0.551331","-0.146851","-0.820557","-0.034668","-0.007634","0","0.007634","8.608496","-1.203467","-3.880762","-0.35769","-0.173462","-0.061011","0.130396","-0.251221","-0.284717"
"B","1617445263.2868042","7","37","-1","-33","-45","-36","0.551331","-0.146545","-0.820618","-0.034851","-0.007634","0","0.015267","8.665918","-1.18313","-3.846069","-0.301465","-0.159106","-0.026318","0.08374","-0.217725","-0.248828"
"B","1617445263.2770047","7","36","-3","-33","-44","-38","0.551392","-0.146118","-0.820618","-0.035095","-0.015267","-0.015267","0.022901","8.699414","-1.134082","-3.783862","-0.269165","-0.118433","0.0323","0.031104","-0.159106","-0.246436"
"B","1617445263.2669132","7","35","-3","-33","-52","-37","0.551636","-0.145569","-0.820557","-0.035217","-0.030534","-0.030534","0.022901","8.680273","-1.068286","-3.715674","-0.291895","-0.059814","0.095703","0","-0.094507","-0.297876"
"B","1617445263.2575622","7","37","-1","-33","-46","-35","0.552124","-0.14502","-0.820312","-0.035217","-0.030534","-0.038168","0.015267","8.632421","-1.003687","-3.641504","-0.344531","0","0.159106","-0.021533","-0.033496","-0.376831"
"B","1617445263.247691","7","21","-2","-33","-44","-38","0.552673","-0.144531","-0.820068","-0.035217","-0.015267","-0.045802","0.015267","8.590551","-0.986938","-3.603223","-0.392383","0.011963","0.185425","-0.026318","-0.025122","-0.43186"
"B","1617445263.2374876","7","35","-1","-33","-44","-37","0.553223","-0.144165","-0.819702","-0.035278","-0.007634","-0.038168","0.007634","8.604907","-0.994116","-3.563745","-0.382812","0.001196","0.212939","-0.057422","-0.027515","-0.433057"
"B","1617445263.2277365","7","35","-3","-33","-48","-37","0.553711","-0.143982","-0.819397","-0.0354","0","-0.038168","0","8.643188","-1.007275","-3.531445","-0.349316","-0.013159","0.234473","-0.093311","-0.029907","-0.409131"
"B","1617445263.2177646","7","35","-3","-33","-44","-36","0.554077","-0.143982","-0.819153","-0.035583","0.007634","-0.022901","-0.007634","8.70061","-1.032398","-3.524268","-0.295483","-0.039478","0.233276","-0.117236","-0.044263","-0.356494"
"B","1617445263.2076416","7","33","-1","-33","-44","-36","0.55426","-0.144104","-0.81897","-0.035828","0.007634","-0.015267","-0.015267","8.77478","-1.033594","-3.520679","-0.22251","-0.043066","0.23208","-0.143555","-0.033496","-0.288306"
"B","1617445263.1970978","7","36","-4","-33","-47","-38","0.554382","-0.144348","-0.818909","-0.036011","0.007634","-0.007634","-0.015267","8.840576","-1.033594","-3.525464","-0.159106","-0.043066","0.224902","-0.15791","-0.022729","-0.227295"
"B","1617445263.1876104","7","34","-1","-33","-45","-37","0.554382","-0.144531","-0.818848","-0.036072","0","0","-0.015267","8.896802","-1.020435","-3.533838","-0.102881","-0.028711","0.216528","-0.166284","0","-0.173462"
"B","1617445263.1775715","7","33","0","-33","-42","-38","0.55426","-0.144714","-0.818909","-0.036072","-0.007634","0","-0.007634","8.935083","-0.995313","-3.539819","-0.063403","-0.001196","0.212939","-0.168677","0.0323","-0.13877"
"B","1617445263.1668427","7","33","-4","-33","-44","-36","0.554138","-0.144714","-0.81897","-0.036011","-0.007634","0.007634","-0.007634","8.964991","-0.976172","-3.554175","-0.031104","0.016748","0.200977","-0.163892","0.053833","-0.10647"
"B","1617445263.157537","7","36","-2","-33","-42","-35","0.553955","-0.144714","-0.819092","-0.035828","-0.007634","0","0","8.954224","-0.976172","-3.561352","-0.040674","0.019141","0.198584","-0.15791","0.052637","-0.114844"
"B","1617445263.1477334","7","37","-3","-33","-44","-32","0.553894","-0.144653","-0.819153","-0.035767","-0.007634","-0.007634","0","8.871679","-0.99292","-3.602026","-0.122021","0.002393","0.159106","-0.099292","0.011963","-0.172266"
"B","1617445263.1377368","7","33","-3","-34","-49","-38","0.553894","-0.144592","-0.819153","-0.035706","-0.007634","-0.007634","0","8.79751","-0.996509","-3.646289","-0.196191","0","0.114844","-0.034692","-0.013159","-0.223706"
"B","1617445263.126855","7","34","-3","-33","-44","-38","0.553955","-0.144592","-0.819153","-0.035706","-0.007634","-0.007634","0","8.766406","-1.009668","-3.679785","-0.228491","-0.011963","0.080151","0.002393","-0.038281","-0.239258"
"B","1617445263.11764","7","35","-3","-33","14","-34","0.553894","-0.144592","-0.819153","-0.035706","0","0","0","8.762817","-1.019238","-3.712085","-0.230884","-0.022729","0.049048","0.028711","-0.056226","-0.227295"
"B","1617445263.1076765","7","35","-2","-33","-46","-36","0.553772","-0.144592","-0.819275","-0.035767","0","0.007634","-0.007634","8.758032","-1.014453","-3.74917","-0.235669","-0.019141","0.015552","0.061011","-0.061011","-0.220117"
"B","1617445263.0976577","7","35","-5","-34","-48","-38","0.553589","-0.144653","-0.819397","-0.035767","0","0.015267","-0.007634","8.74248","-1.010864","-3.786255","-0.248828","-0.015552","-0.016748","0.095703","-0.066992","-0.220117"
"B","1617445263.087778","7","34","-2","-34","-48","-38","0.553345","-0.144714","-0.819519","-0.035767","0","0.015267","-0.007634","8.726929","-1.013257","-3.822144","-0.261987","-0.017944","-0.047852","0.128003","-0.078955","-0.218921"
"B","1617445263.0775323","7","33","0","-33","-41","-38","0.553101","-0.144714","-0.819702","-0.035828","-0.007634","0.022901","0","8.735303","-1.001294","-3.843677","-0.252417","-0.007178","-0.063403","0.141162","-0.070581","-0.205762"
"B","1617445263.067644","7","36","0","-33","-49","-38","0.552795","-0.144592","-0.819946","-0.035828","-0.015267","0.030534","0.007634","8.785547","-0.965405","-3.831714","-0.19978","0.025122","-0.045459","0.11604","-0.025122","-0.16748"
"B","1617445263.0568614","7","35","-6","-31","-42","-36","0.552368","-0.144287","-0.820251","-0.035706","-0.015267","0.030534","0.015267","8.840576","-0.939087","-3.812573","-0.139966","0.047852","-0.016748","0.076563","0.014355","-0.12561"
"B","1617445263.0475647","7","32","-3","-33","-45","-38","0.552002","-0.143982","-0.820557","-0.035645","-0.015267","0.022901","0.007634","8.886035","-0.931909","-3.779077","-0.092114","0.05144","0.023926","0.023926","0.035889","-0.098096"
"B","1617445263.037653","7","35","0","-33","-42","-36","0.551697","-0.143738","-0.820801","-0.035461","-0.015267","0.015267","0.007634","8.902783","-0.919946","-3.750366","-0.071777","0.063403","0.058618","-0.00957","0.058618","-0.094507"
"B","1617445263.0277023","7","33","-3","-33","-46","-38","0.551514","-0.143555","-0.820984","-0.035339","-0.007634","0","0","8.864502","-0.935498","-3.71687","-0.108862","0.046655","0.096899","-0.034692","0.043066","-0.141162"
"B","1617445263.0176966","7","22","-4","-33","-46","-37","0.551514","-0.143616","-0.820984","-0.035217","0","-0.022901","-0.015267","8.761621","-0.968994","-3.700122","-0.211743","0.016748","0.113647","-0.022729","0","-0.239258"
"B","1617445263.0077832","7","37","-2","-33","-44","-35","0.551758","-0.14386","-0.82074","-0.035217","0.007634","-0.030534","-0.022901","8.64917","-1.00249","-3.686963","-0.325391","-0.013159","0.120825","0.001196","-0.050244","-0.343335"
"B","1617445262.9977083","7","34","-1","-33","-45","-38","0.552063","-0.144104","-0.820496","-0.035278","0","-0.022901","-0.022901","8.598926","-1.019238","-3.666626","-0.378027","-0.026318","0.135181","0.002393","-0.069385","-0.395972"
"B","1617445262.9876382","7","36","-3","-33","-44","-37","0.552368","-0.144287","-0.820251","-0.035278","0","-0.022901","-0.022901","8.613281","-1.003687","-3.634326","-0.366064","-0.008374","0.160303","-0.017944","-0.045459","-0.395972"
"B","1617445262.9776788","7","35","-2","-33","-45","-36","0.552551","-0.144531","-0.820129","-0.035156","0","-0.015267","-0.022901","8.619263","-0.99292","-3.616382","-0.361279","0.007178","0.174658","-0.028711","-0.026318","-0.398364"
"B","1617445262.9678917","7","36","-3","-33","-48","-38","0.552673","-0.144775","-0.820007","-0.035034","-0.007634","-0.007634","-0.022901","8.638403","-0.978564","-3.613989","-0.343335","0.026318","0.174658","-0.029907","-0.004785","-0.384009"
"B","1617445262.957797","7","33","-3","-34","-45","-35","0.552795","-0.14502","-0.819885","-0.034851","0","-0.015267","-0.022901","8.645581","-0.978564","-3.622363","-0.336157","0.0323","0.163892","-0.020337","0","-0.374438"
"B","1617445262.9475951","7","35","-4","-34","-50","-37","0.552856","-0.145325","-0.819763","-0.034729","0","-0.015267","-0.022901","8.627637","-1.000098","-3.648682","-0.354102","0.015552","0.136377","0.003589","-0.025122","-0.378027"
"B","1617445262.9377666","7","35","-3","-33","-45","-36","0.552979","-0.145691","-0.819641","-0.034668","0.007634","-0.015267","-0.022901","8.602514","-1.02522","-3.682178","-0.379224","-0.002393","0.100488","0.039478","-0.056226","-0.385205"
"B","1617445262.9277794","7","33","-2","-33","-48","-37","0.553101","-0.146057","-0.819519","-0.034668","0.007634","-0.015267","-0.015267","8.589355","-1.061108","-3.698926","-0.393579","-0.033496","0.081348","0.052637","-0.093311","-0.387598"
"B","1617445262.917637","7","34","-3","-33","-46","-35","0.553223","-0.146301","-0.819397","-0.03479","0","-0.007634","-0.007634","8.577393","-1.064697","-3.709692","-0.406738","-0.035889","0.068188","0.068188","-0.100488","-0.394775"
"B","1617445262.9077473","7","35","-4","-33","-46","-37","0.553284","-0.146362","-0.819275","-0.034912","-0.007634","0","0","8.610888","-1.031201","-3.678589","-0.373242","-0.003589","0.096899","0.040674","-0.056226","-0.378027"
"B","1617445262.8976195","7","33","-1","-33","-48","-37","0.553345","-0.14624","-0.819336","-0.034912","-0.015267","0","0","8.646777","-1.001294","-3.636719","-0.33855","0.023926","0.13877","0","-0.014355","-0.366064"
"B","1617445262.8876114","7","32","-4","-33","-42","-37","0.553284","-0.146057","-0.819397","-0.03479","-0.015267","0","0","8.667114","-0.977368","-3.60083","-0.318213","0.046655","0.175854","-0.034692","0.017944","-0.363672"
"B","1617445262.8776538","7","35","-1","-34","-45","-36","0.553162","-0.145935","-0.819458","-0.034729","-0.007634","0","0","8.652759","-0.984546","-3.581689","-0.330176","0.039478","0.196191","-0.050244","0.013159","-0.381616"
"B","1617445262.867886","7","35","-4","-34","-46","-37","0.553101","-0.145874","-0.819519","-0.034729","0","0","0","8.631226","-1.00249","-3.593652","-0.351709","0.020337","0.186621","-0.039478","-0.00957","-0.395972"
"B","1617445262.8576226","7","35","-3","-34","-44","-37","0.552979","-0.145813","-0.81958","-0.034729","0","0","0","8.632421","-1.007275","-3.603223","-0.349316","0.014355","0.178247","-0.034692","-0.016748","-0.38999"
"B","1617445262.8478076","7","35","-3","-33","-75","-38","0.552856","-0.145813","-0.819702","-0.03479","0","0","0","8.634814","-1.015649","-3.629541","-0.345728","0.004785","0.155518","-0.017944","-0.029907","-0.376831"
"B","1617445262.8378432","7","35","-4","-33","-46","-38","0.552734","-0.145752","-0.819763","-0.034912","-0.007634","0","0","8.638403","-1.018042","-3.661841","-0.342139","0","0.12561","0.005981","-0.040674","-0.361279"
"B","1617445262.8276515","7","35","-4","-33","-48","-35","0.552673","-0.14563","-0.819885","-0.034912","-0.007634","0","0","8.644384","-0.995313","-3.688159","-0.336157","0.020337","0.101685","0.029907","-0.025122","-0.349316"
"B","1617445262.8178337","7","31","-4","-34","-49","-38","0.552612","-0.145508","-0.819946","-0.034851","-0.015267","0","0","8.647974","-0.978564","-3.719263","-0.331372","0.037085","0.071777","0.059814","-0.014355","-0.334961"
"B","1617445262.8077023","7","33","-6","-33","-48","-37","0.552551","-0.145386","-0.819946","-0.034729","-0.007634","0.007634","0","8.667114","-0.985742","-3.745581","-0.311035","0.029907","0.045459","0.075366","-0.022729","-0.305054"
"B","1617445262.797675","7","25","-4","-34","-45","-38","0.55249","-0.145325","-0.820007","-0.034607","-0.007634","0.007634","-0.007634","8.701807","-1.020435","-3.767114","-0.276343","-0.002393","0.026318","0.070581","-0.05144","-0.261987"
"B","1617445262.78781","7","33","-3","-33","-44","-37","0.552368","-0.145386","-0.820129","-0.034546","0","0.007634","-0.007634","8.743677","-1.071875","-3.780273","-0.233276","-0.052637","0.015552","0.05144","-0.093311","-0.214136"
"B","1617445262.7779264","7","34","-4","-35","-49","-37","0.552185","-0.145508","-0.82019","-0.034546","0","0.007634","-0.015267","8.754443","-1.117334","-3.798218","-0.220117","-0.096899","0.001196","0.047852","-0.136377","-0.191406"
"B","1617445262.7678475","7","32","-3","-33","-50","-38","0.552063","-0.14563","-0.820251","-0.034607","0","0","-0.007634","8.735303","-1.124512","-3.80061","-0.238062","-0.104077","0.001196","0.052637","-0.145947","-0.206958"
"B","1617445262.7577837","7","33","-22","-33","-46","-36","0.552063","-0.145691","-0.820251","-0.034607","-0.015267","-0.007634","-0.007634","8.701807","-1.107764","-3.808984","-0.271558","-0.087329","-0.004785","0.07417","-0.13877","-0.236865"
"B","1617445262.747872","7","36","-3","-33","-45","-34","0.552246","-0.145508","-0.82019","-0.034546","-0.022901","-0.007634","0","8.705396","-1.049145","-3.780273","-0.270361","-0.028711","0.019141","0.068188","-0.076563","-0.251221"
"B","1617445262.7377512","7","34","-3","-33","-49","-38","0.55249","-0.145203","-0.820068","-0.034363","-0.030534","-0.015267","0","8.74248","-0.989331","-3.722852","-0.235669","0.029907","0.070581","0.026318","-0.002393","-0.245239"
"B","1617445262.7279053","7","33","-3","-33","-49","-37","0.552734","-0.144958","-0.820007","-0.034119","-0.022901","-0.022901","0","8.758032","-0.982153","-3.676196","-0.22251","0.039478","0.113647","-0.013159","0.016748","-0.251221"
"B","1617445262.718004","7","34","-1","-33","-44","-34","0.552979","-0.144775","-0.819824","-0.033936","-0.015267","-0.022901","0","8.735303","-1.014453","-3.648682","-0.246436","0.008374","0.135181","-0.033496","-0.011963","-0.278735"
"B","1617445262.7078876","7","33","-3","-34","-44","-38","0.553223","-0.144714","-0.819702","-0.033875","-0.007634","-0.022901","-0.007634","8.725733","-1.043164","-3.629541","-0.258398","-0.017944","0.149536","-0.049048","-0.035889","-0.291895"
"B","1617445262.6977513","7","33","-3","-33","-46","-38","0.553467","-0.144775","-0.819519","-0.033875","0","-0.015267","-0.015267","8.731714","-1.085034","-3.621167","-0.253613","-0.058618","0.151929","-0.0646","-0.072974","-0.284717"
"B","1617445262.6879983","7","37","0","-32","-46","-37","0.55365","-0.14502","-0.819336","-0.033936","0.007634","-0.015267","-0.015267","8.746069","-1.125708","-3.599634","-0.240454","-0.096899","0.169873","-0.095703","-0.102881","-0.275146"
"B","1617445262.6777563","7","35","-3","-34","-50","-35","0.553711","-0.145264","-0.819275","-0.033997","0.007634","-0.007634","-0.015267","8.748462","-1.147241","-3.570923","-0.239258","-0.11604","0.197388","-0.12561","-0.11604","-0.282324"
"B","1617445262.6677556","7","37","-1","-32","-48","-36","0.553711","-0.145447","-0.819214","-0.034119","0","-0.007634","-0.007634","8.750854","-1.1604","-3.54939","-0.236865","-0.129199","0.217725","-0.14834","-0.123218","-0.287109"
"B","1617445262.657859","7","36","-3","-33","-45","-36","0.553711","-0.145447","-0.819214","-0.03418","-0.007634","-0.007634","0","8.741284","-1.152026","-3.538623","-0.246436","-0.122021","0.228491","-0.153125","-0.11604","-0.300269"
"B","1617445262.6478555","7","33","-3","-33","-48","-37","0.553772","-0.145325","-0.819214","-0.03418","-0.022901","-0.007634","0","8.718554","-1.107764","-3.521875","-0.270361","-0.078955","0.244043","-0.147144","-0.076563","-0.332568"
"B","1617445262.6377916","7","33","-3","-33","-45","-23","0.553772","-0.14502","-0.819275","-0.034058","-0.030534","-0.007634","0","8.683863","-1.041968","-3.523071","-0.305054","-0.014355","0.244043","-0.117236","-0.021533","-0.372046"
"B","1617445262.6279335","7","33","-3","-33","-45","-38","0.553772","-0.144714","-0.819336","-0.033813","-0.022901","0","0.007634","8.650366","-1.018042","-3.548193","-0.33855","0.00957","0.218921","-0.076563","-0.010767","-0.394775"
"B","1617445262.6177206","7","33","-2","-33","-42","-38","0.55365","-0.144531","-0.819458","-0.033752","-0.007634","0.007634","0.007634","8.631226","-1.026416","-3.605615","-0.356494","0","0.163892","-0.023926","-0.034692","-0.38999"
"B","1617445262.607781","7","33","-3","-35","-45","-37","0.553406","-0.144409","-0.81958","-0.033813","0.007634","0.022901","0.015267","8.669507","-1.068286","-3.667822","-0.31582","-0.044263","0.10647","0.001196","-0.081348","-0.325391"
"B","1617445262.5979354","7","36","-1","-34","-41","-36","0.552979","-0.144226","-0.819885","-0.033997","0.007634","0.030534","0.015267","8.729321","-1.088623","-3.710889","-0.252417","-0.070581","0.071777","0.003589","-0.101685","-0.251221"
"B","1617445262.5877056","7","33","-2","-33","-45","-36","0.552429","-0.144104","-0.820312","-0.034302","0.007634","0.030534","0.015267","8.754443","-1.088623","-3.757544","-0.223706","-0.078955","0.037085","0.022729","-0.111255","-0.210547"
"B","1617445262.577891","7","33","-3","-33","-44","-37","0.551941","-0.143982","-0.820679","-0.034607","0.007634","0.022901","0.015267","8.722143","-1.069482","-3.801807","-0.253613","-0.068188","0.003589","0.065796","-0.113647","-0.226099"
"B","1617445262.5679803","7","35","-3","-33","-42","-35","0.551575","-0.143799","-0.820923","-0.034851","0","0.022901","0.015267","8.685059","-1.043164","-3.835303","-0.287109","-0.049048","-0.021533","0.105273","-0.107666","-0.248828"
"B","1617445262.5577655","7","33","-4","-33","-44","-37","0.55127","-0.143555","-0.821167","-0.035034","-0.007634","0.015267","0.015267","8.664721","-1.007275","-3.847266","-0.30625","-0.019141","-0.026318","0.12561","-0.08374","-0.267969"
"B","1617445262.5476992","7","33","-3","-33","-46","-38","0.551086","-0.14325","-0.821289","-0.035034","-0.015267","0.007634","0.007634","8.657544","-0.97019","-3.836499","-0.311035","0.011963","-0.013159","0.123218","-0.05144","-0.279932"
"B","1617445262.537811","7","32","-6","-35","-46","-38","0.551025","-0.143005","-0.821411","-0.034973","-0.015267","0","0.007634","8.641993","-0.973779","-3.818555","-0.326587","0.007178","0.005981","0.111255","-0.055029","-0.301465"
"B","1617445262.5279274","7","33","-2","-31","-48","-36","0.551025","-0.142822","-0.821411","-0.034973","-0.007634","-0.007634","0","8.6073","-0.982153","-3.795825","-0.361279","-0.002393","0.028711","0.100488","-0.065796","-0.340942"
"B","1617445262.5180614","7","35","-3","-33","-48","-38","0.551208","-0.1427","-0.82135","-0.034912","-0.007634","-0.007634","-0.007634","8.591748","-0.982153","-3.756348","-0.379224","-0.002393","0.0646","0.07417","-0.062207","-0.372046"
"B","1617445262.508664","7","35","-4","-33","-46","-38","0.551331","-0.1427","-0.821228","-0.034912","0","-0.007634","-0.015267","8.609693","-1.001294","-3.721655","-0.361279","-0.020337","0.095703","0.034692","-0.069385","-0.364868"
"B","1617445262.4980254","7","35","-3","-33","-44","-35","0.551453","-0.142883","-0.821167","-0.034912","0.015267","-0.007634","-0.015267","8.646777","-1.030005","-3.68457","-0.325391","-0.046655","0.131592","-0.015552","-0.080151","-0.343335"
"B","1617445262.4885235","7","32","-1","-33","-46","-35","0.551514","-0.14325","-0.821045","-0.035034","0.022901","-0.007634","-0.022901","8.68147","-1.083838","-3.647485","-0.291895","-0.098096","0.166284","-0.072974","-0.114844","-0.321802"
"B","1617445262.4784806","7","35","-4","-33","-46","-36","0.551514","-0.143616","-0.820923","-0.035278","0.015267","-0.007634","-0.015267","8.712573","-1.119727","-3.622363","-0.259595","-0.133984","0.19021","-0.11604","-0.137573","-0.297876"
"B","1617445262.468056","7","33","-3","-33","-44","-36","0.551575","-0.14386","-0.820862","-0.035583","0.007634","-0.015267","-0.007634","8.749659","-1.094604","-3.580493","-0.223706","-0.111255","0.230884","-0.15791","-0.099292","-0.283521"
"B","1617445262.4578238","7","37","-2","-33","-43","-38","0.551697","-0.143921","-0.82074","-0.035767","0","-0.015267","-0.007634","8.760425","-1.040771","-3.52666","-0.215332","-0.059814","0.282324","-0.193799","-0.037085","-0.300269"
"B","1617445262.448446","7","34","-1","-33","-43","-37","0.55188","-0.143921","-0.820618","-0.035828","-0.007634","-0.022901","0","8.748462","-0.986938","-3.485986","-0.228491","-0.005981","0.318213","-0.205762","0.017944","-0.331372"
"B","1617445262.4386811","7","36","-1","-33","-44","-35","0.552063","-0.14386","-0.820496","-0.035889","-0.007634","-0.022901","0","8.73291","-0.948657","-3.448901","-0.245239","0.029907","0.351709","-0.220117","0.056226","-0.363672"
"B","1617445262.4286008","7","33","-1","-33","-48","-38","0.552246","-0.143799","-0.820374","-0.035889","-0.007634","-0.022901","0","8.711377","-0.917554","-3.440527","-0.269165","0.061011","0.355298","-0.206958","0.082544","-0.38999"
"B","1617445262.4186718","7","45","-3","-33","-48","-38","0.552429","-0.143799","-0.820312","-0.03595","0","-0.015267","-0.007634","8.679077","-0.893628","-3.465649","-0.303857","0.084937","0.327783","-0.163892","0.092114","-0.41272"
"B","1617445262.408559","7","32","-5","-34","-49","-36","0.552429","-0.14386","-0.820251","-0.036011","0.007634","-0.007634","-0.007634","8.653955","-0.878076","-3.512305","-0.327783","0.100488","0.279932","-0.108862","0.092114","-0.418701"
"B","1617445262.3980353","7","33","-4","-33","-48","-36","0.552368","-0.144043","-0.820312","-0.036133","0.015267","0.007634","0","8.643188","-0.87688","-3.586475","-0.339746","0.100488","0.208154","-0.039478","0.07417","-0.401953"
"B","1617445262.3878229","7","36","-3","-31","-44","-36","0.552063","-0.144165","-0.820435","-0.036377","0.015267","0.022901","0.007634","8.688647","-0.882861","-3.660645","-0.290698","0.090918","0.13877","0.001196","0.059814","-0.328979"
"B","1617445262.3780546","7","33","-3","-33","-44","-38","0.551575","-0.144226","-0.82074","-0.036682","0.007634","0.038168","0.015267","8.766406","-0.864917","-3.743188","-0.209351","0.104077","0.066992","0.04187","0.072974","-0.227295"
"B","1617445262.3686175","7","35","-1","-33","-42","-38","0.550964","-0.144104","-0.821228","-0.036926","0","0.045802","0.015267","8.834595","-0.808691","-3.80061","-0.137573","0.151929","0.022729","0.069385","0.123218","-0.149536"
"B","1617445262.3578465","7","33","-4","-34","-48","-37","0.550232","-0.143982","-0.821716","-0.037048","0.007634","0.045802","0.015267","8.850146","-0.784766","-3.872388","-0.11604","0.171069","-0.0323","0.117236","0.132788","-0.110059"
"B","1617445262.3481312","7","33","-5","-33","-46","-37","0.5495","-0.14386","-0.822205","-0.037109","0.007634","0.045802","0.015267","8.850146","-0.785962","-3.942969","-0.108862","0.165088","-0.087329","0.161499","0.117236","-0.080151"
"B","1617445262.3379054","7","33","-4","-3","-45","-37","0.548889","-0.143799","-0.822632","-0.037231","0.007634","0.038168","0.007634","8.821436","-0.799121","-4.006372","-0.132788","0.147144","-0.137573","0.210547","0.08374","-0.080151"
"B","1617445262.3284876","7","33","6","-34","-45","-38","0.54834","-0.143799","-0.822937","-0.037292","0","0.022901","0","8.768799","-0.801514","-4.069776","-0.18064","0.142358","-0.19021","0.272754","0.058618","-0.102881"
"B","1617445262.3179884","7","33","-2","-33","-48","-36","0.548035","-0.143799","-0.823181","-0.037292","0","0.015267","0","8.704199","-0.807495","-4.109253","-0.242847","0.135181","-0.22251","0.321802","0.0323","-0.145947"
"B","1617445262.3087163","7","33","-3","-33","-44","-36","0.547852","-0.143738","-0.823303","-0.037292","-0.007634","0.015267","0","8.647974","-0.795532","-4.10686","-0.29668","0.145947","-0.216528","0.339746","0.033496","-0.198584"
"B","1617445262.2980523","7","27","-1","-33","-46","-38","0.547791","-0.143677","-0.823364","-0.037109","-0.015267","0.015267","0","8.641993","-0.766821","-4.062598","-0.302661","0.175854","-0.169873","0.308643","0.070581","-0.224902"
"B","1617445262.288614","7","35","0","-33","-44","-31","0.547729","-0.143555","-0.823425","-0.036926","-0.015267","0.015267","0","8.674292","-0.766821","-3.99082","-0.269165","0.178247","-0.096899","0.23208","0.095703","-0.223706"
"B","1617445262.2785928","7","34","-5","-33","-45","-36","0.547607","-0.143433","-0.823547","-0.036682","-0.007634","0.022901","0","8.724536","-0.784766","-3.921436","-0.217725","0.161499","-0.023926","0.143555","0.10647","-0.204565"
"B","1617445262.2686996","7","33","-3","-35","-44","-38","0.547363","-0.143433","-0.82373","-0.03656","0","0.022901","-0.015267","8.76521","-0.817065","-3.848462","-0.174658","0.130396","0.052637","0.05144","0.101685","-0.192603"
"B","1617445262.2587037","7","32","3","-32","-49","-35","0.547119","-0.143677","-0.823853","-0.036377","0.015267","0.015267","-0.022901","8.761621","-0.861328","-3.776685","-0.174658","0.090918","0.130396","-0.027515","0.080151","-0.218921"
"B","1617445262.248743","7","35","-3","-33","-44","-38","0.546875","-0.144287","-0.823914","-0.036316","0.030534","0","-0.045802","8.707788","-0.931909","-3.747974","-0.226099","0.027515","0.163892","-0.056226","0.016748","-0.27395"
"B","1617445262.2387142","7","33","-2","-33","-45","-35","0.546692","-0.145203","-0.823853","-0.036316","0.045802","-0.007634","-0.053435","8.647974","-1.019238","-3.752759","-0.282324","-0.049048","0.162695","-0.056226","-0.066992","-0.317017"
"B","1617445262.2286005","7","35","-3","-33","-45","-39","0.54657","-0.146362","-0.82373","-0.036499","0.045802","-0.007634","-0.053435","8.600122","-1.098193","-3.782666","-0.328979","-0.118433","0.135181","-0.034692","-0.14834","-0.340942"
"B","1617445262.218666","7","33","-3","-33","-45","-38","0.54657","-0.147461","-0.823547","-0.036804","0.045802","-0.015267","-0.053435","8.561841","-1.138867","-3.807788","-0.366064","-0.153125","0.110059","-0.00957","-0.194995","-0.361279"
"B","1617445262.2086582","7","33","-3","-33","-45","-36","0.54657","-0.148499","-0.823303","-0.037109","0.045802","-0.007634","-0.045802","8.531934","-1.138867","-3.825732","-0.394775","-0.145947","0.090918","0.017944","-0.198584","-0.38042"
"B","1617445262.1986268","7","33","-3","-33","-49","-38","0.546631","-0.149414","-0.82312","-0.037415","0.038168","-0.007634","-0.045802","8.511597","-1.135278","-3.818555","-0.416309","-0.137573","0.096899","0.022729","-0.193799","-0.403149"
"B","1617445262.1888103","7","33","-3","-33","-46","-36","0.546631","-0.150208","-0.822937","-0.03772","0.030534","-0.007634","-0.038168","8.515185","-1.129297","-3.786255","-0.41272","-0.128003","0.129199","-0.003589","-0.177051","-0.413916"
"B","1617445262.1786675","7","32","-3","-33","-48","-38","0.546631","-0.150818","-0.822815","-0.038025","0.022901","0","-0.030534","8.539111","-1.089819","-3.732422","-0.388794","-0.086133","0.181836","-0.046655","-0.120825","-0.417505"
"B","1617445262.1687331","7","35","-4","-34","-46","-36","0.54657","-0.151245","-0.822754","-0.038208","0.015267","0","-0.022901","8.579785","-1.05752","-3.683374","-0.346924","-0.052637","0.23208","-0.096899","-0.068188","-0.403149"
"B","1617445262.1587036","7","35","-3","-33","-43","-36","0.546387","-0.151611","-0.822815","-0.038269","0.007634","0","-0.015267","8.608496","-1.061108","-3.651074","-0.31582","-0.053833","0.267969","-0.139966","-0.055029","-0.388794"
"B","1617445262.148763","7","33","-1","-33","-48","-36","0.546265","-0.151855","-0.822876","-0.038391","0","0","-0.015267","8.614477","-1.070679","-3.631934","-0.309839","-0.063403","0.290698","-0.165088","-0.057422","-0.391187"
"B","1617445262.138568","7","33","-3","-33","-42","-37","0.546143","-0.151978","-0.822937","-0.038391","-0.007634","0","-0.015267","8.594141","-1.061108","-3.636719","-0.328979","-0.052637","0.288306","-0.153125","-0.05144","-0.409131"
"B","1617445262.1286938","7","35","-3","-33","-47","-37","0.546021","-0.152039","-0.822998","-0.038269","-0.007634","0","-0.015267","8.567822","-1.050342","-3.659448","-0.352905","-0.039478","0.267969","-0.122021","-0.049048","-0.423486"
"B","1617445262.1187234","7","32","-4","-33","-49","-37","0.545959","-0.152161","-0.822998","-0.038086","-0.007634","-0.007634","-0.015267","8.527148","-1.056323","-3.710889","-0.392383","-0.04187","0.217725","-0.0646","-0.071777","-0.439038"
"B","1617445262.1085868","7","33","-3","-34","-48","-38","0.545898","-0.152344","-0.823059","-0.037964","0","0","-0.015267","8.486475","-1.091016","-3.771899","-0.433057","-0.072974","0.159106","-0.007178","-0.123218","-0.449805"
"B","1617445262.098693","7","35","-3","-33","-42","-38","0.545837","-0.152527","-0.823059","-0.037903","0","0.007634","-0.015267","8.486475","-1.110156","-3.825732","-0.43186","-0.089722","0.10647","0.033496","-0.150732","-0.425879"
"B","1617445262.088791","7","33","-3","-34","-46","-35","0.545593","-0.152649","-0.823181","-0.037964","0.007634","0.022901","-0.007634","8.546289","-1.120923","-3.869995","-0.369653","-0.100488","0.066992","0.043066","-0.156714","-0.351709"
"B","1617445262.078595","7","32","-3","-33","-45","-37","0.545288","-0.15271","-0.823364","-0.038086","0.007634","0.022901","0.007634","8.610888","-1.14126","-3.899902","-0.302661","-0.123218","0.043066","0.033496","-0.169873","-0.278735"
"B","1617445262.068989","7","34","-3","-34","-44","-38","0.544861","-0.152588","-0.823608","-0.038269","0","0.030534","0.007634","8.679077","-1.11853","-3.899902","-0.230884","-0.10647","0.05144","0.005981","-0.137573","-0.218921"
"B","1617445262.0586357","7","33","-2","-33","-48","-33","0.544495","-0.152466","-0.823914","-0.03833","0","0.015267","0","8.718554","-1.080249","-3.885547","-0.187817","-0.071777","0.07417","-0.017944","-0.089722","-0.192603"
"B","1617445262.0486743","7","35","-1","-34","-46","-38","0.544189","-0.152405","-0.824097","-0.038391","0.007634","0","0","8.682666","-1.088623","-3.903491","-0.221313","-0.082544","0.062207","0","-0.110059","-0.217725"
"B","1617445261.758727","7","32","-3","-33","-45","-37","0.541382","-0.147827","-0.826599","-0.04303","-0.022901","0.061069","0.030534","8.734106","-0.724951","-4.232471","-0.161499","0.145947","-0.211743","0.288306","0.057422","-0.071777"
"B","1617445261.748885","7","33","-2","-33","-46","-38","0.54071","-0.147278","-0.827148","-0.042969","-0.015267","0.045802","0.022901","8.76521","-0.727344","-4.230078","-0.124414","0.136377","-0.194995","0.257202","0.059814","-0.044263"
"B","1617445261.7388985","7","34","-3","-33","-44","-35","0.540161","-0.146912","-0.827576","-0.042847","-0.015267","0.030534","0.007634","8.728125","-0.732129","-4.207349","-0.156714","0.128003","-0.160303","0.235669","0.053833","-0.086133"
"B","1617445261.7289157","7","32","-1","-35","-44","-38","0.539856","-0.146667","-0.82782","-0.042603","-0.015267","0.007634","-0.007634","8.633618","-0.740503","-4.17146","-0.247632","0.119629","-0.118433","0.230884","0.037085","-0.185425"
"B","1617445261.71886","7","33","-1","-34","-49","-37","0.539917","-0.146667","-0.827759","-0.042358","-0.015267","-0.007634","-0.015267","8.545093","-0.769214","-4.124804","-0.336157","0.094507","-0.072974","0.216528","0.007178","-0.282324"
"B","1617445261.7089057","7","31","-4","-35","-48","-39","0.540161","-0.14679","-0.827637","-0.041992","-0.015267","-0.015267","-0.030534","8.503222","-0.789551","-4.049438","-0.379224","0.082544","-0.001196","0.166284","0.002393","-0.350513"
"B","1617445261.6986818","7","33","-4","-35","-43","-36","0.540527","-0.147095","-0.827332","-0.041626","-0.015267","-0.030534","-0.038168","8.494848","-0.821851","-3.944165","-0.38999","0.061011","0.094507","0.078955","0.001196","-0.397168"
"B","1617445261.6893146","7","33","1","-33","-44","-38","0.541016","-0.147522","-0.826965","-0.041199","-0.007634","-0.038168","-0.045802","8.467334","-0.862524","-3.854443","-0.419897","0.033496","0.174658","0.010767","-0.011963","-0.45459"
"B","1617445261.67963","7","35","-2","-33","-45","-38","0.541626","-0.14801","-0.826477","-0.040833","-0.007634","-0.045802","-0.053435","8.455371","-0.875684","-3.757544","-0.436646","0.033496","0.259595","-0.057422","0.002393","-0.504834"
"B","1617445261.6687129","7","31","-2","-33","-41","-36","0.542236","-0.148621","-0.825989","-0.040405","-0.007634","-0.038168","-0.053435","8.487671","-0.888843","-3.666626","-0.407935","0.035889","0.33855","-0.13877","0.028711","-0.512012"
"B","1617445261.6586883","7","32","-3","-33","-48","-37","0.542786","-0.149231","-0.825562","-0.0401","0.007634","-0.038168","-0.053435","8.537915","-0.917554","-3.592456","-0.361279","0.020337","0.401953","-0.216528","0.037085","-0.492871"
"B","1617445261.6489918","7","32","0","-34","-48","-38","0.543213","-0.149963","-0.825134","-0.039856","0.007634","-0.045802","-0.053435","8.559448","-0.935498","-3.539819","-0.342139","0.015552","0.44502","-0.263184","0.046655","-0.492871"
"B","1617445261.638917","7","33","-6","-33","-44","-38","0.54364","-0.150757","-0.824707","-0.039673","0.015267","-0.045802","-0.053435","8.558252","-0.94148","-3.51709","-0.345728","0.022729","0.458179","-0.272754","0.055029","-0.501245"
"B","1617445261.629066","7","38","-4","-33","-48","-37","0.544006","-0.151611","-0.824341","-0.039551","0.022901","-0.038168","-0.053435","8.545093","-0.963013","-3.527856","-0.361279","0.014355","0.440234","-0.253613","0.039478","-0.507227"
"B","1617445261.618755","7","33","-4","-33","-49","-38","0.544373","-0.152466","-0.823914","-0.039551","0.022901","-0.038168","-0.045802","8.53313","-0.979761","-3.560156","-0.375635","0.007178","0.399561","-0.215332","0.020337","-0.503638"
"B","1617445261.6087742","7","35","4","-33","-46","-37","0.544678","-0.153198","-0.823608","-0.039612","0.022901","-0.030534","-0.038168","8.529541","-0.963013","-3.586475","-0.381616","0.0323","0.367261","-0.177051","0.035889","-0.497656"
"B","1617445261.599536","7","33","-4","-33","-48","-37","0.544861","-0.153809","-0.823364","-0.039673","0.015267","-0.022901","-0.030534","8.543897","-0.933105","-3.621167","-0.368457","0.068188","0.328979","-0.137573","0.063403","-0.47373"
"B","1617445261.589048","7","29","-5","-34","-45","-38","0.545044","-0.154175","-0.823181","-0.039795","0.007634","-0.015267","-0.015267","8.558252","-0.891235","-3.673804","-0.355298","0.113647","0.272754","-0.080151","0.095703","-0.443823"
"B","1617445261.5788443","7","34","-1","-33","-50","-36","0.545044","-0.154297","-0.82312","-0.039795","0.007634","0","0","8.598926","-0.846973","-3.720459","-0.314624","0.159106","0.224902","-0.038281","0.136377","-0.392383"
"B","1617445261.5690384","7","35","-3","-33","-46","-37","0.544861","-0.154419","-0.823242","-0.039917","0.015267","0.007634","0","8.613281","-0.852954","-3.804199","-0.299072","0.151929","0.145947","0.022729","0.114844","-0.345728"
"B","1617445261.5595543","7","33","-5","-33","-44","-37","0.544617","-0.154541","-0.823364","-0.0401","0.015267","0.015267","0.007634","8.622851","-0.87688","-3.889136","-0.287109","0.12561","0.065796","0.081348","0.072974","-0.300269"
"B","1617445261.5489454","7","35","-3","-35","-45","-38","0.54425","-0.154541","-0.823608","-0.040344","0.007634","0.030534","0.015267","8.656347","-0.872095","-3.970483","-0.251221","0.124414","-0.007178","0.132788","0.063403","-0.238062"
"B","1617445261.5387125","7","32","-1","-33","-44","-36","0.543762","-0.154297","-0.823975","-0.040527","-0.007634","0.045802","0.022901","8.73291","-0.833813","-4.021924","-0.171069","0.155518","-0.047852","0.149536","0.099292","-0.150732"
"B","1617445261.529658","7","37","-3","-33","-45","-36","0.543091","-0.15387","-0.824463","-0.040588","-0.015267","0.045802","0.038168","8.835791","-0.790747","-4.070971","-0.062207","0.19021","-0.08374","0.153125","0.147144","-0.040674"
"B","1617445261.5190215","7","33","-1","-33","-44","-39","0.542419","-0.15332","-0.825012","-0.040588","-0.015267","0.045802","0.045802","8.890821","-0.785962","-4.124804","-0.001196","0.186621","-0.123218","0.163892","0.147144","0.029907"
"B","1617445261.5088766","7","32","-1","-33","-46","-38","0.541748","-0.152649","-0.825562","-0.04071","-0.015267","0.038168","0.045802","8.868091","-0.819458","-4.200171","-0.019141","0.142358","-0.184229","0.210547","0.087329","0.043066"
"B","1617445261.499707","7","32","-4","-35","-46","-38","0.541199","-0.152039","-0.82605","-0.040833","-0.015267","0.038168","0.038168","8.834595","-0.85415","-4.265967","-0.049048","0.096899","-0.238062","0.256006","0.026318","0.043066"
"B","1617445261.4896555","7","34","-3","-33","-48","-36","0.54071","-0.15155","-0.826477","-0.040894","-0.007634","0.030534","0.030534","8.803492","-0.887646","-4.315015","-0.076563","0.055029","-0.276343","0.287109","-0.026318","0.038281"
"B","1617445261.47956","7","31","-4","-33","-48","-37","0.540283","-0.151184","-0.826782","-0.040955","-0.007634","0.030534","0.015267","8.771192","-0.94148","-4.359277","-0.105273","-0.003589","-0.312231","0.312231","-0.096899","0.033496"
"B","1617445261.4695268","7","32","-3","-33","-46","-37","0.539978","-0.151001","-0.827026","-0.040955","-0.007634","0.022901","-0.007634","8.756836","-0.996509","-4.387988","-0.117236","-0.062207","-0.334961","0.319409","-0.160303","0.038281"
"B","1617445261.459625","7","33","-3","-34","-48","-36","0.539795","-0.151062","-0.827148","-0.040771","-0.007634","0.022901","-0.022901","8.762817","-1.053931","-4.379614","-0.108862","-0.11604","-0.321802","0.289502","-0.206958","0.045459"
"B","1617445261.4494376","7","32","0","-33","-48","-38","0.539551","-0.151489","-0.827209","-0.040466","0","0.022901","-0.045802","8.771192","-1.155615","-4.344922","-0.095703","-0.209351","-0.282324","0.22251","-0.283521","0.050244"
"B","1617445261.4395254","7","33","-3","-34","-43","-37","0.53949","-0.1521","-0.827209","-0.040161","0.007634","0.015267","-0.061069","8.802295","-1.263281","-4.282715","-0.063403","-0.305054","-0.217725","0.124414","-0.352905","0.062207"
"B","1617445261.4297483","7","33","-2","-33","-45","-37","0.539429","-0.153015","-0.827087","-0.039734","0.007634","0","-0.076336","8.80708","-1.362573","-4.192993","-0.056226","-0.388794","-0.12561","0.015552","-0.409131","0.039478"
"B","1617445261.4196994","7","35","-3","-33","-46","-36","0.539551","-0.154175","-0.826782","-0.039307","0.015267","-0.022901","-0.099237","8.75564","-1.461865","-4.091309","-0.10647","-0.467749","-0.026318","-0.075366","-0.472534","-0.037085"
"B","1617445261.409722","7","32","-4","-33","-46","-37","0.539978","-0.155579","-0.826294","-0.03894","0.022901","-0.045802","-0.114504","8.646777","-1.574316","-3.994409","-0.216528","-0.557471","0.061011","-0.139966","-0.56106","-0.162695"
"B","1617445261.399779","7","32","-1","-33","-48","-37","0.540588","-0.157166","-0.825562","-0.038635","0.030534","-0.061069","-0.122137","8.516382","-1.658057","-3.878369","-0.349316","-0.617285","0.163892","-0.202173","-0.62207","-0.317017"
"B","1617445261.389587","7","33","-3","-33","-48","-37","0.541504","-0.158875","-0.824707","-0.03833","0.030534","-0.076336","-0.122137","8.380005","-1.697534","-3.765918","-0.491675","-0.630444","0.258398","-0.240454","-0.643604","-0.482104"
"B","1617445261.3796165","7","31","-4","-33","-46","-37","0.542542","-0.160583","-0.823669","-0.038147","0.030534","-0.076336","-0.122137","8.308228","-1.713086","-3.616382","-0.569434","-0.620874","0.385205","-0.324194","-0.62207","-0.60293"
"B","1617445261.369661","7","29","-5","-36","-44","-38","0.543518","-0.162292","-0.822693","-0.038086","0.045802","-0.076336","-0.114504","8.263965","-1.728638","-3.451294","-0.620874","-0.613696","0.529956","-0.434253","-0.592163","-0.708203"
"B","1617445261.3597753","7","32","-2","-34","-49","-40","0.544312","-0.164001","-0.821838","-0.038208","0.053435","-0.068702","-0.10687","8.231665","-1.733423","-3.328076","-0.657959","-0.598145","0.636426","-0.514404","-0.559863","-0.784766"
"B","1617445261.3496883","7","32","-2","-33","-45","-38","0.545044","-0.165588","-0.821045","-0.038513","0.053435","-0.068702","-0.091603","8.212524","-1.691553","-3.244336","-0.683081","-0.541919","0.704614","-0.551489","-0.495264","-0.839795"
"B","1617445261.3398085","7","33","-5","-34","-48","-38","0.545532","-0.166992","-0.820374","-0.039062","0.053435","-0.053435","-0.068702","8.211329","-1.613794","-3.218018","-0.687866","-0.455786","0.71897","-0.53833","-0.410327","-0.858936"
"B","1617445261.329772","7","32","-3","-34","-50","-36","0.545837","-0.168091","-0.819885","-0.039673","0.053435","-0.045802","-0.045802","8.218506","-1.50852","-3.244336","-0.683081","-0.346924","0.684277","-0.476123","-0.314624","-0.852954"
"B","1617445261.319472","7","33","-1","-34","-57","-37","0.546021","-0.168823","-0.81958","-0.040405","0.038168","-0.030534","-0.022901","8.22688","-1.369751","-3.320899","-0.6771","-0.211743","0.60293","-0.363672","-0.204565","-0.831421"
"B","1617445261.309665","7","32","0","-34","-50","-38","0.546082","-0.169189","-0.819458","-0.041077","0.022901","-0.022901","0","8.230469","-1.197485","-3.430957","-0.675903","-0.045459","0.490479","-0.211743","-0.075366","-0.805103"
"B","1617445261.299517","7","33","-3","-33","-49","-37","0.546082","-0.16925","-0.819458","-0.041626","0.007634","-0.015267","0.015267","8.223291","-1.018042","-3.569726","-0.685474","0.124414","0.351709","-0.031104","0.046655","-0.777588"
"B","1617445261.2911592","7","29","-3","-33","-46","-38","0.546021","-0.169006","-0.819519","-0.041992","0","0","0.022901","8.200562","-0.879272","-3.724048","-0.708203","0.25481","0.198584","0.151929","0.12561","-0.752466"
"B","1617445261.290048","7","32","-3","-34","-44","-35","0.545837","-0.168762","-0.819641","-0.042236","0","0.015267","0.030534","8.208936","-0.803906","-3.873584","-0.698633","0.322998","0.05144","0.301465","0.154321","-0.692651"
"B","1617445261.2889006","7","32","-3","-33","-47","-38","0.545471","-0.168457","-0.819946","-0.04248","0.007634","0.038168","0.038168","8.277124","-0.80271","-4.01355","-0.629248","0.314624","-0.080151","0.38999","0.130396","-0.575415"
"B","1617445261.259672","7","32","-4","-33","-48","-37","0.544922","-0.168091","-0.820374","-0.042847","0.007634","0.045802","0.045802","8.357275","-0.830225","-4.142749","-0.545508","0.275146","-0.197388","0.452197","0.082544","-0.446216"
"B","1617445261.2498531","7","31","-3","-33","-50","-38","0.54425","-0.167603","-0.820862","-0.043274","0.007634","0.053435","0.053435","8.451782","-0.850561","-4.246826","-0.446216","0.240454","-0.288306","0.48689","0.050244","-0.314624"
"B","1617445261.2395215","7","35","-2","-33","-46","-35","0.543579","-0.166931","-0.821472","-0.04364","-0.007634","0.053435","0.061069","8.553467","-0.838599","-4.306641","-0.340942","0.236865","-0.333765","0.489282","0.059814","-0.19978"
"B","1617445261.229734","7","32","-2","-33","-48","-37","0.542969","-0.165955","-0.822021","-0.043945","-0.022901","0.045802","0.068702","8.610888","-0.806299","-4.332959","-0.279932","0.251221","-0.34812","0.484497","0.084937","-0.13877"
"B","1617445261.2197978","7","33","-3","-35","-45","-36","0.542542","-0.164856","-0.82251","-0.044128","-0.038168","0.030534","0.068702","8.604907","-0.775195","-4.3198","-0.283521","0.265576","-0.326587","0.472534","0.104077","-0.151929"
"B","1617445261.2097452","7","33","-3","-34","-50","-37","0.542419","-0.163696","-0.822876","-0.044128","-0.045802","0.015267","0.068702","8.567822","-0.741699","-4.269556","-0.321802","0.285913","-0.272754","0.44502","0.129199","-0.210547"
"B","1617445261.199547","7","33","-1","-34","-44","-38","0.54248","-0.162415","-0.823059","-0.044067","-0.053435","0","0.061069","8.546289","-0.734522","-4.189404","-0.344531","0.281128","-0.194995","0.382812","0.139966","-0.261987"
"B","1617445261.1898158","7","32","-1","-33","-45","-38","0.542725","-0.161194","-0.82312","-0.043884","-0.053435","-0.007634","0.053435","8.547485","-0.723755","-4.091309","-0.346924","0.282324","-0.101685","0.301465","0.165088","-0.301465"
"B","1617445261.179705","7","33","-4","-33","-46","-38","0.54303","-0.160095","-0.823181","-0.043701","-0.038168","-0.015267","0.045802","8.549878","-0.76084","-4.00398","-0.34812","0.236865","-0.020337","0.216528","0.143555","-0.331372"
"B","1617445261.169736","7","34","-2","-33","-46","-38","0.543335","-0.159302","-0.82312","-0.043579","-0.022901","-0.007634","0.038168","8.589355","-0.827832","-3.936987","-0.312231","0.165088","0.039478","0.128003","0.098096","-0.31582"
"B","1617445261.1597226","7","31","-4","-33","-49","-37","0.543579","-0.158691","-0.82312","-0.04364","-0.007634","-0.007634","0.030534","8.687451","-0.897217","-3.873584","-0.217725","0.088525","0.098096","0.017944","0.061011","-0.246436"
"B","1617445261.149838","7","32","-3","-33","-45","-36","0.54364","-0.158264","-0.82312","-0.043762","-0.007634","0","0.022901","8.781958","-0.952246","-3.84248","-0.124414","0.027515","0.126807","-0.057422","0.029907","-0.166284"
"B","1617445261.1396382","7","31","-4","-33","-49","-38","0.543579","-0.157898","-0.823242","-0.044006","-0.007634","-0.007634","0.015267","8.869287","-0.96062","-3.810181","-0.037085","0.010767","0.160303","-0.124414","0.040674","-0.099292"
"B","1617445261.1296763","7","33","-3","-33","-49","-38","0.543518","-0.157593","-0.823303","-0.044189","-0.015267","-0.007634","0.015267","8.884839","-0.923535","-3.80061","-0.021533","0.04187","0.171069","-0.129199","0.076563","-0.092114"
"B","1617445261.1198","7","33","-4","-33","-45","-36","0.543518","-0.157288","-0.823364","-0.044189","-0.015267","-0.007634","0.007634","8.896802","-0.891235","-3.80061","-0.00957","0.070581","0.171069","-0.12561","0.10647","-0.084937"
"B","1617445261.1096334","7","33","-3","-35","-45","-37","0.543518","-0.157043","-0.823425","-0.044189","-0.015267","-0.007634","0.007634","8.893213","-0.873291","-3.797021","-0.014355","0.086133","0.174658","-0.122021","0.120825","-0.092114"
"B","1617445261.0996652","7","33","-1","-33","-45","-38","0.543518","-0.156921","-0.823425","-0.044067","-0.007634","-0.007634","0","8.866895","-0.869702","-3.794629","-0.039478","0.089722","0.177051","-0.113647","0.119629","-0.11604"
"B","1617445261.08981","7","32","-1","-33","-46","-37","0.543579","-0.15686","-0.823425","-0.044006","0","-0.007634","-0.007634","8.834595","-0.880469","-3.801807","-0.072974","0.080151","0.168677","-0.096899","0.100488","-0.142358"
"B","1617445261.07991","7","34","0","-33","-48","-38","0.543579","-0.157043","-0.823364","-0.043945","0.007634","0","-0.015267","8.825025","-0.900806","-3.822144","-0.081348","0.062207","0.14834","-0.081348","0.077759","-0.139966"
"B","1617445261.0697317","7","33","0","-33","-44","-35","0.543457","-0.157349","-0.823364","-0.043945","0.015267","0","-0.022901","8.827417","-0.936694","-3.847266","-0.077759","0.029907","0.12561","-0.072974","0.04187","-0.124414"
"B","1617445261.0598354","7","33","0","-33","-46","-33","0.543274","-0.157837","-0.823425","-0.044006","0.022901","0.007634","-0.022901","8.81665","-0.980957","-3.887939","-0.087329","-0.00957","0.088525","-0.049048","-0.005981","-0.113647"
"B","1617445261.049653","7","35","-3","-33","-45","-37","0.54303","-0.158447","-0.823486","-0.044189","0.022901","0.007634","-0.022901","8.789136","-1.003687","-3.936987","-0.112451","-0.029907","0.045459","-0.008374","-0.040674","-0.117236"
"B","1617445261.03973","7","31","-5","-33","-44","-34","0.542847","-0.158936","-0.823486","-0.044373","0.015267","0.007634","-0.022901","8.762817","-1.009668","-3.977661","-0.136377","-0.034692","0.008374","0.029907","-0.059814","-0.123218"
"B","1617445261.029762","7","31","-4","-33","-46","-38","0.542664","-0.159241","-0.823547","-0.044556","0.007634","0","-0.015267","8.741284","-0.99292","-4.00398","-0.156714","-0.017944","-0.013159","0.062207","-0.052637","-0.133984"
"B","1617445261.019637","7","33","-1","-33","-49","-31","0.542603","-0.159424","-0.823547","-0.044556","-0.007634","-0.007634","-0.007634","8.69104","-0.954639","-4.01355","-0.205762","0.021533","-0.021533","0.099292","-0.028711","-0.179443"
"B","1617445261.0096476","7","33","-1","-33","-43","-36","0.542664","-0.159424","-0.823486","-0.044556","-0.007634","-0.015267","-0.007634","8.615674","-0.924731","-4.018335","-0.281128","0.05144","-0.028711","0.142358","-0.017944","-0.247632"
"B","1617445260.9997911","7","35","-1","-33","-42","-35","0.542847","-0.159363","-0.823364","-0.044434","-0.015267","-0.022901","0","8.537915","-0.912769","-4.024316","-0.361279","0.0646","-0.038281","0.183032","-0.025122","-0.318213"
"B","1617445260.9897227","7","33","-3","-34","-47","-38","0.543152","-0.159302","-0.823181","-0.044373","-0.007634","-0.015267","0","8.494848","-0.931909","-4.015943","-0.406738","0.047852","-0.035889","0.191406","-0.050244","-0.358887"
"B","1617445260.9797008","7","35","-1","-33","-49","-38","0.543457","-0.15918","-0.823059","-0.044312","-0.007634","-0.007634","0","8.510401","-0.954639","-3.987231","-0.394775","0.025122","-0.013159","0.160303","-0.063403","-0.355298"
"B","1617445260.9698312","7","31","-3","-33","-48","-37","0.54364","-0.158997","-0.822937","-0.044312","-0.007634","0","0","8.579785","-0.978564","-3.935791","-0.326587","0","0.0323","0.088525","-0.061011","-0.309839"
"B","1617445260.959901","7","32","-3","-34","-48","-38","0.543701","-0.158997","-0.822937","-0.04425","0","0","-0.007634","8.640796","-1.04436","-3.892725","-0.265576","-0.063403","0.075366","0.008374","-0.098096","-0.26438"
"B","1617445260.9497037","7","34","-4","-55","-45","-38","0.54364","-0.159119","-0.822937","-0.044312","0.007634","0","-0.015267","8.679077","-1.116138","-3.847266","-0.227295","-0.135181","0.122021","-0.066992","-0.145947","-0.24165"
"B","1617445260.939903","7","33","-3","-33","-44","-38","0.543579","-0.159363","-0.822876","-0.044373","0.007634","0","-0.015267","8.703003","-1.180737","-3.812573","-0.202173","-0.197388","0.156714","-0.126807","-0.19021","-0.227295"
"B","1617445260.9299946","7","33","-3","-33","-46","-38","0.543518","-0.159546","-0.822876","-0.044495","0","-0.007634","-0.015267","8.716162","-1.219019","-3.782666","-0.189014","-0.236865","0.187817","-0.171069","-0.217725","-0.223706"
"B","1617445260.919911","7","32","-4","-33","-45","-37","0.543518","-0.159607","-0.822876","-0.044617","-0.007634","-0.015267","-0.007634","8.703003","-1.214233","-3.774292","-0.202173","-0.233276","0.196191","-0.172266","-0.214136","-0.239258"
"B","1617445260.9098852","7","33","-5","-33","-44","-38","0.543579","-0.159546","-0.822876","-0.044678","-0.015267","-0.022901","-0.007634","8.65874","-1.166382","-3.780273","-0.247632","-0.186621","0.189014","-0.135181","-0.181836","-0.282324"
"B","1617445260.8998785","7","29","-5","-33","-49","-38","0.543762","-0.159363","-0.822754","-0.044678","-0.015267","-0.022901","0","8.613281","-1.111353","-3.798218","-0.294287","-0.132788","0.166284","-0.081348","-0.147144","-0.320605"
"B","1617445260.889817","7","32","-1","-35","-44","-38","0.544006","-0.159119","-0.822632","-0.044739","-0.007634","-0.015267","0.007634","8.601318","-1.061108","-3.822144","-0.308643","-0.084937","0.137573","-0.037085","-0.111255","-0.326587"
"B","1617445260.87985","7","33","-3","-33","-50","-37","0.544189","-0.158875","-0.822571","-0.044922","-0.007634","-0.007634","0.007634","8.647974","-1.019238","-3.830518","-0.26438","-0.047852","0.12561","-0.029907","-0.069385","-0.285913"
"B","1617445260.86989","7","33","-5","-34","-50","-38","0.54425","-0.15863","-0.822571","-0.045105","0.007634","0","0.007634","8.71018","-0.976172","-3.817358","-0.204565","-0.010767","0.136377","-0.050244","-0.019141","-0.239258"
"B","1617445260.8596835","7","34","-2","-33","-48","-34","0.544128","-0.158569","-0.822632","-0.045349","0.022901","0","0.007634","8.750854","-0.972583","-3.80061","-0.162695","-0.011963","0.155518","-0.081348","-0.007178","-0.209351"
"B","1617445260.8498938","7","32","-1","-33","-46","-37","0.543945","-0.158691","-0.822693","-0.045837","0.030534","0","0.007634","8.77478","-1.000098","-3.783862","-0.13877","-0.046655","0.174658","-0.118433","-0.029907","-0.191406"
"B","1617445260.8397634","7","32","-1","-33","-47","-35","0.543762","-0.158875","-0.822754","-0.046387","0.022901","0","0","8.767603","-0.990527","-3.752759","-0.144751","-0.044263","0.209351","-0.145947","-0.019141","-0.211743"
"B","1617445260.8299806","7","34","-4","-34","-46","-34","0.54364","-0.158936","-0.822815","-0.046875","0.015267","-0.007634","0","8.725733","-0.923535","-3.72644","-0.186621","0.013159","0.238062","-0.137573","0.0323","-0.266772"
"B","1617445260.8197858","7","32","-3","-33","-46","-38","0.54364","-0.158936","-0.822815","-0.04718","-0.007634","-0.015267","0.007634","8.692236","-0.806299","-3.708496","-0.221313","0.12561","0.25481","-0.105273","0.135181","-0.31582"
"B","1617445260.8098338","7","33","-3","-33","-45","-37","0.543701","-0.158691","-0.822815","-0.047241","-0.015267","-0.015267","0.007634","8.673096","-0.699829","-3.720459","-0.24165","0.228491","0.24165","-0.053833","0.224902","-0.33855"
"B","1617445260.799847","7","29","-3","-34","-46","-38","0.543823","-0.158447","-0.822754","-0.047119","-0.022901","-0.015267","0.007634","8.643188","-0.611304","-3.757544","-0.272754","0.317017","0.202173","0.017944","0.291895","-0.358887"
"B","1617445260.7898288","7","31","-5","-34","-47","-38","0.543945","-0.158203","-0.822754","-0.046875","-0.015267","-0.015267","0","8.595337","-0.567041","-3.803003","-0.320605","0.363672","0.154321","0.092114","0.314624","-0.387598"
"B","1617445260.780117","7","31","-3","-34","-48","-38","0.544006","-0.158325","-0.822693","-0.046631","0","0","-0.007634","8.553467","-0.604126","-3.861621","-0.362476","0.331372","0.094507","0.149536","0.260791","-0.399561"
"B","1617445260.769834","7","31","-5","-33","-48","-38","0.543945","-0.15863","-0.822693","-0.046448","0.015267","0.015267","-0.022901","8.563037","-0.71897","-3.915454","-0.351709","0.22251","0.043066","0.156714","0.145947","-0.35769"
"B","1617445260.7605689","7","34","-1","-34","-46","-38","0.543701","-0.15918","-0.822754","-0.046448","0.022901","0.022901","-0.030534","8.59773","-0.84458","-3.964502","-0.314624","0.101685","0","0.143555","0.028711","-0.295483"
"B","1617445260.7505698","7","31","-5","-34","-48","-38","0.543274","-0.15979","-0.822937","-0.046448","0.022901","0.038168","-0.030534","8.647974","-0.933105","-4.015943","-0.259595","0.019141","-0.04187","0.135181","-0.046655","-0.220117"
"B","1617445260.7406402","7","32","-3","-35","-48","-38","0.542725","-0.160339","-0.823181","-0.046387","0.007634","0.038168","-0.030534","8.707788","-0.98335","-4.049438","-0.193799","-0.025122","-0.063403","0.117236","-0.080151","-0.147144"
"B","1617445260.7304952","7","32","-3","-33","-51","-38","0.542236","-0.160706","-0.823425","-0.046143","-0.015267","0.022901","-0.022901","8.714966","-1.000098","-4.08772","-0.18064","-0.035889","-0.092114","0.133984","-0.095703","-0.122021"
"B","1617445260.7206264","7","33","-1","-33","-44","-38","0.541931","-0.160889","-0.823608","-0.045776","-0.038168","0.007634","-0.030534","8.655151","-0.989331","-4.121216","-0.236865","-0.019141","-0.118433","0.183032","-0.098096","-0.163892"
"B","1617445260.710462","7","32","-4","-33","-37","-38","0.541992","-0.160889","-0.823669","-0.045044","-0.053435","-0.007634","-0.030534","8.525952","-0.937891","-4.136767","-0.364868","0.043066","-0.132788","0.260791","-0.070581","-0.279932"
"B","1617445260.7004428","7","31","-3","-34","-49","-36","0.542297","-0.160767","-0.823486","-0.04425","-0.053435","-0.022901","-0.030534","8.406323","-0.912769","-4.13916","-0.485693","0.081348","-0.141162","0.324194","-0.062207","-0.391187"
"B","1617445260.6904986","7","32","1","-33","-48","-39","0.542847","-0.160583","-0.823242","-0.043396","-0.061069","-0.022901","-0.022901","8.348902","-0.900806","-4.126001","-0.546704","0.10647","-0.137573","0.350513","-0.05144","-0.451001"
"B","1617445260.680603","7","16","-3","-34","-49","-38","0.543396","-0.160278","-0.822937","-0.042542","-0.053435","-0.022901","-0.015267","8.354883","-0.924731","-4.082934","-0.543115","0.095703","-0.105273","0.31582","-0.052637","-0.459375"
"B","1617445260.6705308","7","32","-3","-34","-46","-36","0.543884","-0.160034","-0.822754","-0.04187","-0.038168","-0.015267","-0.015267","8.388379","-0.984546","-4.015943","-0.513208","0.045459","-0.046655","0.238062","-0.078955","-0.451001"
"B","1617445260.660696","7","31","-3","-34","-48","-38","0.54425","-0.159851","-0.82251","-0.041321","-0.038168","-0.015267","-0.015267","8.431445","-1.039575","-3.952539","-0.471338","0","0.007178","0.161499","-0.100488","-0.430664"
"B","1617445260.6505992","7","31","-3","-34","-49","-37","0.544617","-0.159668","-0.822327","-0.040833","-0.038168","-0.015267","-0.015267","8.479297","-1.050342","-3.886743","-0.425879","-0.003589","0.065796","0.092114","-0.080151","-0.41272"
"B","1617445260.6408534","7","32","-2","-33","-49","-38","0.544983","-0.159485","-0.822144","-0.040283","-0.045802","-0.022901","-0.015267","8.510401","-1.05752","-3.836499","-0.397168","-0.002393","0.110059","0.043066","-0.062207","-0.404346"
"B","1617445260.6306584","7","35","-1","-33","-48","-37","0.54541","-0.159302","-0.82196","-0.039673","-0.045802","-0.030534","-0.022901","8.513989","-1.050342","-3.817358","-0.395972","0.013159","0.120825","0.037085","-0.044263","-0.409131"
"B","1617445260.6204274","7","33","-4","-33","-48","-37","0.545837","-0.159241","-0.821716","-0.039062","-0.030534","-0.038168","-0.022901","8.503222","-1.074268","-3.831714","-0.409131","0","0.098096","0.057422","-0.065796","-0.410327"
"B","1617445260.610558","7","32","-3","-33","-44","-38","0.546387","-0.159302","-0.82135","-0.038574","-0.022901","-0.030534","-0.030534","8.510401","-1.14126","-3.868799","-0.405542","-0.056226","0.050244","0.080151","-0.129199","-0.382812"
"B","1617445260.6005225","7","31","-4","-34","-49","-38","0.546814","-0.159485","-0.821045","-0.038269","-0.007634","-0.022901","-0.030534","8.537915","-1.205859","-3.902295","-0.38042","-0.111255","0.008374","0.092114","-0.186621","-0.336157"
"B","1617445260.5906353","7","32","0","-34","-46","-38","0.547119","-0.159729","-0.820801","-0.038086","-0.007634","-0.015267","-0.030534","8.592944","-1.271655","-3.928613","-0.327783","-0.171069","-0.023926","0.08374","-0.239258","-0.269165"
"B","1617445260.5805194","7","33","-2","-34","-46","-38","0.547302","-0.160034","-0.820618","-0.037903","0","-0.007634","-0.030534","8.667114","-1.317114","-3.935791","-0.253613","-0.209351","-0.034692","0.055029","-0.261987","-0.192603"
"B","1617445260.57067","7","33","-4","-33","-46","-38","0.547424","-0.160278","-0.820557","-0.037781","-0.007634","0","-0.022901","8.740088","-1.358984","-3.908276","-0.181836","-0.246436","-0.008374","-0.003589","-0.275146","-0.133984"
"B","1617445260.560679","7","33","-3","-34","-45","-37","0.547485","-0.1604","-0.820435","-0.037659","-0.015267","-0.007634","-0.022901","8.795117","-1.378125","-3.861621","-0.126807","-0.261987","0.034692","-0.065796","-0.266772","-0.099292"
"B","1617445260.5506537","7","32","-1","-33","-48","-38","0.547546","-0.1604","-0.820435","-0.037415","-0.038168","-0.015267","-0.015267","8.808276","-1.362573","-3.806592","-0.113647","-0.24165","0.089722","-0.112451","-0.23208","-0.111255"
"B","1617445260.5405152","7","35","-1","-33","-48","-38","0.547852","-0.160156","-0.820312","-0.036987","-0.053435","-0.030534","-0.015267","8.768799","-1.311133","-3.755151","-0.155518","-0.185425","0.135181","-0.120825","-0.177051","-0.173462"
"B","1617445260.530449","7","33","-5","-33","-50","-55","0.54834","-0.159729","-0.820068","-0.036438","-0.061069","-0.038168","-0.015267","8.686255","-1.252515","-3.718066","-0.240454","-0.120825","0.162695","-0.096899","-0.129199","-0.269165"
"B","1617445260.5204823","7","33","0","-33","-48","-38","0.54895","-0.159302","-0.819763","-0.035828","-0.053435","-0.038168","-0.007634","8.618067","-1.214233","-3.698926","-0.313428","-0.075366","0.168677","-0.063403","-0.100488","-0.343335"
"B","1617445260.5106573","7","31","-5","-33","-48","-38","0.549438","-0.158997","-0.819519","-0.035278","-0.030534","-0.022901","-0.007634","8.622851","-1.229785","-3.695337","-0.312231","-0.08374","0.162695","-0.061011","-0.110059","-0.33855"
"B","1617445260.5006309","7","34","-2","-33","-46","-33","0.549683","-0.158875","-0.819397","-0.035034","-0.007634","-0.007634","-0.007634","8.662329","-1.287207","-3.709692","-0.27395","-0.137573","0.143555","-0.07417","-0.156714","-0.289502"
"B","1617445260.490603","7","34","-3","-33","-49","-38","0.549683","-0.158813","-0.819397","-0.035156","0","0.007634","0","8.707788","-1.302759","-3.72644","-0.228491","-0.155518","0.126807","-0.080151","-0.16748","-0.239258"
"B","1617445260.4806056","7","33","-4","-33","-49","-36","0.5495","-0.158752","-0.819519","-0.035339","0.007634","0.015267","0.007634","8.737696","-1.271655","-3.7396","-0.198584","-0.129199","0.117236","-0.07417","-0.13877","-0.211743"
"B","1617445260.4706976","7","33","-3","-33","-47","-37","0.549072","-0.158569","-0.819824","-0.035645","0.007634","0.030534","0.022901","8.786743","-1.225","-3.756348","-0.145947","-0.090918","0.108862","-0.072974","-0.092114","-0.165088"
"B","1617445260.4606676","7","31","-5","-35","-49","-38","0.548584","-0.158264","-0.82019","-0.036011","0","0.030534","0.030534","8.827417","-1.177148","-3.783862","-0.102881","-0.053833","0.092114","-0.061011","-0.05144","-0.123218"
"B","1617445260.450469","7","33","-1","-33","-44","-36","0.548157","-0.157837","-0.820557","-0.036377","0","0.015267","0.030534","8.823828","-1.122119","-3.806592","-0.104077","-0.010767","0.077759","-0.035889","-0.014355","-0.124414"
"B","1617445260.440728","7","33","-1","-33","-6","-37","0.547852","-0.15741","-0.820862","-0.036621","-0.015267","0.007634","0.022901","8.767603","-1.056323","-3.820947","-0.159106","0.044263","0.070581","0.005981","0.022729","-0.177051"
"B","1617445260.4305744","7","33","-3","-33","-45","-38","0.547729","-0.156921","-0.820984","-0.036743","-0.022901","-0.007634","0.015267","8.694629","-0.984546","-3.822144","-0.230884","0.107666","0.070581","0.050244","0.068188","-0.250024"
"B","1617445260.420646","7","31","-2","-34","-48","-37","0.547852","-0.156494","-0.820984","-0.036621","-0.022901","-0.015267","0.007634","8.614477","-0.931909","-3.819751","-0.313428","0.159106","0.070581","0.094507","0.098096","-0.330176"
"B","1617445260.4106443","7","32","-3","-33","-47","-38","0.548096","-0.15625","-0.820862","-0.036438","-0.015267","-0.022901","0","8.558252","-0.931909","-3.810181","-0.37085","0.160303","0.075366","0.110059","0.088525","-0.385205"
"B","1617445260.4006658","7","33","-3","-34","-48","-38","0.548401","-0.156128","-0.820679","-0.036316","-0.015267","-0.022901","-0.007634","8.545093","-0.958228","-3.782666","-0.386401","0.135181","0.095703","0.089722","0.065796","-0.404346"
"B","1617445260.390624","7","33","-3","-33","-50","-37","0.548706","-0.156128","-0.820496","-0.036133","-0.007634","-0.015267","-0.007634","8.573804","-0.979761","-3.738403","-0.360083","0.117236","0.133984","0.040674","0.063403","-0.393579"
"B","1617445260.3807197","7","31","-3","-33","-45","-36","0.54895","-0.156189","-0.820374","-0.036011","-0.007634","-0.015267","-0.015267","8.622851","-0.99292","-3.683374","-0.313428","0.107666","0.184229","-0.022729","0.076563","-0.369653"
"B","1617445260.3707776","7","29","-3","-36","-49","-38","0.549133","-0.156311","-0.82019","-0.035828","-0.007634","-0.015267","-0.015267","8.663526","-1.018042","-3.643897","-0.27395","0.087329","0.220117","-0.07417","0.072974","-0.345728"
"B","1617445260.360763","7","33","-4","-33","-44","-37","0.549377","-0.156433","-0.820068","-0.035645","-0.007634","-0.022901","-0.022901","8.676684","-1.02522","-3.615185","-0.261987","0.086133","0.244043","-0.100488","0.080151","-0.344531"
"B","1617445260.3511395","7","33","-2","-33","-44","-37","0.549622","-0.156616","-0.819824","-0.035461","-0.007634","-0.030534","-0.022901","8.661133","-1.030005","-3.592456","-0.278735","0.087329","0.260791","-0.108862","0.081348","-0.366064"
"B","1617445260.340561","7","29","-2","-34","-49","-38","0.549927","-0.15686","-0.81958","-0.035278","-0.007634","-0.030534","-0.022901","8.641993","-1.051538","-3.594849","-0.300269","0.071777","0.252417","-0.099292","0.059814","-0.38042"
"B","1617445260.33075","7","32","-5","-33","-46","-37","0.550293","-0.157166","-0.819336","-0.035095","0","-0.030534","-0.030534","8.640796","-1.091016","-3.588867","-0.303857","0.039478","0.251221","-0.10647","0.028711","-0.379224"
"B","1617445260.3206196","7","29","0","-33","-46","-38","0.550598","-0.157532","-0.819031","-0.034973","0.007634","-0.030534","-0.030534","8.634814","-1.138867","-3.582886","-0.311035","0","0.251221","-0.11604","-0.00957","-0.381616"
"B","1617445260.310637","7","29","-3","-35","-50","-38","0.550842","-0.158081","-0.818787","-0.034912","0.015267","-0.022901","-0.038168","8.634814","-1.18313","-3.578101","-0.312231","-0.035889","0.251221","-0.126807","-0.044263","-0.378027"
"B","1617445260.3005486","7","31","-5","-34","-48","-38","0.551025","-0.15863","-0.818542","-0.034851","0.015267","-0.015267","-0.038168","8.670703","-1.227393","-3.563745","-0.277539","-0.072974","0.260791","-0.15791","-0.069385","-0.345728"
"B","1617445260.291077","7","28","-3","-33","-49","-38","0.551086","-0.15918","-0.81842","-0.03479","0.007634","-0.007634","-0.030534","8.741284","-1.245337","-3.532642","-0.206958","-0.08374","0.290698","-0.212939","-0.057422","-0.291895"
"B","1617445260.280698","7","31","-9","-34","-49","-38","0.551025","-0.159607","-0.818359","-0.034668","0","-0.007634","-0.030534","8.793921","-1.241748","-3.497949","-0.151929","-0.072974","0.326587","-0.260791","-0.026318","-0.257202"
"B","1617445260.2706676","7","29","-3","-34","-52","-38","0.550964","-0.159912","-0.818359","-0.034546","-0.007634","-0.015267","-0.022901","8.773584","-1.238159","-3.501538","-0.171069","-0.0646","0.325391","-0.250024","-0.022729","-0.275146"
"B","1617445259.771464","7","29","-3","-34","-50","-38","0.553101","-0.155945","-0.81781","-0.030884","0","-0.015267","-0.030534","8.65874","-1.189111","-3.529053","-0.300269","0.005981","0.256006","-0.124414","-0.002393","-0.373242"
"B","1617445259.7616756","7","29","-2","-35","-50","-38","0.553162","-0.156372","-0.817688","-0.030701","0","-0.007634","-0.030534","8.673096","-1.245337","-3.515893","-0.285913","-0.04187","0.267969","-0.154321","-0.043066","-0.358887"
"B","1617445259.7514985","7","32","-3","-34","-49","-38","0.553223","-0.156677","-0.817627","-0.030579","0","-0.007634","-0.022901","8.675488","-1.275244","-3.508716","-0.283521","-0.065796","0.27395","-0.16748","-0.063403","-0.356494"
"B","1617445259.7415526","7","33","-3","-34","-49","-38","0.553162","-0.156921","-0.817627","-0.030518","-0.007634","-0.007634","-0.015267","8.651563","-1.270459","-3.511108","-0.30625","-0.057422","0.272754","-0.156714","-0.061011","-0.378027"
"B","1617445259.7317836","7","31","-1","-33","-49","-38","0.553101","-0.156982","-0.817627","-0.030334","-0.022901","0","-0.015267","8.595337","-1.241748","-3.537427","-0.361279","-0.025122","0.247632","-0.10647","-0.049048","-0.42229"
"B","1617445259.7216458","7","33","-2","-33","-46","-55","0.55304","-0.156921","-0.817688","-0.030029","-0.022901","0.007634","-0.015267","8.543897","-1.213037","-3.570923","-0.411523","0.005981","0.216528","-0.05144","-0.037085","-0.459375"
"B","1617445259.7115328","7","28","-1","-36","-48","-38","0.552917","-0.15686","-0.81781","-0.029663","-0.022901","0.015267","-0.007634","8.521167","-1.199878","-3.616382","-0.43186","0.023926","0.173462","-0.001196","-0.034692","-0.46416"
"B","1617445259.7015295","7","33","-3","-34","-50","-37","0.552551","-0.156799","-0.818115","-0.029297","-0.015267","0.030534","-0.015267","8.513989","-1.217822","-3.679785","-0.435449","0.00957","0.119629","0.043066","-0.061011","-0.44502"
"B","1617445259.6917045","7","33","-4","-33","-44","-39","0.552002","-0.156921","-0.81842","-0.028931","0","0.038168","-0.015267","8.494848","-1.268066","-3.756348","-0.448608","-0.033496","0.053833","0.094507","-0.119629","-0.425879"
"B","1617445259.6816103","7","33","-4","-34","-48","-38","0.551392","-0.157166","-0.818848","-0.028748","0.015267","0.045802","-0.015267","8.482885","-1.36377","-3.854443","-0.45459","-0.12561","-0.028711","0.144751","-0.227295","-0.386401"
"B","1617445259.6718996","7","32","-4","-33","-45","-38","0.550598","-0.157593","-0.819275","-0.028809","0.022901","0.053435","-0.015267","8.482885","-1.461865","-3.951343","-0.447412","-0.223706","-0.108862","0.185425","-0.337354","-0.336157"
"B","1617445259.6615477","7","33","-3","-35","-44","-38","0.549805","-0.157898","-0.819702","-0.028992","0.015267","0.053435","-0.007634","8.487671","-1.50852","-4.024316","-0.434253","-0.272754","-0.165088","0.217725","-0.393579","-0.295483"
"B","1617445259.6515243","7","30","-4","-30","-46","-38","0.549133","-0.157959","-0.82019","-0.029236","0","0.045802","0.007634","8.463745","-1.504932","-4.086524","-0.453394","-0.27395","-0.212939","0.266772","-0.409131","-0.293091"
"B","1617445259.641642","7","33","-4","-36","-49","-38","0.548584","-0.157715","-0.820557","-0.029358","-0.015267","0.030534","0.015267","8.426661","-1.451099","-4.121216","-0.48689","-0.227295","-0.235669","0.313428","-0.378027","-0.320605"
"B","1617445259.631747","7","31","-3","-34","-46","-38","0.54834","-0.157227","-0.820801","-0.029419","-0.030534","0.015267","0.015267","8.385986","-1.367358","-4.126001","-0.525171","-0.150732","-0.235669","0.349316","-0.313428","-0.364868"
"B","1617445259.621559","7","32","-6","-34","-48","-37","0.548279","-0.156555","-0.820984","-0.029297","-0.038168","0.007634","0.015267","8.344116","-1.286011","-4.111646","-0.568237","-0.07417","-0.220117","0.373242","-0.246436","-0.419897"
"B","1617445259.6116076","7","29","-2","-34","-48","-38","0.548401","-0.155945","-0.821045","-0.029114","-0.030534","0","0.015267","8.323779","-1.246533","-4.092505","-0.58977","-0.038281","-0.203369","0.375635","-0.212939","-0.451001"
"B","1617445259.6017177","7","32","-3","-33","-46","-38","0.548645","-0.155457","-0.820984","-0.028992","-0.022901","0","0.007634","8.354883","-1.23457","-4.042261","-0.56106","-0.028711","-0.15791","0.327783","-0.186621","-0.443823"
"B","1617445259.5917106","7","31","-3","-33","-50","-37","0.548889","-0.155029","-0.820923","-0.02887","-0.022901","-0.007634","0.007634","8.402735","-1.228589","-3.970483","-0.515601","-0.025122","-0.090918","0.253613","-0.15791","-0.429468"
"B","1617445259.5817473","7","34","-3","-33","-49","-38","0.549194","-0.154724","-0.820801","-0.028687","-0.022901","-0.015267","0","8.426661","-1.221411","-3.902295","-0.495264","-0.016748","-0.028711","0.192603","-0.131592","-0.436646"
"B","1617445259.5716608","7","33","-4","-33","-46","-38","0.549561","-0.154541","-0.820557","-0.028564","-0.022901","-0.030534","0","8.450586","-1.242944","-3.841284","-0.47373","-0.037085","0.022729","0.133984","-0.135181","-0.435449"
"B","1617445259.5617042","7","33","-2","-33","-50","-38","0.550049","-0.154297","-0.820251","-0.028442","-0.015267","-0.038168","0","8.490064","-1.284814","-3.787451","-0.439038","-0.077759","0.065796","0.070581","-0.156714","-0.416309"
"B","1617445259.5517702","7","32","-2","-33","-44","-37","0.550598","-0.154114","-0.819946","-0.028442","-0.015267","-0.045802","0","8.53313","-1.307544","-3.732422","-0.400757","-0.100488","0.110059","0.010767","-0.160303","-0.395972"
"B","1617445259.5415828","7","33","-5","-34","-48","-37","0.551208","-0.15387","-0.81958","-0.028503","-0.022901","-0.045802","0","8.558252","-1.303955","-3.689355","-0.381616","-0.099292","0.13877","-0.020337","-0.14834","-0.38999"
"B","1617445259.531561","7","36","-2","-34","-50","-38","0.55188","-0.153625","-0.819214","-0.028503","-0.015267","-0.053435","0","8.579785","-1.283618","-3.658252","-0.367261","-0.078955","0.156714","-0.035889","-0.122021","-0.386401"
"B","1617445259.5217574","7","32","-3","-33","-44","-37","0.55249","-0.153442","-0.818787","-0.028442","-0.015267","-0.045802","-0.007634","8.602514","-1.278833","-3.635522","-0.349316","-0.072974","0.165088","-0.047852","-0.110059","-0.373242"
"B","1617445259.5117166","7","31","-2","-34","-48","-38","0.553101","-0.153381","-0.81842","-0.028503","0","-0.038168","-0.007634","8.6396","-1.302759","-3.603223","-0.318213","-0.096899","0.185425","-0.084937","-0.120825","-0.350513"
"B","1617445259.5016043","7","31","-3","-34","-49","-38","0.553589","-0.153442","-0.818054","-0.028625","0.007634","-0.030534","-0.007634","8.674292","-1.353003","-3.576904","-0.287109","-0.145947","0.19978","-0.122021","-0.15791","-0.320605"
"B","1617445259.4915547","7","31","-4","-36","-46","-38","0.553894","-0.153564","-0.81781","-0.028931","0.007634","-0.022901","-0.007634","8.718554","-1.391284","-3.529053","-0.246436","-0.187817","0.240454","-0.184229","-0.179443","-0.294287"
"B","1617445259.4815784","7","33","-3","-34","-49","-38","0.554138","-0.153625","-0.817627","-0.029236","0.007634","-0.022901","0","8.743677","-1.386499","-3.471631","-0.223706","-0.185425","0.293091","-0.239258","-0.160303","-0.294287"
"B","1617445259.4715526","7","33","-3","-34","-49","-38","0.554321","-0.153564","-0.817505","-0.02948","-0.007634","-0.022901","0.007634","8.748462","-1.351807","-3.409424","-0.221313","-0.155518","0.350513","-0.283521","-0.119629","-0.317017"
"B","1617445259.4615717","7","33","-1","-33","-49","-36","0.554504","-0.153381","-0.817383","-0.029663","-0.015267","-0.022901","0.007634","8.729321","-1.317114","-3.34602","-0.242847","-0.124414","0.409131","-0.319409","-0.081348","-0.363672"
"B","1617445259.45166","7","33","-5","-33","-50","-37","0.554749","-0.153015","-0.817322","-0.029785","-0.022901","-0.030534","0.015267","8.669507","-1.250122","-3.298169","-0.30625","-0.063403","0.452197","-0.319409","-0.027515","-0.44502"
"B","1617445259.441643","7","33","-3","-33","-48","-38","0.555054","-0.152649","-0.8172","-0.029846","-0.015267","-0.038168","0.022901","8.59773","-1.187915","-3.293384","-0.381616","-0.004785","0.451001","-0.277539","0.010767","-0.520386"
"B","1617445259.431672","7","33","-2","-33","-46","-38","0.555298","-0.152161","-0.817078","-0.030029","-0.007634","-0.030534","0.030534","8.579785","-1.1604","-3.31731","-0.401953","0.014355","0.421094","-0.238062","0.017944","-0.529956"
"B","1617445259.4216394","7","31","-5","-33","-49","-38","0.555481","-0.151672","-0.817017","-0.030457","0.007634","-0.015267","0.038168","8.61687","-1.177148","-3.362769","-0.368457","-0.013159","0.37085","-0.211743","-0.00957","-0.477319"
"B","1617445259.4115973","7","31","-4","-34","-48","-38","0.55542","-0.151184","-0.817139","-0.031006","0.015267","0","0.038168","8.680273","-1.179541","-3.41062","-0.30625","-0.029907","0.324194","-0.196191","-0.021533","-0.400757"
"B","1617445259.401687","7","33","-5","-32","-44","-38","0.555115","-0.150879","-0.817383","-0.031677","0.030534","0.007634","0.030534","8.708984","-1.189111","-3.474023","-0.277539","-0.053833","0.266772","-0.160303","-0.05144","-0.349316"
"B","1617445259.3916593","7","31","0","-33","-46","-38","0.554749","-0.150696","-0.817627","-0.032471","0.038168","0.015267","0.022901","8.693433","-1.199878","-3.54939","-0.291895","-0.081348","0.197388","-0.100488","-0.094507","-0.333765"
"B","1617445259.3819392","7","31","-1","-33","-47","-38","0.55426","-0.150696","-0.817932","-0.033264","0.038168","0.022901","0.015267","8.673096","-1.18313","-3.615185","-0.309839","-0.078955","0.141162","-0.043066","-0.108862","-0.328979"
"B","1617445259.3715096","7","31","-3","-33","-48","-38","0.553772","-0.150757","-0.818237","-0.033936","0.038168","0.022901","0.015267","8.661133","-1.142456","-3.659448","-0.319409","-0.050244","0.107666","-0.001196","-0.089722","-0.327783"
"B","1617445259.361732","7","31","-3","-33","-50","-38","0.553284","-0.15094","-0.818481","-0.034607","0.038168","0.022901","0.015267","8.673096","-1.124512","-3.695337","-0.305054","-0.04187","0.080151","0.020337","-0.084937","-0.305054"
"B","1617445259.3515396","7","32","-4","-34","-49","-37","0.552856","-0.151062","-0.818726","-0.035217","0.038168","0.015267","0.015267","8.679077","-1.113745","-3.724048","-0.29668","-0.04187","0.061011","0.034692","-0.087329","-0.290698"
"B","1617445259.3417766","7","32","-5","-34","-48","-38","0.552612","-0.151184","-0.818848","-0.035889","0.038168","0","0.007634","8.669507","-1.113745","-3.738403","-0.305054","-0.05144","0.050244","0.044263","-0.100488","-0.293091"
"B","1617445259.3317146","7","32","-3","-34","-50","-39","0.55249","-0.151428","-0.818848","-0.036621","0.038168","-0.007634","0.007634","8.652759","-1.104175","-3.72644","-0.322998","-0.05144","0.0646","0.038281","-0.100488","-0.314624"
"B","1617445259.3216789","7","34","-1","-33","-48","-38","0.55249","-0.151672","-0.818787","-0.037354","0.038168","-0.015267","0.007634","8.646777","-1.088623","-3.713281","-0.330176","-0.045459","0.076563","0.031104","-0.093311","-0.326587"
"B","1617445259.3117712","7","31","-4","-33","-49","-39","0.552551","-0.151794","-0.818665","-0.038086","0.030534","-0.015267","0.007634","8.663526","-1.047949","-3.690552","-0.31582","-0.014355","0.096899","0.016748","-0.056226","-0.324194"
"B","1617445259.301885","7","33","-1","-34","-50","-38","0.552734","-0.151855","-0.818542","-0.038696","0.022901","-0.015267","0.007634","8.71018","-0.974976","-3.652271","-0.271558","0.049048","0.130396","-0.008374","0.020337","-0.303857"
"B","1617445259.291584","7","32","-4","-36","-52","-38","0.552856","-0.151855","-0.81842","-0.039185","0.015267","-0.015267","0.015267","8.768799","-0.912769","-3.608008","-0.215332","0.104077","0.171069","-0.047852","0.093311","-0.27395"
"B","1617445259.2816567","7","33","-3","-34","-46","-38","0.552917","-0.151733","-0.818359","-0.039612","0.015267","-0.015267","0.015267","8.822632","-0.863721","-3.572119","-0.162695","0.144751","0.204565","-0.08374","0.151929","-0.242847"
"B","1617445259.271659","7","31","-5","-33","-48","-38","0.55304","-0.151733","-0.818298","-0.039978","0.015267","-0.022901","0.015267","8.852539","-0.836206","-3.54939","-0.135181","0.166284","0.224902","-0.105273","0.181836","-0.227295"
"B","1617445259.261789","7","31","-5","-34","-46","-38","0.553162","-0.151733","-0.818176","-0.040405","0.022901","-0.022901","0.007634","8.858521","-0.84458","-3.554175","-0.131592","0.151929","0.216528","-0.102881","0.16748","-0.218921"
"B","1617445259.2515886","7","31","-4","-34","-49","-38","0.553284","-0.151794","-0.817993","-0.040894","0.022901","-0.030534","0.007634","8.857325","-0.849365","-3.585278","-0.133984","0.139966","0.18064","-0.07417","0.147144","-0.205762"
"B","1617445259.2418823","7","33","-4","-38","-50","-38","0.553467","-0.151917","-0.817871","-0.041321","0.022901","-0.030534","0.007634","8.835791","-0.83501","-3.622363","-0.159106","0.149536","0.139966","-0.026318","0.142358","-0.214136"
"B","1617445259.2318428","7","31","-5","-36","-51","-38","0.553711","-0.151978","-0.817688","-0.041809","0.022901","-0.022901","0.007634","8.803492","-0.825439","-3.675","-0.194995","0.153125","0.081348","0.038281","0.124414","-0.224902"
"B","1617445259.221691","7","29","-6","-34","-50","-38","0.553894","-0.152039","-0.817505","-0.042236","0.015267","-0.015267","0.007634","8.791529","-0.813477","-3.710889","-0.209351","0.160303","0.040674","0.081348","0.119629","-0.223706"
"B","1617445259.2119887","7","32","-3","-33","-51","-38","0.553955","-0.151978","-0.817444","-0.042603","0.015267","0","0.015267","8.813062","-0.794336","-3.728833","-0.189014","0.172266","0.020337","0.096899","0.130396","-0.197388"
"B","1617445259.2016394","7","35","-3","-33","-45","-37","0.553833","-0.151917","-0.817566","-0.042908","0.007634","0.015267","0.015267","8.874072","-0.784766","-3.7396","-0.128003","0.175854","0.011963","0.084937","0.143555","-0.13877"
"B","1617445259.1917005","7","31","-2","-34","-48","-38","0.553467","-0.151794","-0.81781","-0.043152","0","0.030534","0.022901","8.964991","-0.791943","-3.740796","-0.034692","0.162695","0.019141","0.04187","0.151929","-0.055029"
"B","1617445259.1819303","7","33","-3","-34","-52","-39","0.552979","-0.151489","-0.818176","-0.043274","-0.007634","0.030534","0.022901","9.027197","-0.766821","-3.730029","0.029907","0.18064","0.039478","0.007178","0.186621","-0.004785"
"B","1617445259.1716783","7","32","-4","-34","-48","-37","0.552429","-0.151245","-0.818604","-0.043274","-0.007634","0.022901","0.015267","8.999682","-0.747681","-3.757544","0.007178","0.194995","0.023926","0.033496","0.191406","-0.020337"
"B","1617445259.161976","7","29","-8","-35","-49","-39","0.552063","-0.151123","-0.818848","-0.043274","0.007634","0.007634","0.015267","8.918335","-0.777588","-3.829321","-0.069385","0.162695","-0.039478","0.10647","0.130396","-0.063403"
"B","1617445259.151853","7","35","-2","-35","-48","-38","0.551819","-0.151123","-0.819031","-0.043396","0.007634","0.007634","0.007634","8.822632","-0.825439","-3.913062","-0.163892","0.111255","-0.117236","0.193799","0.044263","-0.114844"
"B","1617445259.1424794","7","31","-3","-34","-48","-38","0.551697","-0.151062","-0.819092","-0.04364","0.007634","0.007634","0.007634","8.769995","-0.842188","-3.986035","-0.215332","0.089722","-0.187817","0.267969","-0.001196","-0.132788"
"B","1617445259.1317909","7","32","-4","-34","-48","-38","0.551514","-0.151123","-0.819214","-0.043823","0.015267","0.015267","0.007634","8.768799","-0.86731","-4.031494","-0.215332","0.062207","-0.229687","0.29668","-0.038281","-0.113647"
"B","1617445259.1224663","7","31","-2","-33","-46","-38","0.551392","-0.151062","-0.819336","-0.044067","0.007634","0.015267","0.007634","8.801099","-0.894824","-4.047046","-0.183032","0.029907","-0.242847","0.288306","-0.065796","-0.075366"
"B","1617445259.1124728","7","32","-4","-36","-46","-38","0.551208","-0.15094","-0.819458","-0.04425","-0.007634","0.022901","0.007634","8.846558","-0.900806","-4.007568","-0.136377","0.019141","-0.19978","0.229687","-0.056226","-0.049048"
"B","1617445259.1024497","7","33","-1","-33","-46","-38","0.551025","-0.150757","-0.81958","-0.04425","-0.015267","0.015267","0.007634","8.875269","-0.892432","-3.922632","-0.10647","0.023926","-0.111255","0.142358","-0.023926","-0.056226"
"B","1617445259.0925865","7","33","-2","-33","-48","-38","0.550903","-0.150635","-0.819702","-0.044128","-0.015267","0","0","8.826221","-0.934302","-3.850854","-0.154321","-0.016748","-0.035889","0.080151","-0.055029","-0.12561"
"B","1617445259.0824685","7","32","-5","-34","-46","-39","0.551025","-0.150574","-0.819641","-0.044006","-0.015267","-0.015267","-0.007634","8.741284","-0.979761","-3.782666","-0.240454","-0.059814","0.028711","0.039478","-0.096899","-0.224902"
"B","1617445259.0725107","7","32","-5","-35","-48","-38","0.55127","-0.150574","-0.819458","-0.043945","-0.015267","-0.022901","-0.007634","8.667114","-1.004883","-3.722852","-0.31582","-0.08374","0.082544","0.010767","-0.122021","-0.313428"
"B","1617445259.0625265","7","32","-3","-35","-48","-38","0.551636","-0.150452","-0.819275","-0.043823","-0.015267","-0.022901","-0.007634","8.640796","-1.010864","-3.671411","-0.345728","-0.087329","0.126807","-0.017944","-0.120825","-0.35769"
"B","1617445259.052694","7","31","-4","-36","-80","-39","0.55188","-0.15033","-0.819092","-0.043762","-0.015267","-0.015267","0","8.655151","-0.998901","-3.634326","-0.333765","-0.075366","0.15791","-0.046655","-0.099292","-0.360083"
"B","1617445259.042488","7","31","-1","-35","-48","-38","0.552063","-0.150146","-0.819031","-0.043701","-0.015267","-0.015267","0","8.685059","-0.967798","-3.611597","-0.305054","-0.044263","0.177051","-0.0646","-0.059814","-0.343335"
"B","1617445259.0323772","7","32","-3","-34","-49","-38","0.552185","-0.149902","-0.819031","-0.04364","-0.015267","-0.007634","0","8.683863","-0.925928","-3.624756","-0.307446","-0.003589","0.161499","-0.038281","-0.025122","-0.343335"
"B","1617445259.0224822","7","33","-3","-34","-48","-39","0.552246","-0.149658","-0.81897","-0.043579","-0.015267","0","0.007634","8.69104","-0.879272","-3.652271","-0.300269","0.040674","0.132788","-0.002393","0.010767","-0.330176"
"B","1617445259.012545","7","32","-3","-36","-49","-38","0.552246","-0.149414","-0.819031","-0.043518","-0.015267","0.007634","0.007634","8.741284","-0.832617","-3.675","-0.251221","0.084937","0.110059","0.013159","0.056226","-0.279932"
"B","1617445259.0024986","7","32","-2","-36","-45","-37","0.552124","-0.149109","-0.819214","-0.043396","-0.015267","0.015267","0.007634","8.796313","-0.811084","-3.682178","-0.194995","0.105273","0.10647","0.002393","0.086133","-0.229687"
"B","1617445258.992439","7","33","-2","-36","-45","-38","0.55188","-0.148865","-0.819397","-0.043274","-0.015267","0.015267","0.007634","8.832202","-0.806299","-3.672607","-0.156714","0.108862","0.120825","-0.021533","0.100488","-0.19978"
"B","1617445258.9824262","7","29","-3","-34","-48","-38","0.551636","-0.148804","-0.81958","-0.043152","-0.007634","0.007634","0","8.821436","-0.826636","-3.666626","-0.165088","0.088525","0.131592","-0.033496","0.082544","-0.210547"
"B","1617445258.9723897","7","32","-5","-36","-53","-38","0.551453","-0.148743","-0.819702","-0.043152","0","0.007634","0","8.805883","-0.862524","-3.660645","-0.179443","0.05144","0.142358","-0.049048","0.046655","-0.223706"
"B","1617445258.9624872","7","31","-3","-33","-52","-38","0.551331","-0.148804","-0.819763","-0.043213","0","0","0","8.805883","-0.879272","-3.657056","-0.178247","0.033496","0.14834","-0.059814","0.031104","-0.223706"
"B","1617445258.9525654","7","32","-5","-35","-28","-38","0.55127","-0.148804","-0.819824","-0.043274","0","-0.007634","-0.007634","8.77478","-0.866113","-3.657056","-0.209351","0.045459","0.149536","-0.046655","0.037085","-0.253613"
"B","1617445258.9424922","7","32","0","-34","-49","-38","0.551331","-0.148926","-0.819763","-0.043335","0","-0.015267","-0.007634","8.722143","-0.84458","-3.663037","-0.261987","0.068188","0.142358","-0.015552","0.046655","-0.301465"
"B","1617445258.9326258","7","32","-2","-33","-50","-38","0.551453","-0.148987","-0.819641","-0.043335","-0.007634","-0.007634","-0.007634","8.701807","-0.805103","-3.657056","-0.283521","0.108862","0.144751","0.001196","0.081348","-0.325391"
"B","1617445258.9225357","7","33","-1","-34","-45","-37","0.551575","-0.148926","-0.81958","-0.043335","-0.007634","0","0","8.766406","-0.758447","-3.628345","-0.220117","0.154321","0.171069","-0.029907","0.143555","-0.282324"
"B","1617445258.9123847","7","32","-1","-34","-49","-38","0.551514","-0.148804","-0.819702","-0.043213","-0.015267","0.007634","0","8.878858","-0.708203","-3.592456","-0.107666","0.205762","0.209351","-0.088525","0.223706","-0.198584"
"B","1617445258.9025931","7","32","-5","-33","-50","-42","0.551331","-0.148682","-0.819824","-0.04303","-0.015267","0","0","8.950635","-0.667529","-3.541016","-0.033496","0.247632","0.26438","-0.150732","0.290698","-0.155518"
"B","1617445258.8926415","7","33","-4","-35","-50","-38","0.551208","-0.148743","-0.819885","-0.042664","0","-0.022901","-0.015267","8.902783","-0.714185","-3.550586","-0.078955","0.206958","0.258398","-0.142358","0.24165","-0.191406"
"B","1617445258.8825877","7","29","-4","-33","-48","-37","0.551392","-0.149109","-0.819763","-0.042603","0.022901","-0.038168","-0.022901","8.787939","-0.84458","-3.621167","-0.194995","0.081348","0.184229","-0.071777","0.081348","-0.257202"
"B","1617445258.8724878","7","31","0","-36","-48","-38","0.551758","-0.149658","-0.819397","-0.042786","0.030534","-0.045802","-0.022901","8.699414","-0.965405","-3.690552","-0.287109","-0.033496","0.10647","-0.004785","-0.063403","-0.300269"
"B","1617445258.8625965","7","29","-3","-34","-53","-38","0.552307","-0.150146","-0.818909","-0.043152","0.022901","-0.053435","-0.030534","8.644384","-1.013257","-3.736011","-0.346924","-0.080151","0.049048","0.05144","-0.132788","-0.328979"
"B","1617445258.852483","7","32","-2","-35","-50","-36","0.552917","-0.150696","-0.818359","-0.043274","0.015267","-0.053435","-0.038168","8.604907","-1.032398","-3.755151","-0.391187","-0.093311","0.015552","0.092114","-0.162695","-0.355298"
"B","1617445258.8426013","7","31","-3","-35","-53","-38","0.553589","-0.151245","-0.81781","-0.043396","0.015267","-0.061069","-0.045802","8.543897","-1.063501","-3.785058","-0.458179","-0.117236","-0.027515","0.145947","-0.208154","-0.398364"
"B","1617445258.832651","7","31","-4","-38","-48","-39","0.554382","-0.151855","-0.817139","-0.043396","0.015267","-0.061069","-0.045802","8.488867","-1.081445","-3.792236","-0.519189","-0.12561","-0.052637","0.185425","-0.235669","-0.443823"
"B","1617445258.822623","7","32","-3","-34","-49","-38","0.555176","-0.152466","-0.816467","-0.043457","0.007634","-0.053435","-0.038168","8.481689","-1.101782","-3.777881","-0.532349","-0.137573","-0.056226","0.187817","-0.250024","-0.45459"
"B","1617445258.8125415","7","32","-1","-35","-48","-38","0.555908","-0.152954","-0.815918","-0.043518","0.007634","-0.045802","-0.038168","8.521167","-1.106567","-3.747974","-0.498853","-0.135181","-0.040674","0.162695","-0.238062","-0.429468"
"B","1617445258.8026822","7","33","1","-34","-50","-38","0.556519","-0.15332","-0.81543","-0.043518","0","-0.038168","-0.030534","8.579785","-1.09939","-3.704907","-0.44502","-0.122021","-0.011963","0.122021","-0.208154","-0.392383"
"B","1617445258.7925498","7","31","-3","-34","-48","-38","0.557068","-0.153564","-0.815002","-0.043457","-0.007634","-0.030534","-0.022901","8.628833","-1.075464","-3.658252","-0.399561","-0.092114","0.021533","0.084937","-0.162695","-0.366064"
"B","1617445258.7825615","7","31","-2","-33","-49","-38","0.557495","-0.153748","-0.814697","-0.043396","-0.007634","-0.030534","-0.022901","8.68147","-1.064697","-3.606812","-0.350513","-0.076563","0.0646","0.034692","-0.126807","-0.33855"
"B","1617445258.7725315","7","32","-3","-38","-46","-38","0.557861","-0.153931","-0.814392","-0.043274","0","-0.030534","-0.022901","8.708984","-1.071875","-3.557764","-0.325391","-0.078955","0.105273","-0.00957","-0.114844","-0.330176"
"B","1617445258.762601","7","33","-5","-37","-50","-39","0.558228","-0.154114","-0.814148","-0.043213","0","-0.030534","-0.022901","8.704199","-1.096997","-3.52666","-0.333765","-0.099292","0.129199","-0.034692","-0.130396","-0.345728"
"B","1617445258.7524576","7","31","-3","-34","-48","-37","0.558594","-0.154358","-0.813843","-0.043213","0","-0.038168","-0.022901","8.688647","-1.113745","-3.502734","-0.351709","-0.112451","0.144751","-0.047852","-0.142358","-0.366064"
"B","1617445258.7425852","7","33","-6","-34","-48","-38","0.559021","-0.154602","-0.813477","-0.043274","0.007634","-0.038168","-0.022901","8.663526","-1.124512","-3.493164","-0.38042","-0.119629","0.144751","-0.040674","-0.155518","-0.392383"
"B","1617445258.7325368","7","32","-5","-46","-52","-38","0.559509","-0.154846","-0.81311","-0.043396","0.007634","-0.038168","-0.015267","8.6396","-1.126904","-3.49436","-0.407935","-0.119629","0.132788","-0.021533","-0.163892","-0.41272"
"B","1617445258.7226062","7","32","-3","-34","-50","-39","0.559937","-0.155029","-0.812744","-0.043579","0.007634","-0.038168","-0.015267","8.610888","-1.123315","-3.495557","-0.440234","-0.11604","0.122021","-0.001196","-0.168677","-0.439038"
"B","1617445258.7126255","7","31","-3","-36","-48","-38","0.560303","-0.155151","-0.812439","-0.043762","0.007634","-0.022901","-0.007634","8.614477","-1.113745","-3.513501","-0.440234","-0.10647","0.094507","0.025122","-0.166284","-0.429468"
"B","1617445258.7025807","7","31","-5","-32","-50","-38","0.560547","-0.155212","-0.812256","-0.043945","0","-0.007634","-0.007634","8.6719","-1.083838","-3.530249","-0.385205","-0.077759","0.072974","0.034692","-0.132788","-0.374438"
"B","1617445258.6925845","7","28","-5","-35","-52","-39","0.560608","-0.155151","-0.812256","-0.044006","-0.007634","0.007634","0","8.76521","-1.051538","-3.535034","-0.293091","-0.046655","0.066992","0.020337","-0.086133","-0.290698"
"B","1617445258.682532","7","32","-5","-35","-52","-38","0.560486","-0.155151","-0.812317","-0.044006","0","0.007634","0","8.821436","-1.058716","-3.550586","-0.235669","-0.053833","0.053833","0.010767","-0.084937","-0.23208"
"B","1617445258.6727855","7","32","-3","-34","-49","-38","0.560242","-0.155212","-0.812439","-0.044067","0.007634","0.007634","0","8.856128","-1.093408","-3.569726","-0.198584","-0.089722","0.039478","0.001196","-0.114844","-0.187817"
"B","1617445258.6626818","7","33","-4","-34","-48","-38","0.560059","-0.155212","-0.812561","-0.044189","0","0.007634","0","8.864502","-1.098193","-3.581689","-0.189014","-0.098096","0.031104","0.003589","-0.123218","-0.175854"
"B","1617445258.6528409","7","32","-5","-36","-50","-36","0.559937","-0.155151","-0.812683","-0.04425","-0.015267","0","0","8.868091","-1.063501","-3.569726","-0.185425","-0.0646","0.046655","0","-0.087329","-0.181836"
"B","1617445258.6425874","7","30","-4","-35","-57","-34","0.559937","-0.154968","-0.812744","-0.044189","-0.015267","-0.007634","0","8.83938","-1.038379","-3.548193","-0.214136","-0.040674","0.068188","-0.003589","-0.0646","-0.217725"
"B","1617445258.6325564","7","34","-1","-34","-49","-38","0.559937","-0.154785","-0.812744","-0.044128","-0.022901","-0.007634","0","8.778369","-1.039575","-3.533838","-0.275146","-0.043066","0.082544","0.002393","-0.075366","-0.279932"
"B","1617445258.6226285","7","33","-3","-35","-24","-44","0.560059","-0.15448","-0.812744","-0.044006","-0.030534","0","0.007634","8.736499","-1.012061","-3.525464","-0.318213","-0.016748","0.088525","0.017944","-0.057422","-0.324194"
"B","1617445258.612641","7","34","-3","-33","-48","-37","0.56012","-0.154053","-0.812805","-0.043823","-0.038168","0.007634","0.007634","8.750854","-0.935498","-3.501538","-0.303857","0.057422","0.111255","0.015552","0.020337","-0.326587"
"B","1617445258.6025348","7","29","-3","-27","-49","-39","0.560059","-0.153503","-0.812927","-0.043518","-0.038168","0.007634","0.015267","8.796313","-0.861328","-3.468042","-0.257202","0.129199","0.145947","-0.008374","0.105273","-0.303857"
"B","1617445258.5927672","7","29","-4","-34","-50","-38","0.559937","-0.153015","-0.813171","-0.043152","-0.022901","0.007634","0.015267","8.828613","-0.850561","-3.457275","-0.224902","0.139966","0.161499","-0.029907","0.12561","-0.281128"
"B","1617445258.5825093","7","32","-4","-37","-48","-38","0.559753","-0.15271","-0.813354","-0.042969","-0.015267","0.015267","0.015267","8.844165","-0.892432","-3.460864","-0.206958","0.096899","0.161499","-0.047852","0.088525","-0.259595"
"B","1617445258.572786","7","33","-4","-33","-49","-38","0.55957","-0.152466","-0.813538","-0.042908","-0.007634","0.015267","0.007634","8.875269","-0.939087","-3.466846","-0.174658","0.047852","0.160303","-0.071777","0.049048","-0.224902"
"B","1617445258.5626023","7","36","-3","-33","-49","-38","0.559265","-0.152222","-0.813782","-0.042847","-0.015267","0.015267","0.007634","8.900391","-0.961816","-3.464453","-0.147144","0.022729","0.168677","-0.095703","0.0323","-0.19978"
"B","1617445258.5526726","7","32","-3","-35","-50","-38","0.559021","-0.151978","-0.813965","-0.042786","-0.015267","0.007634","0","8.889624","-0.98335","-3.47522","-0.155518","0","0.162695","-0.094507","0.007178","-0.203369"
"B","1617445258.5427618","7","31","-5","-33","-49","-37","0.558899","-0.151794","-0.814087","-0.042664","-0.030534","-0.007634","0","8.813062","-0.977368","-3.507519","-0.230884","0.003589","0.133984","-0.043066","-0.00957","-0.263184"
"B","1617445258.5326126","7","32","-3","-38","-53","-38","0.55896","-0.15155","-0.814148","-0.042358","-0.038168","-0.007634","-0.007634","8.749659","-0.933105","-3.532642","-0.295483","0.050244","0.107666","0.014355","0.014355","-0.317017"
"B","1617445258.5226066","7","31","-4","-35","-50","-38","0.559082","-0.151306","-0.814148","-0.04187","-0.038168","-0.007634","-0.015267","8.705396","-0.879272","-3.544605","-0.339746","0.110059","0.094507","0.058618","0.058618","-0.358887"
"B","1617445258.5128458","7","33","-3","-34","-88","-13","0.559265","-0.151184","-0.814087","-0.041321","-0.022901","-0.015267","-0.015267","8.669507","-0.878076","-3.580493","-0.375635","0.119629","0.056226","0.107666","0.05144","-0.379224"
"B","1617445258.502618","7","30","-6","-35","-50","-38","0.559387","-0.151306","-0.813965","-0.040955","-0.007634","-0.007634","-0.022901","8.631226","-0.923535","-3.613989","-0.413916","0.081348","0.019141","0.142358","0","-0.397168"
"B","1617445258.492623","7","33","-3","-33","-50","-38","0.559509","-0.151611","-0.813843","-0.040771","0.007634","-0.007634","-0.030534","8.61687","-0.985742","-3.637915","-0.428271","0.026318","-0.004785","0.151929","-0.062207","-0.395972"
"B","1617445258.4827578","7","31","-6","-36","-52","-39","0.559631","-0.1521","-0.81366","-0.04071","0.015267","0","-0.022901","8.641993","-1.009668","-3.647485","-0.403149","0.008374","-0.017944","0.149536","-0.076563","-0.366064"
"B","1617445258.4725552","7","33","-3","-34","-50","-38","0.55957","-0.152466","-0.813599","-0.04071","0.007634","0.007634","-0.022901","8.712573","-1.022827","-3.625952","-0.331372","0","0.003589","0.104077","-0.065796","-0.30625"
"B","1617445258.462763","7","32","-5","-34","-48","-39","0.559448","-0.152771","-0.81366","-0.040771","0.007634","0.007634","-0.015267","8.793921","-1.041968","-3.605615","-0.250024","-0.016748","0.027515","0.05144","-0.059814","-0.238062"
"B","1617445258.452709","7","32","-3","-35","-50","-38","0.559326","-0.152954","-0.813721","-0.040771","0","0.007634","-0.007634","8.847754","-1.058716","-3.582886","-0.194995","-0.031104","0.052637","0.007178","-0.056226","-0.196191"
"B","1617445258.4433453","7","31","-4","-34","-51","-38","0.559204","-0.152954","-0.813782","-0.040771","-0.015267","0","0","8.862109","-1.05752","-3.573315","-0.179443","-0.031104","0.0646","-0.007178","-0.050244","-0.185425"
"B","1617445258.4327402","7","34","-3","-34","-50","-38","0.559143","-0.152832","-0.813843","-0.040649","-0.022901","-0.007634","0","8.84895","-1.028809","-3.555371","-0.191406","-0.001196","0.08374","-0.011963","-0.019141","-0.206958"
"B","1617445258.4227242","7","32","-4","-34","-51","-38","0.559326","-0.152527","-0.813782","-0.040405","-0.030534","-0.022901","0","8.785547","-0.97019","-3.537427","-0.256006","0.057422","0.098096","0.011963","0.025122","-0.277539"
"B","1617445258.4134498","7","35","-4","-34","-50","-37","0.559692","-0.152283","-0.813599","-0.040039","-0.030534","-0.038168","-0.007634","8.705396","-0.933105","-3.535034","-0.33855","0.098096","0.093311","0.055029","0.045459","-0.356494"
"B","1617445258.402696","7","32","-4","-33","-50","-38","0.560181","-0.1521","-0.813293","-0.039795","-0.022901","-0.038168","-0.007634","8.662329","-0.937891","-3.530249","-0.385205","0.096899","0.087329","0.075366","0.033496","-0.397168"
"B","1617445258.39258","7","32","-4","-35","-52","-38","0.560669","-0.1521","-0.812988","-0.039612","-0.007634","-0.030534","-0.015267","8.64917","-0.945068","-3.514697","-0.401953","0.094507","0.093311","0.07417","0.029907","-0.415112"
"B","1617445258.3826969","7","33","-6","-1","-50","-39","0.561035","-0.152161","-0.812744","-0.03949","0","-0.022901","-0.015267","8.652759","-0.954639","-3.509912","-0.401953","0.088525","0.089722","0.075366","0.022729","-0.41272"
"B","1617445258.372932","7","31","-4","-35","-50","-40","0.56134","-0.152283","-0.8125","-0.03949","0","-0.015267","-0.015267","8.673096","-0.957031","-3.497949","-0.384009","0.088525","0.094507","0.0646","0.027515","-0.398364"
"B","1617445258.3633893","7","32","-3","-36","-49","-39","0.561523","-0.152466","-0.812317","-0.03949","0","-0.007634","-0.015267","8.731714","-0.972583","-3.472827","-0.325391","0.076563","0.11604","0.022729","0.033496","-0.350513"
"B","1617445258.3534756","7","29","-3","-36","-49","-38","0.561646","-0.152588","-0.812256","-0.039429","-0.007634","-0.007634","-0.015267","8.790332","-0.989331","-3.436939","-0.267969","0.062207","0.149536","-0.029907","0.039478","-0.308643"
"B","1617445258.3436625","7","32","-5","-35","-51","-38","0.561707","-0.152649","-0.812195","-0.039307","-0.015267","-0.015267","-0.015267","8.819043","-1.001294","-3.404639","-0.239258","0.052637","0.18064","-0.069385","0.043066","-0.291895"
"B","1617445258.3332996","7","32","-4","-34","-50","-38","0.561829","-0.152649","-0.812134","-0.039062","-0.022901","-0.015267","-0.015267","8.809473","-1.003687","-3.395068","-0.250024","0.055029","0.187817","-0.071777","0.044263","-0.305054"
"B","1617445258.3234854","7","31","-4","-35","-49","-38","0.562012","-0.152588","-0.812012","-0.038757","-0.030534","-0.015267","-0.007634","8.804688","-0.995313","-3.399853","-0.25481","0.068188","0.179443","-0.058618","0.053833","-0.307446"
"B","1617445258.3134098","7","28","-3","-37","-52","-38","0.562256","-0.152466","-0.81189","-0.038391","-0.022901","-0.022901","-0.007634","8.809473","-1.000098","-3.413013","-0.252417","0.068188","0.161499","-0.044263","0.050244","-0.299072"
"B","1617445258.3034785","7","32","-3","-34","-52","-38","0.562439","-0.152405","-0.811768","-0.038086","-0.015267","-0.022901","-0.015267","8.798706","-1.038379","-3.444116","-0.263184","0.034692","0.126807","-0.019141","0.008374","-0.293091"
"B","1617445258.2933712","7","29","-4","-35","-49","-39","0.562683","-0.152405","-0.811646","-0.037842","-0.015267","-0.015267","-0.007634","8.803492","-1.086231","-3.474023","-0.260791","-0.007178","0.092114","-0.001196","-0.038281","-0.272754"
"B","1617445258.2834582","7","31","-6","-35","-50","-38","0.562805","-0.152405","-0.811584","-0.03772","-0.015267","-0.007634","-0.007634","8.847754","-1.107764","-3.488379","-0.216528","-0.026318","0.075366","-0.005981","-0.05144","-0.223706"
"B","1617445257.7437022","7","31","-3","-34","-48","-38","0.556396","-0.158997","-0.814087","-0.0495","0","-0.015267","-0.015267","8.686255","-0.681885","-3.733618","-0.345728","0.261987","-0.047852","0.238062","0.163892","-0.325391"
"B","1617445257.7337337","7","34","-3","-34","-50","-39","0.556641","-0.159241","-0.813843","-0.049377","0.007634","-0.007634","-0.015267","8.692236","-0.758447","-3.715674","-0.340942","0.19021","-0.035889","0.203369","0.100488","-0.318213"
"B","1617445257.723642","7","31","-6","-37","-52","-38","0.556763","-0.159546","-0.813721","-0.049255","0","0","-0.015267","8.74248","-0.840991","-3.676196","-0.290698","0.113647","0","0.130396","0.046655","-0.278735"
"B","1617445257.7136765","7","29","-3","-38","-50","-38","0.556763","-0.159729","-0.81366","-0.049133","-0.007634","0.007634","-0.015267","8.80708","-0.885254","-3.613989","-0.224902","0.07417","0.062207","0.04187","0.039478","-0.236865"
"B","1617445257.703604","7","30","-3","-34","-50","-38","0.556763","-0.15979","-0.813721","-0.04895","-0.022901","0","-0.007634","8.822632","-0.890039","-3.552979","-0.209351","0.072974","0.124414","-0.017944","0.057422","-0.246436"
"B","1617445257.693648","7","32","-19","-10","-48","-38","0.556824","-0.159668","-0.813721","-0.048584","-0.038168","-0.007634","-0.007634","8.804688","-0.870898","-3.495557","-0.227295","0.095703","0.18064","-0.055029","0.089722","-0.285913"
"B","1617445257.6836474","7","32","-4","-35","-49","-38","0.556885","-0.159363","-0.813721","-0.048035","-0.045802","-0.015267","-0.007634","8.750854","-0.845776","-3.476416","-0.279932","0.126807","0.198584","-0.044263","0.112451","-0.344531"
"B","1617445257.6736476","7","32","-5","-37","-52","-38","0.557068","-0.159058","-0.813721","-0.047485","-0.045802","-0.015267","0","8.670703","-0.836206","-3.49436","-0.361279","0.142358","0.178247","0.003589","0.105273","-0.413916"
"B","1617445257.6637104","7","33","-5","-34","-48","-38","0.557251","-0.158691","-0.81366","-0.046936","-0.038168","-0.007634","0","8.618067","-0.832617","-3.525464","-0.413916","0.151929","0.143555","0.055029","0.094507","-0.449805"
"B","1617445257.653595","7","32","-5","-56","-49","-38","0.557312","-0.158386","-0.813721","-0.046448","-0.030534","0.007634","0","8.625244","-0.838599","-3.578101","-0.406738","0.149536","0.090918","0.098096","0.080151","-0.423486"
"B","1617445257.6436913","7","32","-5","-34","-50","-38","0.557251","-0.158142","-0.813843","-0.046082","-0.022901","0.015267","0","8.64917","-0.872095","-3.627148","-0.381616","0.119629","0.044263","0.122021","0.045459","-0.379224"
"B","1617445257.6338034","7","36","-2","-36","-53","-39","0.557068","-0.158081","-0.814026","-0.045776","-0.022901","0.022901","-0.007634","8.680273","-0.910376","-3.654663","-0.349316","0.084937","0.021533","0.122021","0.013159","-0.33855"
"B","1617445257.623761","7","27","-3","-35","-49","-38","0.556824","-0.157959","-0.814209","-0.04541","-0.022901","0.022901","-0.007634","8.714966","-0.935498","-3.658252","-0.311035","0.063403","0.023926","0.100488","0.001196","-0.301465"
"B","1617445257.6137383","7","29","-4","-36","-50","-38","0.55658","-0.157776","-0.814453","-0.044983","-0.038168","0.015267","0","8.744873","-0.957031","-3.657056","-0.278735","0.045459","0.031104","0.077759","-0.005981","-0.272754"
"B","1617445257.603816","7","28","-4","-38","-51","-38","0.556458","-0.15741","-0.814636","-0.044495","-0.045802","0.007634","0","8.735303","-0.966602","-3.648682","-0.285913","0.039478","0.043066","0.068188","-0.010767","-0.282324"
"B","1617445257.5937777","7","31","-3","-36","-54","-38","0.556458","-0.156982","-0.814697","-0.043945","-0.053435","0","0","8.717359","-0.963013","-3.647485","-0.302661","0.046655","0.044263","0.07417","-0.007178","-0.299072"
"B","1617445257.5836196","7","33","-5","-35","-49","-38","0.55658","-0.156555","-0.814758","-0.043274","-0.053435","-0.007634","0","8.6719","-0.985742","-3.651074","-0.34812","0.029907","0.039478","0.088525","-0.033496","-0.337354"
"B","1617445257.5737784","7","31","-5","-32","-52","-38","0.556824","-0.156128","-0.814758","-0.042725","-0.045802","-0.007634","-0.007634","8.647974","-1.027612","-3.667822","-0.374438","-0.004785","0.019141","0.105273","-0.076563","-0.350513"
"B","1617445257.5636694","7","31","-6","-36","-51","-38","0.557007","-0.155823","-0.814697","-0.042175","-0.045802","-0.007634","-0.007634","8.663526","-1.06709","-3.671411","-0.358887","-0.038281","0.013159","0.094507","-0.10647","-0.330176"
"B","1617445257.5543678","7","31","-4","-36","-48","-39","0.55719","-0.155518","-0.814697","-0.041626","-0.038168","0","-0.007634","8.695826","-1.105371","-3.652271","-0.327783","-0.070581","0.028711","0.061011","-0.126807","-0.305054"
"B","1617445257.5444615","7","33","-6","-35","-51","-38","0.557312","-0.155151","-0.814636","-0.041199","-0.045802","0","0","8.720947","-1.143652","-3.629541","-0.302661","-0.10647","0.049048","0.023926","-0.150732","-0.284717"
"B","1617445257.534469","7","32","-5","-34","-50","21","0.557434","-0.154724","-0.814636","-0.04071","-0.045802","-0.007634","0","8.761621","-1.147241","-3.588867","-0.261987","-0.10647","0.087329","-0.022729","-0.133984","-0.261987"
"B","1617445257.524366","7","34","-1","-36","-52","-38","0.557678","-0.154175","-0.814636","-0.040222","-0.061069","-0.015267","0","8.756836","-1.116138","-3.551782","-0.267969","-0.072974","0.120825","-0.040674","-0.095703","-0.283521"
"B","1617445257.5144875","7","33","-5","-35","-52","-38","0.557983","-0.153564","-0.814575","-0.039673","-0.061069","-0.022901","0.007634","8.730517","-1.082642","-3.519482","-0.29668","-0.035889","0.147144","-0.044263","-0.059814","-0.324194"
"B","1617445257.503464","7","29","-6","-39","-52","-38","0.558411","-0.152893","-0.814453","-0.039124","-0.061069","-0.030534","0.007634","8.68147","-1.045557","-3.503931","-0.349316","0.002393","0.154321","-0.021533","-0.0323","-0.379224"
"B","1617445257.4942956","7","32","-3","-36","-52","-38","0.558899","-0.152283","-0.81427","-0.038574","-0.053435","-0.030534","0.007634","8.645581","-1.014453","-3.49436","-0.388794","0.037085","0.154321","0","-0.008374","-0.418701"
"B","1617445257.484274","7","29","-4","-34","-50","-39","0.559387","-0.151672","-0.814026","-0.038025","-0.053435","-0.022901","0.007634","8.637207","-1.02522","-3.501538","-0.400757","0.029907","0.136377","0.016748","-0.021533","-0.42229"
"B","1617445257.4742866","7","33","-5","-36","-51","-37","0.559753","-0.151184","-0.813904","-0.037598","-0.045802","-0.015267","0.007634","8.680273","-1.033594","-3.482398","-0.360083","0.025122","0.14834","-0.007178","-0.014355","-0.388794"
"B","1617445257.4644363","7","35","-3","-35","-50","-38","0.559998","-0.150696","-0.813843","-0.03717","-0.038168","-0.007634","0.007634","8.744873","-1.064697","-3.463257","-0.29668","-0.002393","0.162695","-0.049048","-0.025122","-0.332568"
"B","1617445257.454461","7","33","-3","-36","-48","-38","0.56012","-0.150269","-0.813843","-0.036743","-0.038168","0","0","8.804688","-1.104175","-3.441724","-0.238062","-0.039478","0.181836","-0.096899","-0.044263","-0.282324"
"B","1617445257.4445477","7","32","0","-34","-50","-37","0.560181","-0.149902","-0.813904","-0.036255","-0.038168","0","0","8.858521","-1.131689","-3.421387","-0.184229","-0.063403","0.202173","-0.13877","-0.05144","-0.236865"
"B","1617445257.4345942","7","33","-4","-35","-48","-38","0.560181","-0.149597","-0.813965","-0.035828","-0.038168","-0.007634","-0.007634","8.868091","-1.18313","-3.422583","-0.173462","-0.111255","0.200977","-0.155518","-0.095703","-0.221313"
"B","1617445257.4246082","7","33","-4","-35","-48","-38","0.560242","-0.149292","-0.813965","-0.0354","-0.038168","-0.015267","-0.007634","8.852539","-1.238159","-3.432153","-0.187817","-0.162695","0.19021","-0.155518","-0.149536","-0.224902"
"B","1617445257.4144983","7","32","-5","-35","-50","-38","0.560425","-0.149048","-0.813965","-0.035034","-0.038168","-0.015267","-0.007634","8.825025","-1.27644","-3.429761","-0.217725","-0.197388","0.19021","-0.155518","-0.189014","-0.248828"
"B","1617445257.4043417","7","32","-4","-37","-50","-38","0.560669","-0.148743","-0.813843","-0.034668","-0.038168","-0.022901","-0.007634","8.785547","-1.293188","-3.434546","-0.258398","-0.210547","0.18064","-0.137573","-0.211743","-0.281128"
"B","1617445257.3945763","7","33","-6","-35","-48","-35","0.560913","-0.148376","-0.813782","-0.034302","-0.045802","-0.015267","0","8.778369","-1.2896","-3.434546","-0.267969","-0.204565","0.175854","-0.128003","-0.209351","-0.289502"
"B","1617445257.3844404","7","34","-4","-37","-49","-38","0.561157","-0.147827","-0.813721","-0.033997","-0.045802","-0.015267","0.007634","8.777173","-1.265674","-3.418994","-0.270361","-0.181836","0.186621","-0.130396","-0.186621","-0.297876"
"B","1617445257.3744469","7","31","-3","-37","-48","-39","0.561401","-0.147217","-0.81366","-0.033691","-0.038168","-0.015267","0.007634","8.764013","-1.239355","-3.407031","-0.285913","-0.156714","0.192603","-0.123218","-0.163892","-0.317017"
"B","1617445257.3644605","7","32","-3","-34","-49","-38","0.561523","-0.146667","-0.81366","-0.033447","-0.030534","-0.007634","0.015267","8.749659","-1.229785","-3.41062","-0.301465","-0.14834","0.186621","-0.111255","-0.160303","-0.330176"
"B","1617445257.3545213","7","32","-4","-34","-52","-38","0.561584","-0.146179","-0.813721","-0.033325","-0.022901","0","0.015267","8.773584","-1.233374","-3.424976","-0.277539","-0.155518","0.171069","-0.10647","-0.166284","-0.301465"
"B","1617445257.3445067","7","32","4","-34","-50","-38","0.561584","-0.14563","-0.813843","-0.033325","-0.022901","0","0.015267","8.813062","-1.221411","-3.418994","-0.239258","-0.149536","0.177051","-0.122021","-0.151929","-0.269165"
"B","1617445257.3343985","7","33","-5","-37","-54","-39","0.561462","-0.145203","-0.813965","-0.033264","-0.022901","0","0.007634","8.822632","-1.214233","-3.413013","-0.228491","-0.145947","0.185425","-0.132788","-0.143555","-0.263184"
"B","1617445257.3245842","7","32","-5","-34","-50","-39","0.561401","-0.144836","-0.814148","-0.033203","-0.022901","0","0.007634","8.821436","-1.195093","-3.414209","-0.230884","-0.130396","0.186621","-0.128003","-0.129199","-0.266772"
"B","1617445257.314482","7","33","-3","-37","-53","-38","0.561401","-0.14447","-0.814209","-0.033081","-0.022901","-0.007634","0.007634","8.801099","-1.171167","-3.424976","-0.251221","-0.108862","0.175854","-0.105273","-0.114844","-0.284717"
"B","1617445257.3046577","7","35","-2","-36","-49","-37","0.561462","-0.144104","-0.814209","-0.032959","-0.022901","-0.015267","0","8.778369","-1.166382","-3.430957","-0.27395","-0.10647","0.168677","-0.090918","-0.118433","-0.302661"
"B","1617445257.2946954","7","36","-3","-34","-50","-39","0.561584","-0.14386","-0.814209","-0.032837","-0.015267","-0.015267","0","8.764013","-1.185522","-3.436939","-0.289502","-0.12561","0.160303","-0.08374","-0.142358","-0.312231"
"B","1617445257.2845094","7","31","-5","-35","-49","-38","0.561707","-0.143738","-0.814148","-0.032776","-0.007634","-0.007634","0","8.768799","-1.222607","-3.435742","-0.285913","-0.162695","0.159106","-0.093311","-0.177051","-0.303857"
"B","1617445257.2745757","7","32","-3","-35","-49","-38","0.561768","-0.143677","-0.814087","-0.032837","0","-0.007634","-0.007634","8.783154","-1.269263","-3.424976","-0.272754","-0.210547","0.168677","-0.119629","-0.217725","-0.290698"
"B","1617445257.264432","7","31","-6","-38","-54","-38","0.561768","-0.143677","-0.814087","-0.03302","0.007634","0","-0.007634","8.820239","-1.290796","-3.40105","-0.235669","-0.235669","0.192603","-0.160303","-0.229687","-0.261987"
"B","1617445257.2544153","7","33","-4","-35","-52","-38","0.561707","-0.143738","-0.814087","-0.033203","0.007634","0","-0.007634","8.884839","-1.288403","-3.363965","-0.171069","-0.235669","0.229687","-0.215332","-0.209351","-0.216528"
"B","1617445257.244412","7","31","-4","-34","-52","-39","0.561646","-0.14386","-0.814087","-0.033386","0.007634","-0.007634","-0.007634","8.915942","-1.274048","-3.338843","-0.13877","-0.22251","0.256006","-0.246436","-0.184229","-0.197388"
"B","1617445257.2345874","7","31","-4","-36","-53","-34","0.561646","-0.143982","-0.814087","-0.033569","0.015267","-0.015267","-0.007634","8.917139","-1.256104","-3.320899","-0.13877","-0.205762","0.27395","-0.257202","-0.163892","-0.205762"
"B","1617445257.224643","7","31","-5","-36","-53","-38","0.561707","-0.144226","-0.814026","-0.033813","0.015267","-0.022901","-0.007634","8.888428","-1.244141","-3.30415","-0.168677","-0.194995","0.289502","-0.259595","-0.156714","-0.240454"
