timestamp,user_id,flex_1,flex_2,flex_3,flex_4,flex_5,Qw,Qx,Qy,Qz,GYRx,GYRy,GYRz,ACCx,ACCy,ACCz,ACCx_body,ACCy_body,ACCz_body,ACCx_world,ACCy_world,ACCz_world,Alphabet
1616136033.884221,1,11.0,9.0,-7.0,-7.0,-3.0,0.268066,0.7547,0.01886,0.59845,0.091603,0.022901,0.030534,9.347803,4.82583,-1.942773,0.594556,0.638818,-0.57063,-0.539526,-0.119629,0.882861,bad
1616136033.8942635,1,12.0,10.0,-6.0,-6.0,0.0,0.266846,0.754822,0.019409,0.598816,0.068702,0.030534,0.030534,9.31311,4.821045,-1.928418,0.555078,0.6448,-0.552686,-0.535937,-0.14834,0.848169,bad
1616136033.904003,1,-10.0,8.0,-5.0,-6.0,-4.0,0.26593,0.754761,0.019836,0.599243,0.045802,0.038168,0.030534,9.279614,4.785156,-1.91167,0.517993,0.617285,-0.537134,-0.523975,-0.145947,0.800317,bad
1616136033.9140437,1,12.0,10.0,-3.0,-7.0,-1.0,0.265198,0.754578,0.020081,0.599854,0.022901,0.045802,0.022901,9.253296,4.718164,-1.898511,0.485693,0.559863,-0.529956,-0.509619,-0.111255,0.745288,bad
1616136033.924079,1,12.0,7.0,-7.0,-5.0,-4.0,0.264648,0.75415,0.020203,0.600586,0.015267,0.061069,0.022901,9.234156,4.60332,-1.884155,0.460571,0.453394,-0.527563,-0.485693,-0.031104,0.6771,bad
1616136033.9343412,1,12.0,10.0,-3.0,-6.0,0.0,0.264099,0.753662,0.020264,0.60144,0.007634,0.068702,0.022901,9.213819,4.459765,-1.875781,0.434253,0.319409,-0.533545,-0.460571,0.075366,0.596948,bad
1616136033.944183,1,11.0,9.0,-6.0,-5.0,-2.0,0.263489,0.753113,0.020386,0.602356,0.015267,0.076336,0.022901,9.180323,4.340137,-1.855444,0.393579,0.209351,-0.52876,-0.437842,0.153125,0.512012,bad
1616136033.9539926,1,11.0,7.0,-7.0,-7.0,-5.0,0.262817,0.752502,0.02063,0.603394,0.022901,0.083969,0.022901,9.133667,4.263574,-1.807593,0.339746,0.142358,-0.498853,-0.406738,0.18064,0.430664,bad
1616136033.9641628,1,9.0,9.0,-3.0,-5.0,-3.0,0.262268,0.751831,0.020935,0.604492,0.015267,0.083969,0.015267,9.091797,4.243237,-1.741797,0.290698,0.130396,-0.452197,-0.374438,0.155518,0.374438,bad
1616136033.973945,1,11.0,9.0,-4.0,-5.0,-4.0,0.261902,0.751099,0.021179,0.60553,0.007634,0.083969,0.015267,9.043945,4.243237,-1.662842,0.238062,0.135181,-0.394775,-0.33855,0.111255,0.320605,bad
1616136033.9839945,1,13.0,9.0,-5.0,-5.0,-2.0,0.26178,0.750305,0.021301,0.606628,-0.015267,0.083969,0.015267,8.984131,4.252808,-1.558765,0.172266,0.149536,-0.314624,-0.287109,0.046655,0.257202,bad
1616136033.994203,1,13.0,9.0,-5.0,-7.0,-3.0,0.261902,0.74939,0.021301,0.607666,-0.030534,0.076336,0.007634,8.927905,4.258789,-1.460669,0.111255,0.15791,-0.242847,-0.239258,-0.007178,0.196191,bad
1616136034.0039856,1,11.0,11.0,-6.0,-6.0,-1.0,0.262329,0.748413,0.021179,0.608643,-0.045802,0.076336,0.007634,8.884839,4.242041,-1.375732,0.0646,0.141162,-0.186621,-0.194995,-0.029907,0.13877,bad
1616136034.0141566,1,11.0,5.0,-8.0,-5.0,-3.0,0.262878,0.747437,0.020874,0.60968,-0.061069,0.076336,0.0,8.859716,4.216919,-1.303955,0.034692,0.11604,-0.144751,-0.15791,-0.033496,0.096899,bad
1616136034.024079,1,13.0,11.0,-2.0,-5.0,1.0,0.263611,0.746399,0.020569,0.610657,-0.068702,0.076336,0.0,8.834595,4.216919,-1.228589,0.007178,0.113647,-0.099292,-0.122021,-0.058618,0.0646,bad
1616136034.0340471,1,11.0,10.0,-7.0,-4.0,1.0,0.264465,0.7453,0.020203,0.611633,-0.076336,0.076336,0.0,8.825025,4.219312,-1.168774,-0.004785,0.113647,-0.071777,-0.100488,-0.071777,0.050244,bad
1616136034.044155,1,13.0,9.0,-2.0,-6.0,1.0,0.265503,0.744141,0.019775,0.61261,-0.091603,0.068702,-0.007634,8.808276,4.2229,-1.104175,-0.022729,0.112451,-0.04187,-0.076563,-0.088525,0.031104,bad
1616136034.054178,1,15.0,9.0,-4.0,6.0,1.0,0.266724,0.742981,0.019165,0.613464,-0.10687,0.068702,0.0,8.790332,4.212134,-1.049145,-0.04187,0.096899,-0.020337,-0.057422,-0.089722,0.004785,bad
1616136034.0639763,1,12.0,9.0,-4.0,27.0,-3.0,0.268066,0.741821,0.018311,0.614319,-0.114504,0.053435,0.0,8.787939,4.200171,-0.990527,-0.047852,0.081348,0.002393,-0.033496,-0.087329,-0.008374,bad
1616136034.0740354,1,11.0,9.0,-4.0,-6.0,-1.0,0.269409,0.740723,0.017273,0.615112,-0.122137,0.053435,0.007634,8.791529,4.179834,-0.929517,-0.046655,0.059814,0.031104,0.0,-0.078955,-0.019141,bad
1616136034.084287,1,13.0,8.0,-4.0,-7.0,-3.0,0.270752,0.739685,0.016296,0.615845,-0.122137,0.045802,0.0,8.786743,4.157104,-0.891235,-0.055029,0.034692,0.037085,0.00957,-0.062207,-0.038281,bad
1616136034.094183,1,16.0,8.0,-6.0,-4.0,-3.0,0.271973,0.738708,0.01532,0.616455,-0.114504,0.038168,0.0,8.772388,4.136767,-0.872095,-0.070581,0.013159,0.028711,0.004785,-0.046655,-0.059814,bad
1616136034.1040666,1,10.0,9.0,-5.0,-7.0,-4.0,0.273132,0.737854,0.014404,0.617004,-0.10687,0.030534,0.0,8.768799,4.145142,-0.850561,-0.076563,0.020337,0.023926,-0.002393,-0.053833,-0.062207,bad
1616136034.1140552,1,15.0,10.0,-1.0,-5.0,-4.0,0.274231,0.737122,0.013428,0.617432,-0.10687,0.022901,0.007634,8.791529,4.170264,-0.807495,-0.056226,0.045459,0.045459,0.013159,-0.075366,-0.034692,bad
1616136034.1239984,1,12.0,9.0,-4.0,-7.0,-1.0,0.27533,0.736328,0.012329,0.617859,-0.10687,0.015267,0.022901,8.822632,4.220508,-0.750073,-0.027515,0.096899,0.080151,0.034692,-0.123218,0.008374,bad
1616136034.1341927,1,13.0,6.0,-4.0,-7.0,-4.0,0.276367,0.735596,0.010986,0.618286,-0.114504,0.015267,0.030534,8.846558,4.27793,-0.697437,-0.007178,0.159106,0.111255,0.047852,-0.18064,0.050244,bad
1616136034.1440322,1,12.0,9.0,-7.0,-3.0,0.0,0.277466,0.734863,0.009521,0.618713,-0.122137,0.015267,0.038168,8.856128,4.311426,-0.6448,-0.003589,0.198584,0.141162,0.062207,-0.224902,0.068188,bad
1616136034.1541622,1,9.0,10.0,-3.0,-7.0,-4.0,0.278564,0.734131,0.007996,0.619141,-0.122137,0.007634,0.038168,8.865698,4.32937,-0.584985,0.0,0.223706,0.179443,0.088525,-0.259595,0.078955,bad
1616136034.1639838,1,15.0,9.0,-6.0,-6.0,-1.0,0.279602,0.733337,0.006409,0.619629,-0.122137,0.007634,0.038168,8.883642,4.312622,-0.531152,0.011963,0.215332,0.210547,0.122021,-0.261987,0.08374,bad
1616136034.173933,1,12.0,9.0,-2.0,-7.0,-5.0,0.28064,0.732544,0.004822,0.620056,-0.122137,0.007634,0.038168,8.896802,4.2552,-0.482104,0.020337,0.166284,0.236865,0.162695,-0.228491,0.069385,bad
1616136034.1840432,1,12.0,8.0,-5.0,-5.0,-3.0,0.281494,0.731873,0.003296,0.620483,-0.10687,0.007634,0.038168,8.892016,4.198975,-0.471338,0.008374,0.120825,0.227295,0.166284,-0.191406,0.040674,bad
1616136034.1940558,1,11.0,10.0,-4.0,-4.0,-1.0,0.282227,0.731262,0.001892,0.620911,-0.091603,0.007634,0.038168,8.888428,4.133179,-0.485693,0.0,0.0646,0.194995,0.154321,-0.133984,0.013159,bad
1616136034.2040408,1,12.0,9.0,-4.0,-7.0,-2.0,0.282654,0.730774,0.00061,0.621277,-0.076336,0.007634,0.038168,8.899195,4.070971,-0.514404,0.003589,0.014355,0.153125,0.133984,-0.072974,-0.001196,bad
1616136034.2138357,1,13.0,10.0,-3.0,-4.0,-1.0,0.282837,0.730347,-0.000488,0.621704,-0.053435,0.015267,0.045802,8.906372,4.007568,-0.553882,0.003589,-0.034692,0.100488,0.104077,-0.010767,-0.016748,bad
1616136034.2238986,1,12.0,10.0,-6.0,-4.0,-1.0,0.282654,0.72998,-0.001404,0.622192,-0.038168,0.015267,0.045802,8.896802,3.964502,-0.594556,-0.011963,-0.062207,0.050244,0.0646,0.026318,-0.039478,bad
1616136034.2342567,1,15.0,8.0,-5.0,-7.0,-2.0,0.282288,0.729736,-0.002136,0.622681,-0.015267,0.015267,0.053435,8.875269,3.946558,-0.631641,-0.04187,-0.0646,0.005981,0.017944,0.037085,-0.0646,bad
1616136034.2438707,1,12.0,9.0,-6.0,-6.0,-4.0,0.281738,0.729553,-0.002747,0.623108,-0.007634,0.015267,0.053435,8.833399,3.975269,-0.65437,-0.090918,-0.019141,-0.020337,-0.031104,-0.005981,-0.088525,bad
1616136034.254104,1,15.0,9.0,-5.0,-7.0,-5.0,0.281189,0.729431,-0.003357,0.623474,0.0,0.007634,0.053435,8.791529,4.014746,-0.685474,-0.139966,0.034692,-0.055029,-0.093311,-0.053833,-0.108862,bad
1616136034.2638907,1,11.0,7.0,-4.0,-5.0,-1.0,0.280701,0.729431,-0.004028,0.623718,-0.007634,0.0,0.061069,8.77478,4.059009,-0.679492,-0.163892,0.094507,-0.049048,-0.113647,-0.114844,-0.107666,bad
1616136034.2740223,1,13.0,10.0,-4.0,-4.0,-1.0,0.280273,0.72937,-0.004822,0.623962,-0.022901,-0.007634,0.061069,8.749659,4.100879,-0.683081,-0.196191,0.153125,-0.053833,-0.145947,-0.173462,-0.113647,bad
1616136034.2840016,1,11.0,9.0,-6.0,-5.0,0.0,0.280151,0.72937,-0.005859,0.624023,-0.045802,-0.022901,0.061069,8.71018,4.141553,-0.675903,-0.24165,0.208154,-0.046655,-0.169873,-0.238062,-0.133984,bad
1616136034.2940807,1,13.0,10.0,-4.0,-5.0,-2.0,0.280396,0.72937,-0.00708,0.623901,-0.068702,-0.030534,0.053435,8.662329,4.177442,-0.649585,-0.295483,0.25481,-0.020337,-0.174658,-0.30625,-0.166284,bad
1616136034.3039684,1,12.0,8.0,-5.0,-5.0,-4.0,0.281067,0.729309,-0.008728,0.623657,-0.10687,-0.045802,0.053435,8.634814,4.192993,-0.599341,-0.327783,0.281128,0.027515,-0.149536,-0.358887,-0.189014,bad
1616136034.3139818,1,13.0,8.0,-4.0,-8.0,-2.0,0.282166,0.729126,-0.01062,0.623352,-0.137405,-0.045802,0.045802,8.620459,4.17146,-0.555078,-0.345728,0.267969,0.066992,-0.114844,-0.369653,-0.212939,bad
1616136034.3238902,1,11.0,7.0,-4.0,-7.0,-1.0,0.283752,0.72876,-0.012817,0.622986,-0.175573,-0.045802,0.030534,8.604907,4.124804,-0.515601,-0.364868,0.227295,0.098096,-0.076563,-0.354102,-0.248828,bad
1616136034.3340948,1,13.0,9.0,-6.0,-5.0,0.0,0.285706,0.728271,-0.015137,0.62262,-0.198473,-0.045802,0.022901,8.604907,4.039868,-0.498853,-0.366064,0.145947,0.101685,-0.045459,-0.288306,-0.282324,bad
1616136034.3439484,1,12.0,9.0,-6.0,-5.0,-1.0,0.287842,0.727722,-0.017456,0.622253,-0.206107,-0.038168,0.007634,8.628833,3.91665,-0.516797,-0.344531,0.023926,0.069385,-0.023926,-0.165088,-0.309839,bad
1616136034.353935,1,11.0,8.0,-6.0,-5.0,-3.0,0.290039,0.727112,-0.019592,0.621826,-0.198473,-0.030534,-0.007634,8.682666,3.765918,-0.553882,-0.289502,-0.128003,0.016748,0.0,0.002393,-0.31582,bad
1616136034.364033,1,11.0,10.0,-4.0,-7.0,-1.0,0.292053,0.726501,-0.021484,0.621521,-0.175573,-0.022901,-0.015267,8.77478,3.631934,-0.594556,-0.197388,-0.26438,-0.038281,0.025122,0.169873,-0.283521,bad
1616136034.3740275,1,12.0,9.0,-3.0,-18.0,1.0,0.293823,0.725891,-0.02301,0.621399,-0.152672,0.0,-0.022901,8.878858,3.518286,-0.657959,-0.094507,-0.381616,-0.118433,0.025122,0.337354,-0.230884,bad
1616136034.3839257,1,16.0,8.0,-3.0,-4.0,-1.0,0.295166,0.725281,-0.024048,0.62146,-0.114504,0.022901,-0.030534,8.980542,3.41062,-0.759644,0.005981,-0.491675,-0.236865,-0.010767,0.515601,-0.177051,bad
1616136034.393932,1,11.0,9.0,-4.0,-6.0,-2.0,0.295959,0.72467,-0.024475,0.621704,-0.061069,0.045802,-0.038168,9.082227,3.338843,-0.856543,0.108862,-0.565845,-0.349316,-0.056226,0.661548,-0.107666,bad
1616136034.4039423,1,9.0,9.0,-4.0,-7.0,0.0,0.296326,0.72406,-0.024109,0.622314,-0.015267,0.076336,-0.038168,9.176733,3.325684,-0.940283,0.204565,-0.584985,-0.452197,-0.118433,0.757251,-0.022729,bad
1616136034.414051,1,10.0,9.0,-4.0,-7.0,-4.0,0.296265,0.723206,-0.023132,0.623352,0.022901,0.114504,-0.038168,9.262866,3.381909,-1.000098,0.291895,-0.534741,-0.537134,-0.196191,0.783569,0.077759,bad
1616136034.4238756,1,12.0,7.0,-3.0,-4.0,0.0,0.295898,0.722168,-0.021545,0.624756,0.061069,0.152672,-0.045802,9.353785,3.512305,-1.013257,0.385205,-0.411523,-0.5802,-0.266772,0.732129,0.212939,bad
1616136034.4341028,1,12.0,10.0,-3.0,-5.0,-3.0,0.295471,0.720764,-0.01947,0.626648,0.068702,0.198473,-0.053435,9.423169,3.710889,-0.957031,0.456982,-0.223706,-0.565845,-0.317017,0.594556,0.350513,bad
1616136034.443864,1,14.0,8.0,-2.0,-5.0,-1.0,0.295349,0.718811,-0.017029,0.629028,0.053435,0.236641,-0.061069,9.456665,3.969287,-0.826636,0.495264,0.017944,-0.491675,-0.343335,0.375635,0.476123,bad
1616136034.4538767,1,9.0,8.0,-4.0,-7.0,-2.0,0.295898,0.716248,-0.014465,0.631775,0.015267,0.274809,-0.076336,9.453076,4.259985,-0.629248,0.498853,0.284717,-0.368457,-0.342139,0.104077,0.5802,bad
1616136034.4638617,1,13.0,10.0,-2.0,-7.0,-2.0,0.297363,0.713013,-0.012146,0.634827,-0.045802,0.305344,-0.083969,9.404028,4.580591,-0.385205,0.460571,0.575415,-0.216528,-0.331372,-0.211743,0.657959,bad
1616136034.4739585,1,13.0,8.0,-6.0,-7.0,-1.0,0.299927,0.709106,-0.010315,0.638,-0.129771,0.312977,-0.099237,9.310718,4.879663,-0.122021,0.382812,0.839795,-0.063403,-0.319409,-0.519189,0.695044,bad
1616136034.48395,1,10.0,7.0,-6.0,-7.0,-2.0,0.303589,0.704712,-0.009155,0.641113,-0.21374,0.312977,-0.10687,9.192286,5.02561,0.126807,0.282324,0.946265,0.062207,-0.27395,-0.692651,0.650781,bad
1616136034.4938707,1,13.0,9.0,-8.0,-5.0,-1.0,0.307861,0.700134,-0.008789,0.644104,-0.267176,0.29771,-0.10687,9.028394,4.958618,0.334961,0.136377,0.84458,0.144751,-0.191406,-0.695044,0.480908,bad
1616136034.5039155,1,13.0,8.0,-6.0,-7.0,-3.0,0.312134,0.695801,-0.008911,0.646729,-0.274809,0.259542,-0.099237,8.693433,4.79353,0.443823,-0.18064,0.649585,0.135181,-0.178247,-0.653174,0.114844,bad
1616136034.5138922,1,16.0,9.0,-3.0,-6.0,0.0,0.316284,0.692383,-0.009766,0.648438,-0.274809,0.152672,-0.076336,8.380005,4.715772,0.710596,-0.479712,0.546704,0.307446,-0.033496,-0.765625,-0.187817,bad
1616136034.5238426,1,13.0,10.0,-4.0,-6.0,-3.0,0.320312,0.689819,-0.011414,0.649109,-0.282443,0.038168,-0.045802,8.219702,4.706201,1.120923,-0.628052,0.520386,0.650781,0.25481,-0.961816,-0.313428,bad
1616136034.5340607,1,12.0,9.0,-4.0,-7.0,-3.0,0.324219,0.687927,-0.013916,0.64917,-0.290076,-0.038168,-0.030534,8.199366,4.672705,1.525269,-0.641211,0.477319,1.003687,0.576611,-1.09939,-0.320605,bad
1616136034.5440164,1,12.0,10.0,-6.0,-5.0,-1.0,0.327759,0.686462,-0.016907,0.648804,-0.282443,-0.068702,-0.015267,8.243628,4.565039,1.79563,-0.593359,0.369653,1.238159,0.829028,-1.112549,-0.30625,bad
1616136034.553883,1,15.0,8.0,-4.0,-4.0,-3.0,0.330872,0.685242,-0.019836,0.648438,-0.251908,-0.068702,-0.007634,8.27832,4.456177,1.939185,-0.558667,0.26438,1.35061,0.972583,-1.077856,-0.308643,bad
1616136034.563966,1,12.0,10.0,-6.0,-4.0,-3.0,0.33374,0.684265,-0.022522,0.647888,-0.236641,-0.076336,-0.007634,8.241236,4.431055,1.99541,-0.594556,0.240454,1.38291,0.998901,-1.096997,-0.346924,bad
1616136034.573923,1,13.0,9.0,-10.0,-7.0,-1.0,0.336792,0.683472,-0.025146,0.647095,-0.251908,-0.099237,-0.015267,8.128784,4.572217,1.988232,-0.704614,0.379224,1.356592,0.884058,-1.244141,-0.385205,bad
1616136034.5839477,1,12.0,10.0,-3.0,-4.0,1.0,0.340576,0.6828,-0.028259,0.645691,-0.320611,-0.137405,-0.015267,7.974463,4.959815,2.006177,-0.855347,0.758447,1.360181,0.668726,-1.606616,-0.355298,bad
1616136034.5938776,1,12.0,7.0,-7.0,-7.0,-4.0,0.346069,0.682007,-0.03241,0.643433,-0.450382,-0.198473,-0.030534,7.783057,5.495752,2.080347,-1.037183,1.277637,1.417603,0.410327,-2.112647,-0.287109,bad
1616136034.6037471,1,14.0,8.0,-6.0,-4.0,-4.0,0.354126,0.680786,-0.03833,0.639954,-0.664122,-0.274809,-0.061069,7.574903,6.203955,2.170068,-1.229785,1.958325,1.483398,0.043066,-2.741894,-0.151929,bad
1616136034.613996,1,11.0,9.0,-2.0,-4.0,-1.0,0.365662,0.678894,-0.046692,0.634949,-0.946565,-0.358779,-0.10687,7.397851,6.928906,2.251416,-1.385303,2.643799,1.527661,-0.392383,-3.329273,0.026318,bad
1616136034.6231475,1,12.0,8.0,-4.0,-5.0,1.0,0.38092,0.67572,-0.057861,0.628357,-1.259542,-0.427481,-0.167939,7.291382,7.491162,2.305249,-1.461865,3.158203,1.520483,-0.831421,-3.698926,0.211743,bad
1616136034.634024,1,9.0,8.0,-6.0,-8.0,-3.0,0.399841,0.670898,-0.071899,0.6203,-1.572519,-0.465649,-0.221374,7.171753,7.779468,2.252612,-1.547998,3.395068,1.375732,-1.286011,-3.752759,0.263184,bad
1616136034.6432755,1,9.0,9.0,-3.0,-6.0,-2.0,0.421936,0.664124,-0.088684,0.610718,-1.862595,-0.496183,-0.267176,6.96958,7.743579,2.044458,-1.713086,3.312524,1.043164,-1.737012,-3.458472,0.086133,bad
1616136034.6531978,1,13.0,7.0,-6.0,-7.0,2.0,0.446472,0.655334,-0.107971,0.599548,-2.122137,-0.526718,-0.305344,6.690845,7.352393,1.776489,-1.954736,2.885449,0.623267,-2.026514,-2.88186,-0.336157,bad
1616136034.6639905,1,13.0,9.0,-10.0,-7.0,-1.0,0.472534,0.644653,-0.129578,0.586731,-2.320611,-0.564885,-0.335878,6.392969,6.604712,1.530054,-2.220313,2.123413,0.204565,-2.019336,-2.118628,-0.952246,bad
1616136034.6732094,1,12.0,9.0,-4.0,-6.0,0.0,0.499695,0.631775,-0.153259,0.572388,-2.519084,-0.603053,-0.343511,6.085523,5.733813,1.295581,-2.502637,1.264477,-0.220117,-1.838696,-1.342236,-1.649683,bad
1616136034.6838822,1,13.0,9.0,-8.0,-3.0,-5.0,0.52771,0.616699,-0.178833,0.555969,-2.717557,-0.641221,-0.366412,5.775683,4.965796,1.07666,-2.793335,0.535937,-0.640015,-1.63772,-0.681885,-2.312427,bad
1616136034.6938436,1,12.0,8.0,-3.0,-7.0,-1.0,0.557068,0.598999,-0.206177,0.536926,-2.961832,-0.694656,-0.40458,5.335449,4.355689,0.730933,-3.219214,-0.014355,-1.202271,-1.57312,-0.057422,-3.05293,bad
1616136034.7038033,1,13.0,8.0,-5.0,-6.0,1.0,0.587708,0.57843,-0.235413,0.514282,-3.229008,-0.770992,-0.465649,4.720557,3.718066,0.084937,-3.820947,-0.571826,-2.06958,-1.532446,0.75127,-4.035083,bad
1616136034.7131894,1,14.0,9.0,-4.0,-6.0,3.0,0.619202,0.555176,-0.266541,0.487061,-3.51145,-0.885496,-0.557252,3.861621,3.16897,-0.959424,-4.672705,-1.024023,-3.324487,-1.570728,1.806396,-5.309131,bad
1616136034.7238448,1,12.0,9.0,-5.0,-7.0,-4.0,0.651001,0.529297,-0.299866,0.453918,-3.832061,-1.053435,-0.671756,2.883057,2.826831,-2.503833,-5.651269,-1.258496,-5.049536,-1.616186,3.273047,-6.757837,bad
1616136034.7338295,1,10.0,9.0,-3.0,-6.0,-3.0,0.682129,0.50061,-0.335205,0.414307,-4.10687,-1.21374,-0.78626,2.323193,2.367456,-4.328174,-6.223096,-1.603027,-7.012647,-0.945068,5.059106,-7.997192,bad
1616136034.7439375,1,15.0,10.0,-10.0,-3.0,-4.0,0.711365,0.468384,-0.370483,0.370544,-4.259542,-1.167939,-0.885496,2.90459,1.660449,-5.885742,-5.662036,-2.178442,-8.694629,0.916357,6.536523,-8.295069,bad
1616136034.7538636,1,14.0,10.0,-2.0,-7.0,-3.0,0.739075,0.431763,-0.400696,0.326721,-4.244275,-0.740458,-0.969466,5.337842,0.849365,-6.680078,-3.231177,-2.838794,-9.677979,3.850854,7.092798,-6.854736,bad
1616136034.7638907,1,14.0,7.0,-4.0,-2.0,-3.0,0.767517,0.390076,-0.419983,0.287048,-4.122138,0.129771,-1.045802,8.882446,0.576611,-6.614282,0.369653,-2.928516,-9.974658,6.625049,6.864306,-4.146338,bad
1616136034.7733874,1,10.0,7.0,-5.0,-7.0,-6.0,0.800232,0.34375,-0.422241,0.251099,-4.091603,1.305344,-1.19084,11.724829,2.155713,-6.11543,3.409424,-1.156811,-10.102661,7.64668,7.342822,-1.609009,bad
1616136034.783102,1,13.0,3.0,-4.0,-5.0,-3.0,0.839172,0.292725,-0.404236,0.215942,-4.244275,2.610687,-1.419847,13.81355,5.28042,-5.922827,5.92522,2.17605,-10.839575,8.115625,9.561938,0.019141,bad
1616136034.7933369,1,13.0,5.0,-4.0,-7.0,-6.0,0.881897,0.236267,-0.36676,0.178467,-4.557252,3.793893,-1.694656,15.347193,8.927905,-6.07356,8.180224,6.126196,-12.141138,9.297559,12.857715,0.212939,bad
1616136034.8032668,1,13.0,5.0,-6.0,-28.0,-5.0,0.92395,0.173218,-0.312134,0.137268,-4.885496,4.748092,-1.961832,16.475292,11.583667,-6.773389,10.356275,9.285596,-14.074341,12.035864,15.596021,-1.843481,bad
1616136034.8139484,1,12.0,7.0,-6.0,-4.0,-4.0,0.959656,0.104492,-0.243469,0.09375,-5.038168,5.465649,-2.114504,15.78623,11.1219,-9.027197,11.014234,9.603808,-17.450268,15.109131,14.94165,-8.147924,bad
1616136034.8238804,1,10.0,7.0,-6.0,-8.0,-7.0,0.984619,0.029846,-0.16394,0.052429,-4.900764,5.755725,-1.954198,12.261963,6.139356,-11.705688,9.066675,5.731421,-20.96018,14.581568,8.128784,-16.6021,bad
1616136034.8331332,1,13.0,10.0,-8.0,-6.0,-11.0,0.995422,-0.043579,-0.082031,0.020569,-3.854962,5.10687,-1.343511,5.932397,-0.68667,-11.047729,4.348511,0.196191,-20.676661,7.692139,-1.319507,-19.632299,bad
1616136034.8439877,1,11.0,9.0,-8.0,-7.0,-8.0,0.995544,-0.094055,-0.006348,0.001587,-2.328244,4.396946,-0.633588,-0.069385,-5.70271,-8.208936,-0.19021,-3.866406,-17.834278,0.047852,-7.138257,-16.794703,bad
1616136034.853809,1,13.0,10.0,-11.0,-7.0,-12.0,0.990601,-0.121887,0.060852,-0.006165,-0.954198,3.480916,-0.007634,-5.249316,-9.388476,-3.920239,-4.081738,-7.013843,-13.354175,-5.662036,-9.907666,-10.670898,bad
1616136034.864035,1,16.0,10.0,-12.0,-9.0,-8.0,0.985901,-0.125671,0.110107,-0.005249,0.427481,2.351145,0.473282,-9.055908,-12.096875,1.184326,-6.940869,-9.656446,-8.067774,-8.365649,-11.075244,-3.714478,bad
1616136034.873795,1,11.0,9.0,-12.0,-10.0,-8.0,0.983948,-0.109619,0.140625,0.000122,1.419847,1.21374,0.70229,-11.851636,-11.654248,5.940772,-9.138453,-9.540405,-3.234766,-9.374121,-9.728223,1.557568,bad
1616136034.883124,1,12.0,7.0,-14.0,-8.0,-6.0,0.984863,-0.079285,0.153687,0.007446,1.900763,0.175573,0.740458,-13.89729,-8.250806,9.563135,-10.91853,-6.742285,0.349316,-10.03208,-6.494653,4.683472,bad
1616136034.8932076,1,12.0,7.0,-14.0,-9.0,-6.0,0.987244,-0.044006,0.152222,0.014282,1.877863,-0.633588,0.603053,-14.259766,-3.655859,12.191381,-11.301343,-2.845972,2.883057,-9.79043,-2.737109,6.383399,bad
1616136034.9032571,1,12.0,10.0,-12.0,-7.0,-6.0,0.989929,-0.011902,0.139832,0.01825,1.549618,-1.068702,0.351145,-12.900782,0.508423,14.055201,-10.182813,0.689062,4.640405,-8.521167,0.48689,7.267456,bad
1616136034.9131837,1,9.0,7.0,-11.0,-7.0,-5.0,0.992065,0.012512,0.122986,0.019775,1.015267,-1.114504,0.167939,-10.585962,3.836499,15.488355,-8.199366,3.544605,5.988623,-6.607104,3.073267,7.906274,bad
1616136034.9230814,1,12.0,8.0,-10.0,-7.0,-6.0,0.993652,0.026184,0.107422,0.020508,0.366412,-0.847328,0.061069,-7.584473,5.918042,16.538696,-5.501733,5.36416,6.977954,-4.060205,4.763623,8.27832,bad
1616136034.9329872,1,9.0,9.0,-8.0,-7.0,-6.0,0.99469,0.028503,0.096008,0.021484,-0.244275,-0.465649,0.030534,-4.337744,6.43125,16.669092,-2.477515,5.834302,7.06648,-1.288403,5.327075,7.748364,bad
1616136034.9430857,1,8.0,10.0,-7.0,-7.0,-5.0,0.995483,0.023438,0.088867,0.023315,-0.473282,-0.160305,0.076336,-1.536035,5.167969,15.781446,0.186621,4.669116,6.146533,1.080249,4.405932,6.245825,bad
1616136034.9529886,1,9.0,9.0,-8.0,-7.0,-6.0,0.99585,0.016052,0.08551,0.025818,-0.419847,0.038168,0.129771,0.258398,2.973975,14.097071,1.918848,2.616284,4.44541,2.520581,2.592358,4.147534,bad
1616136034.9629278,1,9.0,10.0,-6.0,-8.0,-6.0,0.99585,0.010376,0.085083,0.028503,-0.183206,0.145038,0.145038,1.10896,0.805103,12.151904,2.763428,0.553882,2.496655,3.111548,0.674707,2.006177,bad
1616136034.9728985,1,12.0,10.0,-6.0,-7.0,-4.0,0.995728,0.00885,0.086426,0.030396,0.091603,0.183206,0.114504,1.327881,-0.643604,10.472315,3.008667,-0.86731,0.820654,3.149829,-0.687866,0.271558,bad
1616136034.9829082,1,11.0,10.0,-5.0,-6.0,-5.0,0.995483,0.011475,0.088806,0.031006,0.29771,0.198473,0.045802,1.101782,-1.095801,9.262866,2.826831,-1.37334,-0.379224,2.790942,-1.18313,-0.90918,bad
1616136034.9930851,1,7.0,6.0,-12.0,-7.0,-16.0,0.995178,0.016541,0.091614,0.030212,0.366412,0.183206,-0.038168,0.714185,-0.77041,8.535522,2.490674,-1.147241,-1.093408,2.308838,-0.957031,-1.569531,bad
1616136035.003023,1,11.0,9.0,-6.0,-5.0,-6.0,0.994873,0.021851,0.094238,0.028259,0.29771,0.160305,-0.114504,0.327783,-0.039478,8.218506,2.152124,-0.516797,-1.397266,1.873389,-0.331372,-1.796826,bad
1616136035.013249,1,11.0,10.0,-6.0,-6.0,-7.0,0.994629,0.025574,0.096436,0.025635,0.152672,0.122137,-0.167939,-0.057422,0.695044,8.173047,1.808789,0.147144,-1.430762,1.48938,0.313428,-1.738208,bad
1616136035.0231557,1,12.0,8.0,-3.0,-4.0,-5.0,0.994568,0.026672,0.097839,0.02301,-0.015267,0.068702,-0.175573,-0.508423,1.216626,8.200562,1.386499,0.651978,-1.397266,1.05752,0.788355,-1.598242,bad
1616136035.033135,1,8.0,10.0,-10.0,-5.0,-5.0,0.994568,0.02533,0.098694,0.020691,-0.152672,0.022901,-0.160305,-0.995313,1.439136,8.234057,0.917554,0.904395,-1.361377,0.596948,1.007275,-1.461865,bad
1616136035.0428224,1,8.0,8.0,-6.0,-5.0,-6.0,0.994629,0.022156,0.099182,0.018799,-0.236641,0.0,-0.145038,-1.429565,1.418799,8.314209,0.495264,0.949854,-1.282422,0.198584,1.020435,-1.307544,bad
1616136035.0530293,1,9.0,8.0,-5.0,-6.0,-6.0,0.99469,0.01825,0.099548,0.017151,-0.251908,0.0,-0.129771,-1.737012,1.241748,8.432642,0.197388,0.851758,-1.165186,-0.063403,0.896021,-1.146045,bad
1616136035.062981,1,11.0,10.0,-6.0,-6.0,-4.0,0.994751,0.014526,0.099976,0.015625,-0.21374,0.007634,-0.122137,-1.975073,0.982153,8.537915,-0.029907,0.667529,-1.061108,-0.259595,0.692651,-1.012061,bad
1616136035.0729954,1,11.0,9.0,-4.0,-7.0,-27.0,0.99469,0.011719,0.100708,0.014038,-0.145038,0.022901,-0.122137,-2.180835,0.741699,8.653955,-0.220117,0.484497,-0.942676,-0.416309,0.49646,-0.866113,bad
1616136035.083043,1,12.0,8.0,-5.0,-4.0,-5.0,0.994629,0.010254,0.101624,0.012207,-0.061069,0.030534,-0.129771,-2.363867,0.624463,8.793921,-0.384009,0.399561,-0.799121,-0.545508,0.403149,-0.695044,bad
1616136035.0932355,1,11.0,9.0,-4.0,-6.0,-6.0,0.994568,0.010071,0.102722,0.010132,0.007634,0.038168,-0.145038,-2.515796,0.642407,8.973364,-0.514404,0.424683,-0.616089,-0.636426,0.423486,-0.488086,bad
1616136035.103066,1,11.0,10.0,-6.0,-6.0,-5.0,0.994507,0.010864,0.10376,0.007812,0.053435,0.038168,-0.145038,-2.616284,0.778784,9.16477,-0.594556,0.550293,-0.421094,-0.675903,0.5479,-0.276343,bad
1616136035.1131487,1,12.0,9.0,-4.0,-5.0,-4.0,0.994385,0.012085,0.104614,0.005554,0.061069,0.022901,-0.137405,-2.680884,1.000098,9.363355,-0.642407,0.752466,-0.217725,-0.679492,0.747681,-0.059814,bad
1616136035.1230595,1,9.0,9.0,-6.0,-4.0,-2.0,0.994324,0.013428,0.105225,0.003601,0.053435,0.015267,-0.122137,-2.703613,1.229785,9.573901,-0.653174,0.96062,-0.004785,-0.643604,0.953442,0.15791,bad
1616136035.132905,1,10.0,8.0,-4.0,-6.0,-5.0,0.994263,0.014465,0.10553,0.002014,0.022901,-0.007634,-0.091603,-2.702417,1.38291,9.746167,-0.645996,1.095801,0.168677,-0.596948,1.085034,0.331372,bad
1616136035.1429632,1,9.0,10.0,-6.0,-1.0,-6.0,0.994263,0.015076,0.105408,0.001099,0.0,-0.030534,-0.053435,-2.679688,1.417603,9.869385,-0.625659,1.120923,0.291895,-0.549097,1.107764,0.449805,bad
1616136035.1531403,1,10.0,9.0,-6.0,-3.0,-3.0,0.994324,0.015503,0.104858,0.000854,0.0,-0.053435,-0.015267,-2.622266,1.357788,9.937573,-0.577808,1.052734,0.35769,-0.488086,1.037183,0.502441,bad
1616136035.163086,1,12.0,8.0,-4.0,-5.0,-6.0,0.994446,0.01593,0.103943,0.00116,0.007634,-0.068702,0.022901,-2.552881,1.253711,9.956714,-0.526367,0.940283,0.373242,-0.436646,0.924731,0.503638,bad
1616136035.1729157,1,12.0,10.0,-6.0,-6.0,-4.0,0.994507,0.016724,0.102844,0.001831,0.030534,-0.076336,0.045802,-2.490674,1.177148,9.954321,-0.485693,0.846973,0.367261,-0.399561,0.830225,0.48689,bad
1616136035.1829233,1,9.0,9.0,-6.0,-4.0,-6.0,0.994629,0.017883,0.101746,0.002502,0.053435,-0.076336,0.045802,-2.442822,1.147241,9.944751,-0.459375,0.79314,0.354102,-0.378027,0.775195,0.467749,bad
1616136035.1928167,1,11.0,8.0,-3.0,-7.0,-6.0,0.99469,0.019348,0.100708,0.002991,0.068702,-0.076336,0.030534,-2.412915,1.156811,9.907666,-0.449805,0.772803,0.313428,-0.379224,0.754858,0.427075,bad
1616136035.2030203,1,10.0,10.0,-5.0,-7.0,-6.0,0.994751,0.020996,0.099792,0.002991,0.076336,-0.068702,-0.007634,-2.433252,1.226196,9.875366,-0.488086,0.809888,0.278735,-0.423486,0.791943,0.403149,bad
1616136035.21294,1,10.0,9.0,-4.0,-1.0,-4.0,0.994812,0.022583,0.098938,0.002319,0.068702,-0.068702,-0.045802,-2.455981,1.332666,9.859815,-0.527563,0.887646,0.261987,-0.465356,0.869702,0.399561,bad
1616136035.2229464,1,11.0,9.0,-7.0,-2.0,-6.0,0.994873,0.023865,0.098022,0.00116,0.045802,-0.076336,-0.083969,-2.442822,1.448706,9.859815,-0.531152,0.980957,0.259595,-0.467749,0.963013,0.404346,bad
1616136035.232986,1,11.0,9.0,-6.0,-4.0,-6.0,0.994934,0.024536,0.096985,-0.000305,0.007634,-0.083969,-0.099237,-2.390186,1.526465,9.889722,-0.497656,1.047949,0.285913,-0.427075,1.030005,0.427075,bad
1616136035.2429578,1,10.0,9.0,-5.0,-7.0,-5.0,0.995056,0.024597,0.095825,-0.001892,-0.030534,-0.083969,-0.10687,-2.305249,1.546802,9.917236,-0.434253,1.069482,0.308643,-0.35769,1.051538,0.436646,bad
1616136035.2531064,1,11.0,9.0,-7.0,-7.0,-6.0,0.995178,0.02417,0.094543,-0.003296,-0.053435,-0.091603,-0.091603,-2.202368,1.497754,9.914844,-0.356494,1.032398,0.301465,-0.281128,1.016846,0.411523,bad
1616136035.2629368,1,8.0,10.0,-5.0,-7.0,1.0,0.9953,0.023499,0.093201,-0.004456,-0.053435,-0.083969,-0.076336,-2.080347,1.400854,9.889722,-0.259595,0.949854,0.271558,-0.191406,0.936694,0.35769,bad
1616136035.2729828,1,10.0,10.0,-4.0,-5.0,-4.0,0.995422,0.022949,0.09198,-0.005432,-0.038168,-0.076336,-0.061069,-1.972681,1.27644,9.838282,-0.174658,0.837402,0.215332,-0.119629,0.826636,0.279932,bad
1616136035.2830966,1,12.0,8.0,-5.0,-4.0,-4.0,0.995544,0.022888,0.090881,-0.006165,-0.007634,-0.068702,-0.045802,-1.891333,1.166382,9.771289,-0.114844,0.729736,0.143555,-0.07417,0.722559,0.193799,bad
1616136035.2928977,1,12.0,8.0,-4.0,-4.0,-4.0,0.995605,0.023376,0.089844,-0.006775,0.030534,-0.061069,-0.038168,-1.824341,1.098193,9.701904,-0.066992,0.653174,0.071777,-0.040674,0.648389,0.111255,bad
1616136035.3030703,1,11.0,10.0,-6.0,-4.0,-4.0,0.995667,0.024475,0.088989,-0.007324,0.061069,-0.053435,-0.030534,-1.802808,1.101782,9.658838,-0.062207,0.636426,0.026318,-0.044263,0.634033,0.066992,bad
1616136035.312807,1,9.0,5.0,-6.0,-4.0,-6.0,0.995667,0.026001,0.088257,-0.007751,0.076336,-0.045802,-0.022901,-1.813574,1.196289,9.644483,-0.086133,0.702222,0.010767,-0.068188,0.701025,0.061011,bad
1616136035.322971,1,13.0,10.0,-3.0,-6.0,-4.0,0.995728,0.02771,0.087585,-0.008179,0.076336,-0.045802,-0.022901,-1.831519,1.330273,9.645679,-0.117236,0.80271,0.010767,-0.095703,0.801514,0.07417,bad
1616136035.333029,1,13.0,8.0,-6.0,-3.0,-5.0,0.995728,0.029175,0.087036,-0.008545,0.053435,-0.045802,-0.022901,-1.865015,1.471436,9.668408,-0.161499,0.916357,0.033496,-0.132788,0.913965,0.112451,bad
1616136035.342886,1,11.0,8.0,-4.0,-5.0,-5.0,0.995728,0.030334,0.086487,-0.00885,0.030534,-0.045802,-0.022901,-1.891333,1.565942,9.688745,-0.197388,0.988135,0.053833,-0.161499,0.984546,0.144751,bad
1616136035.3528006,1,12.0,9.0,-6.0,-6.0,-6.0,0.995728,0.031067,0.085876,-0.009094,0.015267,-0.045802,-0.015267,-1.891333,1.600635,9.682764,-0.209351,1.008472,0.046655,-0.173462,1.004883,0.142358,bad
1616136035.3629048,1,11.0,12.0,-6.0,-6.0,-6.0,0.995789,0.031677,0.085266,-0.009338,0.007634,-0.045802,-0.022901,-1.873389,1.58269,9.65166,-0.203369,0.979761,0.013159,-0.173462,0.978564,0.107666,bad
1616136035.3729038,1,11.0,9.0,-3.0,-1.0,-3.0,0.995789,0.032166,0.084595,-0.009583,0.007634,-0.045802,-0.022901,-1.833911,1.544409,9.633716,-0.175854,0.931909,-0.003589,-0.150732,0.931909,0.08374,bad
1616136043.4422755,1,12.0,9.0,-3.0,57.0,1.0,0.291931,0.682678,0.060852,0.667053,-0.015267,-0.007634,-0.015267,8.670703,4.889234,0.601733,0.093311,0.186621,0.008374,-0.039478,-0.111255,0.171069,bad
1616136043.4524865,1,12.0,9.0,-2.0,-2.0,2.0,0.292175,0.682617,0.060791,0.666992,-0.015267,-0.007634,-0.015267,8.675488,4.873682,0.606519,0.099292,0.168677,0.011963,-0.029907,-0.094507,0.16748,bad
1616136043.4625037,1,15.0,10.0,-3.0,0.0,-2.0,0.292419,0.682495,0.06073,0.666992,-0.015267,0.0,-0.015267,8.674292,4.85813,0.601733,0.099292,0.151929,0.004785,-0.031104,-0.078955,0.159106,bad
1616136043.472328,1,12.0,8.0,-3.0,0.0,-1.0,0.292664,0.682434,0.06073,0.666992,-0.015267,0.0,-0.007634,8.673096,4.852149,0.601733,0.099292,0.143555,0.002393,-0.031104,-0.070581,0.155518,bad
1616136043.482273,1,11.0,10.0,-3.0,2.0,-1.0,0.292908,0.682373,0.060669,0.666931,-0.015267,-0.007634,-0.007634,8.661133,4.8677,0.625659,0.088525,0.156714,0.025122,-0.014355,-0.094507,0.153125,bad
1616136043.493114,1,13.0,10.0,-2.0,1.0,-1.0,0.293213,0.682251,0.060547,0.666931,-0.022901,-0.007634,-0.007634,8.652759,4.898804,0.6448,0.081348,0.185425,0.040674,-0.00957,-0.12561,0.162695,bad
1616136043.5021892,1,11.0,9.0,-3.0,2.0,3.0,0.29364,0.682068,0.060303,0.666931,-0.038168,-0.007634,-0.007634,8.645581,4.928711,0.6771,0.076563,0.214136,0.066992,0.004785,-0.160303,0.173462,bad
1616136043.5121586,1,13.0,11.0,-1.0,-4.0,-1.0,0.294128,0.681885,0.059937,0.666931,-0.045802,-0.007634,-0.007634,8.634814,4.940674,0.717773,0.065796,0.226099,0.101685,0.0323,-0.186621,0.172266,bad
1616136043.5230353,1,15.0,9.0,-14.0,-3.0,-2.0,0.294678,0.681641,0.059509,0.666992,-0.045802,-0.007634,-0.007634,8.612085,4.928711,0.753662,0.044263,0.212939,0.130396,0.061011,-0.194995,0.14834,bad
1616136043.5321827,1,12.0,9.0,-4.0,2.0,-2.0,0.295288,0.681396,0.059082,0.666992,-0.053435,-0.007634,-0.007634,8.589355,4.928711,0.795532,0.022729,0.211743,0.165088,0.090918,-0.215332,0.131592,bad
1616136043.5422602,1,14.0,10.0,-2.0,-2.0,1.0,0.296021,0.681152,0.058533,0.666992,-0.061069,-0.015267,-0.007634,8.567822,4.921533,0.829028,0.002393,0.203369,0.19021,0.114844,-0.226099,0.111255,bad
1616136043.5522082,1,16.0,11.0,-1.0,0.0,-1.0,0.296814,0.680908,0.057983,0.666931,-0.061069,-0.015267,-0.007634,8.575,4.903589,0.852954,0.010767,0.184229,0.206958,0.137573,-0.212939,0.111255,bad
1616136043.5622735,1,13.0,9.0,-4.0,-1.0,0.0,0.297546,0.680725,0.057251,0.66687,-0.068702,-0.015267,-0.007634,8.585767,4.872485,0.863721,0.021533,0.153125,0.210547,0.150732,-0.183032,0.10647,bad
1616136043.572405,1,11.0,9.0,-4.0,-1.0,-3.0,0.298279,0.680542,0.056519,0.666748,-0.068702,-0.022901,0.0,8.592944,4.834204,0.848169,0.028711,0.11604,0.189014,0.143555,-0.142358,0.093311,bad
1616136043.5824502,1,12.0,10.0,-2.0,2.0,-2.0,0.298889,0.680542,0.055664,0.666565,-0.061069,-0.030534,0.0,8.610888,4.776782,0.820654,0.045459,0.062207,0.159106,0.133984,-0.081348,0.080151,bad
1616136043.5923548,1,12.0,10.0,-4.0,0.0,3.0,0.299377,0.680603,0.054871,0.666382,-0.053435,-0.038168,0.0,8.641993,4.697827,0.769214,0.07417,-0.011963,0.107666,0.112451,0.008374,0.065796,bad
1616136043.602215,1,13.0,11.0,-2.0,-2.0,-2.0,0.299683,0.680847,0.054199,0.666077,-0.030534,-0.038168,0.0,8.664721,4.636817,0.705811,0.094507,-0.069385,0.049048,0.077759,0.08374,0.05144,bad
1616136043.61227,1,11.0,9.0,-3.0,0.0,0.0,0.299683,0.681213,0.05365,0.66571,-0.015267,-0.038168,0.007634,8.694629,4.608106,0.647192,0.120825,-0.092114,0.0,0.04187,0.131592,0.061011,bad
1616136043.6223707,1,12.0,10.0,-4.0,4.0,1.0,0.299561,0.68158,0.053223,0.665405,-0.007634,-0.038168,0.007634,8.724536,4.617676,0.599341,0.147144,-0.077759,-0.038281,0.004785,0.144751,0.088525,bad
1616136043.6324253,1,12.0,9.0,-1.0,2.0,-3.0,0.299438,0.681946,0.052856,0.6651,-0.007634,-0.030534,0.007634,8.764013,4.654761,0.549097,0.184229,-0.035889,-0.078955,-0.04187,0.142358,0.13877,bad
1616136043.6421735,1,16.0,10.0,-2.0,-1.0,1.0,0.299316,0.682251,0.05249,0.664856,-0.007634,-0.022901,0.007634,8.79751,4.675097,0.484497,0.214136,-0.010767,-0.136377,-0.100488,0.155518,0.173462,bad
1616136043.6525283,1,11.0,9.0,-2.0,-4.0,0.0,0.299194,0.682556,0.052185,0.664673,-0.007634,-0.022901,0.007634,8.813062,4.693042,0.405542,0.226099,0.00957,-0.208154,-0.172266,0.168677,0.189014,bad
1616136043.6622858,1,13.0,10.0,-3.0,3.0,-4.0,0.299072,0.6828,0.051941,0.66449,-0.007634,-0.015267,0.007634,8.821436,4.715772,0.333765,0.23208,0.035889,-0.27395,-0.242847,0.172266,0.203369,bad
1616136043.6723866,1,13.0,12.0,-2.0,2.0,-4.0,0.299011,0.682983,0.051636,0.664368,-0.015267,-0.015267,0.007634,8.844165,4.750464,0.300269,0.252417,0.075366,-0.303857,-0.281128,0.159106,0.238062,bad
1616136043.682341,1,15.0,10.0,-2.0,0.0,1.0,0.299011,0.683044,0.05127,0.664307,-0.022901,-0.007634,0.007634,8.864502,4.76123,0.275146,0.270361,0.089722,-0.327783,-0.30625,0.163892,0.259595,bad
1616136043.692413,1,12.0,10.0,-4.0,-1.0,-1.0,0.299011,0.683105,0.050903,0.664307,-0.022901,0.0,0.007634,8.880054,4.760034,0.27395,0.283521,0.093311,-0.327783,-0.30625,0.16748,0.272754,bad
1616136043.7022002,1,13.0,7.0,-3.0,-3.0,0.0,0.29895,0.683044,0.050659,0.664429,-0.022901,0.007634,0.007634,8.884839,4.756445,0.275146,0.285913,0.093311,-0.328979,-0.30625,0.168677,0.27395,bad
1616136043.7122712,1,15.0,10.0,-2.0,-39.0,-1.0,0.29895,0.682922,0.050415,0.664551,-0.015267,0.015267,0.007634,8.872876,4.755249,0.288306,0.272754,0.096899,-0.319409,-0.300269,0.156714,0.265576,bad
1616136043.7224293,1,12.0,10.0,-3.0,-4.0,-3.0,0.29895,0.682678,0.050293,0.664795,-0.015267,0.015267,0.007634,8.858521,4.763623,0.319409,0.257202,0.107666,-0.295483,-0.283521,0.132788,0.257202,bad
1616136043.7322628,1,12.0,10.0,-2.0,-3.0,-1.0,0.29895,0.682434,0.05011,0.665039,-0.022901,0.022901,0.007634,8.841772,4.779175,0.35769,0.239258,0.126807,-0.263184,-0.261987,0.096899,0.252417,bad
1616136043.7423365,1,11.0,10.0,-2.0,0.0,-2.0,0.299072,0.682068,0.049805,0.665405,-0.030534,0.022901,0.015267,8.822632,4.787549,0.423486,0.218921,0.13877,-0.208154,-0.216528,0.059814,0.244043,bad
1616136043.752138,1,16.0,10.0,-2.0,-1.0,-3.0,0.299316,0.68158,0.049377,0.665771,-0.045802,0.022901,0.015267,8.79751,4.791138,0.494067,0.192603,0.147144,-0.150732,-0.168677,0.020337,0.228491,bad
1616136043.7623248,1,9.0,10.0,-2.0,1.0,1.0,0.299622,0.68103,0.04895,0.66626,-0.045802,0.030534,0.007634,8.772388,4.776782,0.555078,0.166284,0.137573,-0.105273,-0.12561,0.001196,0.203369,bad
1616136043.7722487,1,15.0,9.0,-3.0,0.0,3.0,0.299988,0.68042,0.048584,0.666748,-0.053435,0.030534,0.007634,8.746069,4.763623,0.601733,0.13877,0.128003,-0.076563,-0.099292,-0.013159,0.177051,bad
1616136043.7821856,1,13.0,9.0,-6.0,2.0,1.0,0.300415,0.67981,0.048157,0.667236,-0.053435,0.038168,0.007634,8.716162,4.749268,0.620874,0.108862,0.11604,-0.07417,-0.096899,-0.017944,0.144751,bad
1616136043.792154,1,13.0,7.0,-2.0,-1.0,0.0,0.300781,0.679199,0.047791,0.667725,-0.045802,0.038168,0.007634,8.70061,4.71936,0.624463,0.093311,0.089722,-0.087329,-0.101685,0.0,0.117236,bad
1616136043.8022025,1,15.0,9.0,-2.0,2.0,-1.0,0.301086,0.678589,0.047424,0.668213,-0.045802,0.038168,0.007634,8.71018,4.684668,0.62207,0.101685,0.058618,-0.10647,-0.108862,0.035889,0.108862,bad
1616136043.8121777,1,13.0,10.0,-2.0,-2.0,1.0,0.301208,0.67804,0.047058,0.668762,-0.038168,0.045802,0.015267,8.712573,4.647583,0.599341,0.101685,0.027515,-0.144751,-0.133984,0.07417,0.090918,bad
1616136043.8221996,1,14.0,9.0,-4.0,-1.0,-1.0,0.301147,0.677429,0.046875,0.669373,-0.022901,0.045802,0.015267,8.711377,4.624854,0.58977,0.099292,0.010767,-0.171069,-0.153125,0.095703,0.078955,bad
1616136043.832347,1,16.0,10.0,-2.0,0.0,1.0,0.300964,0.676819,0.046814,0.670105,-0.007634,0.061069,0.015267,8.697021,4.628442,0.613696,0.08374,0.020337,-0.162695,-0.150732,0.077759,0.069385,bad
1616136043.842213,1,15.0,8.0,-2.0,-4.0,1.0,0.300842,0.676025,0.046997,0.670959,-0.007634,0.068702,0.007634,8.682666,4.669116,0.691455,0.069385,0.0646,-0.10647,-0.114844,0.015552,0.082544,bad
1616136043.852154,1,15.0,10.0,-2.0,0.0,1.0,0.300842,0.674988,0.047241,0.671936,-0.015267,0.083969,0.007634,8.631226,4.739697,0.806299,0.019141,0.136377,-0.017944,-0.061011,-0.095703,0.078955,bad
1616136043.8621252,1,15.0,11.0,-4.0,-1.0,1.0,0.301208,0.673828,0.047424,0.672974,-0.038168,0.076336,0.0,8.559448,4.819849,0.978564,-0.047852,0.215332,0.122021,0.035889,-0.239258,0.069385,bad
1616136043.872244,1,13.0,-9.0,-4.0,0.0,0.0,0.302002,0.672546,0.047424,0.673889,-0.068702,0.068702,-0.007634,8.472119,4.872485,1.147241,-0.129199,0.26438,0.257202,0.137573,-0.363672,0.033496,bad
1616136043.8821046,1,16.0,8.0,-3.0,-2.0,0.0,0.303101,0.671204,0.047119,0.674744,-0.083969,0.053435,-0.015267,8.426661,4.860522,1.326685,-0.169873,0.248828,0.400757,0.27395,-0.418701,0.004785,bad
1616136043.8922038,1,12.0,10.0,-2.0,34.0,1.0,0.30426,0.669983,0.046631,0.675476,-0.091603,0.045802,-0.015267,8.399145,4.810278,1.495361,-0.192603,0.197388,0.535937,0.415112,-0.435449,-0.022729,bad
1616136043.9021363,1,12.0,8.0,-4.0,-5.0,1.0,0.305481,0.668701,0.046143,0.676208,-0.091603,0.038168,-0.022901,8.356079,4.748071,1.652075,-0.229687,0.131592,0.659155,0.549097,-0.442627,-0.071777,bad
1616136043.91218,1,11.0,10.0,-2.0,0.0,-3.0,0.306763,0.667542,0.045654,0.676819,-0.083969,0.030534,-0.022901,8.30105,4.722949,1.789648,-0.278735,0.102881,0.765625,0.65437,-0.480908,-0.114844,bad
1616136043.922273,1,13.0,11.0,-24.0,-2.0,0.0,0.308167,0.666443,0.045166,0.677307,-0.099237,0.015267,-0.030534,8.234057,4.76123,1.900903,-0.339746,0.135181,0.846973,0.712988,-0.567041,-0.142358,bad
1616136043.9324422,1,15.0,10.0,-3.0,-1.0,-3.0,0.309998,0.665466,0.044434,0.67749,-0.129771,-0.007634,-0.038168,8.186206,4.920337,2.010962,-0.379224,0.285913,0.929517,0.730933,-0.73811,-0.093311,bad
1616136043.9421475,1,13.0,10.0,-2.0,0.0,3.0,0.312561,0.664368,0.043274,0.677429,-0.183206,-0.022901,-0.045802,8.177832,5.158399,2.117432,-0.378027,0.513208,1.006079,0.715381,-0.95105,0.026318,bad
1616136043.9520638,1,15.0,10.0,-1.0,-5.0,1.0,0.315979,0.663147,0.041504,0.677185,-0.251908,-0.038168,-0.053435,8.207739,5.384497,2.171265,-0.336157,0.726147,1.02522,0.649585,-1.112549,0.171069,bad
1616136043.96217,1,13.0,10.0,-4.0,-1.0,-3.0,0.320129,0.661743,0.039124,0.676758,-0.305344,-0.045802,-0.061069,8.25918,5.543603,2.160498,-0.272754,0.872095,0.973779,0.540723,-1.18313,0.295483,bad
1616136043.9722383,1,12.0,10.0,-3.0,-1.0,0.0,0.324646,0.660278,0.036316,0.676147,-0.343511,-0.053435,-0.068702,8.324976,5.602221,2.109058,-0.193799,0.91875,0.880469,0.430664,-1.15083,0.38042,bad
1616136043.9823782,1,13.0,9.0,-4.0,2.0,0.0,0.329346,0.658936,0.032959,0.675415,-0.366412,-0.076336,-0.061069,8.339331,5.61897,2.001392,-0.169873,0.92832,0.733325,0.281128,-1.093408,0.391187,bad
1616136043.9921143,1,15.0,10.0,-8.0,0.0,-1.0,0.334106,0.657837,0.029175,0.674316,-0.381679,-0.10687,-0.045802,8.326172,5.66084,1.909277,-0.177051,0.966602,0.607715,0.136377,-1.077856,0.388794,bad
1616136044.0020952,1,12.0,11.0,-4.0,-1.0,0.0,0.338989,0.657043,0.024841,0.672791,-0.40458,-0.152672,-0.030534,8.302246,5.751758,1.898511,-0.196191,1.05752,0.573022,0.049048,-1.144849,0.41272,bad
1616136044.0122595,1,15.0,10.0,-4.0,4.0,0.0,0.344238,0.656372,0.019897,0.670959,-0.450382,-0.19084,-0.022901,8.273535,5.946753,1.983447,-0.223706,1.256104,0.635229,-0.001196,-1.336255,0.494067,bad
1616136044.0223703,1,13.0,9.0,-3.0,-2.0,1.0,0.350342,0.655457,0.014099,0.668823,-0.534351,-0.221374,-0.015267,8.23645,6.308032,2.168872,-0.258398,1.622168,0.794336,-0.052637,-1.69873,0.662744,bad
1616136044.032223,1,13.0,10.0,-4.0,0.0,-1.0,0.357971,0.654053,0.007019,0.66626,-0.671756,-0.251908,-0.022901,8.181421,6.780566,2.405737,-0.309839,2.099487,0.991724,-0.147144,-2.16648,0.87688,bad
1616136044.0421822,1,12.0,11.0,-3.0,-1.0,3.0,0.367615,0.651855,-0.00177,0.663208,-0.854962,-0.282443,-0.030534,8.12041,7.210034,2.628247,-0.364868,2.536133,1.156811,-0.287109,-2.583984,1.06709,bad
1616136044.052253,1,11.0,10.0,-3.0,3.0,-1.0,0.379517,0.648621,-0.012695,0.659546,-1.068702,-0.312977,-0.053435,8.057007,7.529443,2.792139,-0.421094,2.868701,1.241748,-0.48689,-2.877075,1.196289,bad
1616136044.0621307,1,16.0,10.0,-3.0,-1.0,3.0,0.393982,0.644043,-0.02594,0.655151,-1.305344,-0.343511,-0.083969,7.967285,7.73999,2.87229,-0.502441,3.099585,1.21543,-0.772803,-3.032593,1.238159,bad
1616136044.0721395,1,21.0,10.0,-3.0,3.0,2.0,0.411072,0.637939,-0.041565,0.64978,-1.557252,-0.366412,-0.122137,7.866797,7.779468,2.88186,-0.592163,3.167773,1.092212,-1.081445,-3.001489,1.178345,bad
1616136044.082302,1,13.0,9.0,-3.0,-1.0,-1.0,0.430786,0.630005,-0.059753,0.643311,-1.816794,-0.381679,-0.152672,7.742383,7.633521,2.772998,-0.704614,3.067285,0.823047,-1.422388,-2.753857,0.984546,bad
1616136044.0921168,1,12.0,10.0,-2.0,-1.0,-3.0,0.452637,0.620239,-0.080322,0.635498,-2.053435,-0.40458,-0.198473,7.602417,7.247119,2.530151,-0.83501,2.744287,0.397168,-1.716675,-2.244238,0.628052,bad
1616136044.1021948,1,13.0,10.0,-4.0,-3.0,-16.0,0.476074,0.608704,-0.103027,0.626221,-2.244275,-0.427481,-0.229008,7.421777,6.646582,2.171265,-1.009668,2.231079,-0.156714,-1.910474,-1.536035,0.098096,bad
1616136044.1123786,1,15.0,10.0,-2.0,4.0,3.0,0.500549,0.595581,-0.127258,0.615234,-2.396947,-0.458015,-0.274809,7.238745,5.956323,1.798023,-1.191504,1.64729,-0.730933,-1.957129,-0.77041,-0.489282,bad
1616136044.1220627,1,12.0,10.0,-3.0,2.0,1.0,0.525757,0.580811,-0.152771,0.602295,-2.541985,-0.496183,-0.312977,7.010254,5.328271,1.362573,-1.419995,1.146045,-1.366162,-1.988232,-0.020337,-1.112549,bad
1616136044.1321294,1,11.0,8.0,-6.0,0.0,-4.0,0.551453,0.564636,-0.179504,0.587158,-2.679389,-0.541985,-0.351145,6.762622,4.696631,0.884058,-1.674805,0.659155,-2.033691,-1.917651,0.733325,-1.775293,bad
1616136044.1421769,1,13.0,8.0,-2.0,0.0,-1.0,0.577332,0.546936,-0.207214,0.569702,-2.801527,-0.587786,-0.389313,6.499438,4.100879,0.395972,-1.952344,0.224902,-2.697632,-1.751367,1.442725,-2.446411,bad
1616136044.1520307,1,15.0,1.0,-2.0,-1.0,-4.0,0.603149,0.527649,-0.235779,0.549622,-2.923664,-0.641221,-0.435115,6.20874,3.6104,-0.181836,-2.262183,-0.087329,-3.43335,-1.577905,2.152124,-3.1271,bad
1616136044.1620817,1,11.0,10.0,-2.0,-2.0,0.0,0.628601,0.506897,-0.265015,0.526855,-3.030534,-0.694656,-0.48855,5.867798,3.082837,-0.842188,-2.63064,-0.424683,-4.227685,-1.253711,2.867505,-3.893921,bad
1616136044.172126,1,12.0,9.0,-1.0,0.0,-2.0,0.653381,0.48468,-0.294739,0.501221,-3.145038,-0.748092,-0.541985,5.367749,2.747876,-1.622168,-3.167773,-0.563452,-5.114136,-1.009668,3.563745,-4.770801,bad
1616136044.1822278,1,15.0,10.0,-3.0,-1.0,-2.0,0.677551,0.46106,-0.32489,0.471924,-3.282443,-0.839695,-0.610687,4.652368,2.711987,-2.573218,-3.926221,-0.405542,-6.136963,-0.935498,4.328174,-5.797217,bad
1616136044.1920495,1,13.0,7.0,-3.0,4.0,-1.0,0.700867,0.435913,-0.355957,0.43811,-3.465649,-0.961832,-0.694656,3.795825,2.823242,-3.637915,-4.836596,-0.107666,-7.227979,-0.807495,5.175147,-6.940869,bad
1616136044.2020185,1,7.0,9.0,-4.0,0.0,-4.0,0.722839,0.408875,-0.388306,0.399353,-3.671756,-1.122137,-0.778626,2.95603,2.875879,-4.785156,-5.74458,0.122021,-8.35249,-0.326587,6.077148,-8.106054,bad
1616136044.2120657,1,12.0,9.0,-2.0,-1.0,-2.0,0.74231,0.379639,-0.421814,0.356262,-3.824427,-1.244275,-0.839695,2.63064,2.500244,-5.813965,-6.1573,-0.077759,-9.301147,0.971387,6.717163,-8.851343,bad
1616136044.222035,1,17.0,10.0,-3.0,-1.0,-2.0,0.758667,0.347839,-0.454285,0.311523,-3.816794,-1.175573,-0.854962,3.390283,1.414014,-6.607104,-5.488574,-0.98335,-9.99021,3.338843,6.684863,-8.662329,bad
1616136044.2321165,1,13.0,8.0,-2.0,0.0,-3.0,0.772522,0.314209,-0.481628,0.269226,-3.59542,-0.801527,-0.839695,5.450293,-0.047852,-6.82124,-3.499146,-2.263379,-10.13855,6.086719,5.665625,-7.139453,bad
1616136044.24209,1,12.0,8.0,-4.0,-1.0,-4.0,0.786804,0.279907,-0.498596,0.2323,-3.244275,-0.076336,-0.832061,8.510401,-1.104175,-6.451587,-0.452197,-3.149829,-9.843066,8.293872,4.259985,-4.47771,bad
1616136044.2522235,1,12.0,7.0,-3.0,-6.0,0.0,0.805176,0.245728,-0.500977,0.200745,-2.969466,0.931298,-0.89313,11.450879,-0.963013,-5.772095,2.576807,-2.868701,-9.468628,9.413599,3.557764,-1.796826,bad
1616136044.2621982,1,13.0,9.0,-3.0,2.0,-3.0,0.830627,0.211609,-0.485779,0.171204,-2.885496,2.10687,-1.068702,13.612574,0.796728,-5.074658,4.99331,-1.018042,-9.371729,9.72583,4.379614,0.093311,bad
1616136044.2721732,1,13.0,8.0,-4.0,-5.0,-4.0,0.863708,0.176514,-0.450989,0.139465,-3.030534,3.366412,-1.381679,15.200048,3.819751,-4.389184,7.082031,2.063599,-9.591846,10.099072,6.564038,1.142456,bad
1616136044.28207,1,9.0,8.0,-5.0,-1.0,-4.0,0.901367,0.137573,-0.397644,0.102051,-3.419847,4.496183,-1.732824,16.36643,6.168067,-4.768408,9.065478,4.532739,-11.096777,12.321777,8.594141,0.342139,bad
1616136044.2920485,1,13.0,13.0,-3.0,-2.0,-4.0,0.937927,0.093567,-0.328003,0.062561,-3.580153,5.473282,-1.900763,17.072241,5.955127,-5.939575,10.926905,4.636817,-13.458252,15.783838,8.045044,-2.850757,bad
1616136044.3021803,1,12.0,9.0,-3.0,-4.0,-5.0,0.968567,0.042725,-0.243713,0.024719,-3.664122,6.229008,-1.78626,15.054102,3.101978,-8.935083,10.406519,2.40813,-17.534008,17.231348,4.340137,-10.280909,bad
1616136044.3121486,1,12.0,9.0,-3.0,-4.0,-2.0,0.989197,-0.008362,-0.145813,-0.007385,-3.160305,6.59542,-1.48855,10.55127,-1.626953,-11.473608,7.722046,-1.485791,-20.85371,13.379297,-1.969092,-17.71106,bad
1616136044.3221514,1,12.0,10.0,-4.0,-4.0,-3.0,0.997314,-0.052551,-0.038757,-0.031982,-2.374046,6.671756,-1.053435,5.108154,-6.144141,-11.541797,4.317407,-5.140454,-21.256861,5.517285,-7.639502,-20.199341,bad
1616136044.3321862,1,12.0,7.0,-7.0,-4.0,-3.0,0.992798,-0.084045,0.070068,-0.048401,-1.549618,6.21374,-0.51145,-1.445117,-9.569117,-10.312012,-0.160303,-7.866797,-19.876343,-3.747974,-10.882642,-18.011328,bad
1616136044.342307,1,11.0,9.0,-11.0,-7.0,-4.0,0.980652,-0.099915,0.159058,-0.054382,-0.603053,4.656488,0.160305,-6.26018,-11.729614,-6.964795,-3.308936,-9.638501,-16.072144,-9.030787,-11.801392,-11.883936,bad
1616136044.3522477,1,15.0,10.0,-10.0,-7.0,-6.0,0.969482,-0.098877,0.218445,-0.050354,0.229008,2.908397,0.732824,-9.797607,-11.029785,-1.634131,-5.743384,-8.935083,-10.30603,-10.11941,-9.654053,-4.834204,bad
1616136044.362129,1,10.0,10.0,-11.0,-7.0,-13.0,0.964233,-0.083008,0.248413,-0.040527,0.755725,1.229008,0.923664,-12.397143,-6.638208,3.996802,-7.767505,-4.871289,-4.457373,-9.127686,-4.483691,0.699829,bad
1616136044.372197,1,9.0,9.0,-11.0,-5.0,-9.0,0.965332,-0.064209,0.251343,-0.028687,0.526718,-0.458015,0.763359,-14.307617,-1.875781,8.134766,-9.587061,-0.519189,-0.345728,-8.540308,0.288306,4.389184,bad
1616136044.3820438,1,12.0,10.0,-11.0,-6.0,-6.0,0.970886,-0.051941,0.232971,-0.018127,0.366412,-1.687023,0.549618,-15.490747,-0.13877,11.168554,-11.075244,0.931909,2.485889,-8.724536,1.813574,7.089209,bad
1616136044.3922043,1,7.0,9.0,-10.0,-7.0,-6.0,0.978394,-0.042542,0.201965,-0.010925,0.427481,-2.251908,0.358779,-14.472705,0.312231,12.651953,-10.608691,1.171167,3.686963,-8.274732,1.866211,7.451684,bad
1616136044.4021528,1,11.0,9.0,-6.0,-5.0,-5.0,0.985229,-0.033813,0.167603,-0.007385,0.480916,-2.21374,0.145038,-12.476099,0.600537,13.315893,-9.243726,1.277637,4.088916,-7.365552,1.775293,6.809278,bad
1616136044.4120011,1,10.0,9.0,-6.0,-2.0,-5.0,0.990112,-0.025818,0.137573,-0.007202,0.396947,-1.778626,-0.022901,-9.698316,1.113745,13.954712,-7.031787,1.634131,4.538721,-5.513696,2.004981,6.186011,bad
1616136044.4214072,1,11.0,7.0,-4.0,-6.0,-6.0,0.993225,-0.020752,0.113953,-0.007874,0.198473,-1.221374,-0.053435,-6.183618,1.537231,14.399732,-3.968091,1.958325,4.862915,-2.740698,2.228687,5.5448,bad
1616136044.4320788,1,7.0,8.0,-4.0,3.0,-4.0,0.994995,-0.018494,0.097656,-0.007996,0.045802,-0.687023,-0.007634,-2.716773,1.470239,14.040845,-0.814673,1.845874,4.434644,0.086133,2.015747,4.433447,bad
1616136044.4412897,1,9.0,9.0,-6.0,-3.0,-5.0,0.995911,-0.018005,0.087585,-0.006958,0.015267,-0.312977,0.083969,-0.0323,0.699829,12.8625,1.674805,1.062305,3.219214,2.221509,1.143652,2.835205,bad
1616136044.4513004,1,11.0,10.0,-6.0,-5.0,-5.0,0.996399,-0.017456,0.082764,-0.004883,0.091603,-0.053435,0.152672,1.454687,-0.186621,11.25708,3.068481,0.161499,1.597046,3.290991,0.175854,1.062305,bad
1616136044.4613907,1,6.0,8.0,-4.0,-5.0,-3.0,0.99646,-0.015381,0.08197,-0.002502,0.198473,0.122137,0.167939,2.019336,-0.73811,9.713867,3.618774,-0.433057,0.050244,3.575708,-0.458179,-0.527563,bad
1616136044.4712672,1,12.0,7.0,-4.0,-5.0,-6.0,0.996399,-0.011475,0.08374,-0.000549,0.290076,0.206107,0.137405,1.880566,-0.814673,8.452978,3.514697,-0.588574,-1.205859,3.263477,-0.625659,-1.760937,bad
1616136044.481387,1,8.0,9.0,-6.0,-2.0,-6.0,0.996216,-0.006226,0.086609,0.000732,0.320611,0.21374,0.099237,1.366162,-0.458179,7.542603,3.056519,-0.337354,-2.109058,2.647388,-0.362476,-2.599536,bad
1616136044.491346,1,8.0,7.0,-5.0,-4.0,-6.0,0.995972,-0.001038,0.089478,0.001709,0.259542,0.167939,0.076336,0.720166,0.191406,7.059302,2.466748,0.208154,-2.582788,1.965503,0.209351,-2.981152,bad
1616136044.5012095,1,10.0,9.0,-5.0,-2.0,-5.0,0.995728,0.002808,0.091736,0.002869,0.129771,0.114504,0.076336,0.086133,0.927124,7.029395,1.875781,0.866113,-2.604321,1.362573,0.890039,-2.897412,bad
1616136044.511268,1,10.0,7.0,-6.0,0.0,-4.0,0.995605,0.004211,0.093323,0.004211,-0.038168,0.076336,0.076336,-0.508423,1.442725,7.254297,1.311133,1.351807,-2.373437,0.836206,1.381714,-2.562451,bad
1616136044.521297,1,3.0,8.0,-6.0,-2.0,-4.0,0.995422,0.002991,0.094727,0.005676,-0.183206,0.068702,0.061069,-0.978564,1.603027,7.573706,0.868506,1.533643,-2.048047,0.449805,1.552783,-2.162891,bad
1616136044.5312653,1,9.0,8.0,-5.0,0.0,-5.0,0.9953,-0.000183,0.096313,0.006897,-0.259542,0.091603,0.045802,-1.323096,1.440332,7.92063,0.555078,1.430762,-1.696338,0.19978,1.434351,-1.769312,bad
1616136044.5412006,1,9.0,9.0,-4.0,-2.0,-6.0,0.995056,-0.004211,0.098511,0.007874,-0.274809,0.137405,0.022901,-1.580298,1.104175,8.230469,0.340942,1.169971,-1.378125,0.044263,1.1604,-1.425977,bad
1616136044.5513947,1,10.0,9.0,-5.0,-1.0,-6.0,0.994751,-0.008179,0.101501,0.00824,-0.236641,0.19084,-0.007634,-1.7729,0.704614,8.488867,0.206958,0.846973,-1.106567,-0.035889,0.829028,-1.137671,bad
1616136044.5613332,1,10.0,9.0,-5.0,-2.0,-5.0,0.994263,-0.011292,0.105469,0.008118,-0.167939,0.251908,-0.030534,-1.957129,0.350513,8.720947,0.099292,0.552686,-0.856543,-0.092114,0.532349,-0.868506,bad
1616136044.5713413,1,11.0,10.0,-5.0,-2.0,-4.0,0.993774,-0.013123,0.110229,0.007568,-0.083969,0.290076,-0.045802,-2.171265,0.123218,8.915942,-0.021533,0.361279,-0.641211,-0.16748,0.342139,-0.629248,bad
1616136044.581507,1,11.0,10.0,-7.0,-3.0,-3.0,0.993164,-0.01355,0.115479,0.006897,0.0,0.305344,-0.038168,-2.435645,0.031104,9.065478,-0.185425,0.278735,-0.468945,-0.291895,0.263184,-0.419897,bad
1616136044.5914412,1,11.0,10.0,-4.0,-1.0,-5.0,0.992554,-0.012695,0.120605,0.00647,0.061069,0.290076,-0.015267,-2.753857,0.095703,9.174341,-0.405542,0.326587,-0.336157,-0.478516,0.313428,-0.235669,bad
1616136044.601295,1,12.0,9.0,-3.0,-5.0,-5.0,0.992004,-0.010803,0.125244,0.006287,0.10687,0.236641,0.0,-3.116333,0.319409,9.295166,-0.679492,0.513208,-0.193799,-0.712988,0.501245,-0.028711,bad
1616136044.6115198,1,8.0,8.0,-6.0,-3.0,-4.0,0.991577,-0.00824,0.128784,0.006348,0.122137,0.160305,0.015267,-3.454883,0.634033,9.444702,-0.949854,0.777588,-0.027515,-0.935498,0.766821,0.204565,bad
1616136044.6212718,1,9.0,15.0,-6.0,-5.0,-5.0,0.991272,-0.005493,0.131104,0.006714,0.114504,0.076336,0.030534,-3.709692,0.959424,9.620557,-1.161597,1.047949,0.159106,-1.094604,1.03479,0.44502,bad
1616136044.631189,1,10.0,9.0,-6.0,-1.0,-6.0,0.99115,-0.003052,0.132141,0.007385,0.083969,0.007634,0.045802,-3.854443,1.24773,9.822729,-1.286011,1.287207,0.366064,-1.163989,1.271655,0.684277,bad
1616136044.6412168,1,11.0,9.0,-4.0,-2.0,-3.0,0.99115,-0.001221,0.132202,0.008301,0.045802,-0.038168,0.061069,-3.895117,1.428369,10.033277,-1.326685,1.429565,0.575415,-1.153223,1.410425,0.902002,bad
1616136044.651146,1,9.0,9.0,-4.0,-2.0,-6.0,0.991211,0.0,0.131775,0.009399,0.007634,-0.061069,0.061069,-3.850854,1.467847,10.207934,-1.2896,1.442725,0.747681,-1.075464,1.419995,1.061108,bad
1616136044.6613114,1,9.0,8.0,-6.0,-3.0,-3.0,0.991272,0.00061,0.131104,0.010559,-0.015267,-0.061069,0.061069,-3.741992,1.384106,10.323975,-1.193897,1.344629,0.861328,-0.955835,1.319507,1.147241,bad
1616136044.6711586,1,12.0,7.0,-6.0,-1.0,-5.0,0.991333,0.000854,0.130615,0.011658,-0.022901,-0.045802,0.061069,-3.592456,1.227393,10.376612,-1.053931,1.180737,0.911572,-0.807495,1.156811,1.158008,bad
1616136044.6815238,1,11.0,5.0,-4.0,-4.0,-3.0,0.991333,0.001038,0.13031,0.012634,-0.015267,-0.022901,0.053435,-3.444116,1.032398,10.379004,-0.911572,0.979761,0.912769,-0.667529,0.957031,1.122119,bad
1616136044.6910858,1,12.0,10.0,-4.0,-4.0,-6.0,0.991333,0.001343,0.13031,0.013489,0.007634,-0.007634,0.053435,-3.323291,0.848169,10.341919,-0.790747,0.787158,0.875684,-0.557471,0.765625,1.053931,bad
1616136044.701212,1,13.0,8.0,-4.0,-1.0,-3.0,0.991333,0.001953,0.130554,0.014282,0.030534,0.0,0.045802,-3.250317,0.72854,10.267749,-0.712988,0.653174,0.801514,-0.498853,0.631641,0.963013,bad
1616136044.7112622,1,10.0,9.0,-6.0,-2.0,-3.0,0.991272,0.00293,0.130737,0.014893,0.045802,-0.007634,0.038168,-3.237158,0.673511,10.172046,-0.697437,0.577808,0.707007,-0.50603,0.553882,0.868506,bad
1616136044.7214422,1,9.0,10.0,-6.0,-2.0,-3.0,0.991272,0.00415,0.130737,0.015381,0.053435,-0.030534,0.030534,-3.241943,0.687866,10.052417,-0.702222,0.567041,0.587378,-0.541919,0.541919,0.756055,bad
1616136044.7311974,1,12.0,10.0,-3.0,-1.0,-4.0,0.991333,0.005493,0.130188,0.015808,0.061069,-0.061069,0.030534,-3.251514,0.759644,9.938769,-0.722559,0.6125,0.471338,-0.593359,0.584985,0.650781,bad
1616136044.7411172,1,13.0,10.0,-3.0,-3.0,-6.0,0.991455,0.006836,0.129028,0.016174,0.053435,-0.10687,0.022901,-3.257495,0.874487,9.84187,-0.75127,0.699829,0.369653,-0.651978,0.669922,0.56106,bad
1616136044.7512574,1,8.0,8.0,-6.0,2.0,-6.0,0.991638,0.008057,0.127319,0.016418,0.038168,-0.137405,0.015267,-3.22041,1.000098,9.753345,-0.747681,0.801514,0.272754,-0.678296,0.771606,0.467749,bad
1616136044.761248,1,8.0,9.0,-4.0,-4.0,-3.0,0.991943,0.009094,0.125122,0.016602,0.022901,-0.160305,0.007634,-3.137866,1.081445,9.681567,-0.707007,0.863721,0.19021,-0.662744,0.83501,0.378027,bad
1616136044.7714534,1,11.0,9.0,-3.0,-1.0,1.0,0.992249,0.009827,0.12262,0.016724,0.015267,-0.175573,0.0,-3.015845,1.11853,9.618164,-0.634033,0.88645,0.114844,-0.613696,0.861328,0.285913,bad
1616136044.7812586,1,9.0,9.0,-5.0,-4.0,-4.0,0.992554,0.010498,0.120178,0.016785,0.007634,-0.160305,0.0,-2.868701,1.122119,9.541601,-0.533545,0.878076,0.026318,-0.53833,0.857739,0.173462,bad
1616136044.791288,1,9.0,9.0,-3.0,-2.0,-4.0,0.992798,0.011169,0.117859,0.016663,0.015267,-0.145038,-0.015267,-2.717969,1.105371,9.467432,-0.427075,0.849365,-0.056226,-0.453394,0.833813,0.066992,bad
1616136044.8012943,1,9.0,9.0,-5.0,-1.0,-5.0,0.992981,0.011902,0.116028,0.016296,0.030534,-0.114504,-0.022901,-2.585181,1.081445,9.407618,-0.330176,0.81228,-0.124414,-0.373242,0.801514,-0.022729,bad
1616136044.8113692,1,5.0,9.0,-4.0,-2.0,-5.0,0.993164,0.012878,0.114563,0.015747,0.038168,-0.091603,-0.038168,-2.4823,1.089819,9.357373,-0.256006,0.80271,-0.18064,-0.312231,0.796728,-0.093311,bad
1616136044.8211834,1,8.0,10.0,-3.0,7.0,-3.0,0.993286,0.013977,0.113586,0.015137,0.045802,-0.061069,-0.038168,-2.420093,1.136475,9.319092,-0.211743,0.830225,-0.22251,-0.278735,0.827832,-0.142358,bad
1616136044.831245,1,9.0,10.0,-2.0,0.0,-4.0,0.993347,0.015198,0.112915,0.014526,0.045802,-0.045802,-0.038168,-2.402148,1.201074,9.284399,-0.206958,0.872095,-0.259595,-0.281128,0.870898,-0.177051,bad
1616136044.8412464,1,10.0,10.0,-7.0,-4.0,-4.0,0.993408,0.016357,0.112427,0.013977,0.045802,-0.045802,-0.030534,-2.423682,1.283618,9.273633,-0.238062,0.934302,-0.272754,-0.314624,0.933105,-0.178247,bad
1616136044.8514144,1,12.0,9.0,-6.0,-4.0,-5.0,0.993408,0.017456,0.111938,0.013611,0.038168,-0.045802,-0.022901,-2.454785,1.349414,9.279614,-0.278735,0.978564,-0.266772,-0.352905,0.976172,-0.160303,bad
1616136044.861209,1,12.0,10.0,-4.0,-2.0,-4.0,0.993469,0.018433,0.111328,0.013367,0.030534,-0.053435,-0.015267,-2.481103,1.400854,9.301147,-0.317017,1.012061,-0.247632,-0.386401,1.008472,-0.130396,bad
1616136044.8713622,1,11.0,10.0,-6.0,-2.0,-3.0,0.99353,0.019409,0.110657,0.013245,0.030534,-0.061069,-0.007634,-2.4823,1.437939,9.325073,-0.331372,1.031201,-0.226099,-0.394775,1.027612,-0.104077,bad
1616136044.8811634,1,13.0,10.0,-4.0,-1.0,-2.0,0.993652,0.020325,0.109802,0.013184,0.030534,-0.068702,0.0,-2.467944,1.46665,9.365747,-0.333765,1.041968,-0.189014,-0.388794,1.037183,-0.065796,bad
1616136044.891297,1,9.0,9.0,-4.0,2.0,-4.0,0.993713,0.021301,0.108948,0.013184,0.030534,-0.061069,0.0,-2.439233,1.504932,9.415991,-0.321802,1.061108,-0.141162,-0.367261,1.055127,-0.019141,bad
1616136044.901043,1,9.0,10.0,-5.0,-2.0,-4.0,0.993774,0.022217,0.108215,0.013123,0.022901,-0.053435,-0.007634,-2.404541,1.537231,9.465039,-0.301465,1.075464,-0.094507,-0.337354,1.068286,0.022729,bad
1616136044.911224,1,9.0,10.0,-4.0,-2.0,-3.0,0.993774,0.023132,0.107666,0.012939,0.022901,-0.045802,-0.015267,-2.34353,1.56355,9.490161,-0.251221,1.085034,-0.070581,-0.282324,1.077856,0.037085,bad
1616136044.9211924,1,11.0,10.0,-6.0,-6.0,-3.0,0.993835,0.023926,0.107239,0.012695,0.015267,-0.030534,-0.015267,-2.276538,1.559961,9.500928,-0.192603,1.06709,-0.061011,-0.22251,1.062305,0.034692,bad
1616136044.9311807,1,12.0,11.0,-2.0,-1.0,-4.0,0.993835,0.024597,0.106873,0.012512,0.015267,-0.022901,-0.015267,-2.20835,1.530054,9.504517,-0.131592,1.024023,-0.058618,-0.160303,1.020435,0.022729,bad
1616136046.1192725,1,13.0,10.0,-2.0,-4.0,-5.0,0.249207,0.669983,0.056519,0.69696,-0.068702,-0.038168,-0.022901,8.685059,4.610498,1.000098,-0.19021,0.565845,0.061011,-0.098096,-0.587378,0.066992,bad
1616136046.1292815,1,11.0,10.0,-3.0,-2.0,-1.0,0.250244,0.669983,0.055908,0.696594,-0.068702,-0.022901,-0.022901,8.75205,4.533936,0.933105,-0.120825,0.483301,-0.005981,-0.139966,-0.468945,0.089722,bad
1616136046.1395788,1,12.0,7.0,-1.0,-1.0,-1.0,0.250916,0.669922,0.055481,0.696472,-0.045802,-0.007634,-0.015267,8.80708,4.383203,0.863721,-0.0646,0.330176,-0.077759,-0.166284,-0.293091,0.069385,bad
1616136046.1492352,1,13.0,10.0,-2.0,-1.0,0.0,0.251099,0.669922,0.055481,0.696411,-0.007634,0.0,-0.015267,8.83938,4.256396,0.809888,-0.031104,0.200977,-0.131592,-0.181836,-0.153125,0.04187,bad
1616136046.1595385,1,12.0,9.0,-4.0,-4.0,-1.0,0.250854,0.670044,0.055847,0.69635,0.030534,0.007634,-0.007634,8.840576,4.20376,0.781177,-0.028711,0.145947,-0.156714,-0.19021,-0.098096,0.019141,bad
1616136046.1695883,1,11.0,11.0,-2.0,-4.0,-3.0,0.250244,0.670227,0.05658,0.696289,0.061069,0.0,-0.007634,8.834595,4.244433,0.778784,-0.033496,0.184229,-0.151929,-0.196191,-0.133984,0.031104,bad
1616136046.1793437,1,11.0,11.0,-1.0,-4.0,-4.0,0.249634,0.670532,0.057434,0.696167,0.061069,-0.007634,0.0,8.814258,4.350904,0.791943,-0.053833,0.285913,-0.129199,-0.202173,-0.238062,0.057422,bad
1616136046.18935,1,11.0,9.0,-4.0,-7.0,-4.0,0.249023,0.670898,0.058167,0.695984,0.053435,-0.015267,0.007634,8.798706,4.460962,0.79314,-0.068188,0.392383,-0.117236,-0.218921,-0.339746,0.089722,bad
1616136046.1991885,1,11.0,10.0,-3.0,-6.0,-3.0,0.248596,0.671326,0.058655,0.69574,0.038168,-0.022901,0.007634,8.810669,4.565039,0.825439,-0.057422,0.494067,-0.072974,-0.203369,-0.435449,0.145947,bad
1616136046.2095315,1,12.0,9.0,-3.0,-2.0,-3.0,0.248291,0.671631,0.058899,0.695496,0.015267,-0.022901,0.015267,8.829809,4.651172,0.852954,-0.038281,0.579004,-0.035889,-0.189014,-0.509619,0.202173,bad
1616136046.2192953,1,14.0,8.0,-3.0,-5.0,-1.0,0.248169,0.671814,0.058899,0.695374,0.0,-0.015267,0.015267,8.845362,4.695435,0.852954,-0.023926,0.624463,-0.031104,-0.196191,-0.544312,0.234473,bad
1616136046.2293644,1,10.0,9.0,-5.0,-6.0,-6.0,0.248169,0.671814,0.058777,0.695374,-0.015267,-0.007634,0.022901,8.866895,4.699023,0.863721,-0.002393,0.629248,-0.021533,-0.187817,-0.541919,0.256006,bad
1616136046.2393954,1,11.0,9.0,-2.0,-4.0,-3.0,0.248047,0.671692,0.058594,0.695496,-0.015267,0.007634,0.022901,8.901587,4.642798,0.866113,0.029907,0.577808,-0.021533,-0.173462,-0.484497,0.26438,bad
1616136046.2492726,1,11.0,10.0,-2.0,-2.0,-2.0,0.247803,0.671448,0.058472,0.695862,0.0,0.022901,0.022901,8.914746,4.580591,0.858936,0.040674,0.521582,-0.035889,-0.172266,-0.427075,0.248828,bad
1616136046.2593417,1,12.0,10.0,-4.0,-2.0,-1.0,0.247437,0.671204,0.058594,0.696228,0.015267,0.030534,0.022901,8.901587,4.526758,0.843384,0.026318,0.471338,-0.057422,-0.179443,-0.384009,0.212939,bad
1616136046.269356,1,12.0,10.0,-4.0,-1.0,-2.0,0.247009,0.671021,0.058777,0.696533,0.022901,0.022901,0.015267,8.880054,4.506421,0.852954,0.003589,0.45459,-0.052637,-0.171069,-0.38042,0.185425,bad
1616136046.279385,1,11.0,8.0,-3.0,-3.0,-4.0,0.246704,0.670837,0.059021,0.696777,0.015267,0.015267,0.015267,8.854932,4.520776,0.875684,-0.020337,0.470142,-0.033496,-0.156714,-0.409131,0.172266,bad
1616136046.2892618,1,14.0,9.0,-4.0,-4.0,1.0,0.246582,0.670715,0.059082,0.696899,0.0,0.0,0.015267,8.838183,4.555469,0.904395,-0.037085,0.50603,-0.007178,-0.141162,-0.45459,0.174658,bad
1616136046.2991154,1,12.0,10.0,-3.0,28.0,-5.0,0.246643,0.670654,0.05896,0.69696,-0.022901,-0.007634,0.015267,8.838183,4.572217,0.939087,-0.037085,0.523975,0.023926,-0.11604,-0.477319,0.184229,bad
1616136046.309328,1,13.0,9.0,-5.0,-2.0,-5.0,0.246887,0.670654,0.058533,0.69696,-0.038168,-0.015267,0.015267,8.844165,4.566236,0.957031,-0.033496,0.520386,0.040674,-0.099292,-0.477319,0.187817,bad
1616136046.3192515,1,11.0,8.0,-1.0,-4.0,-3.0,0.247131,0.670532,0.057983,0.697021,-0.038168,-0.007634,0.015267,8.857325,4.533936,0.964209,-0.021533,0.492871,0.043066,-0.089722,-0.448608,0.186621,bad
1616136046.3292158,1,12.0,9.0,-3.0,-4.0,-4.0,0.247437,0.67041,0.057434,0.697083,-0.038168,-0.007634,0.015267,8.84895,4.506421,0.961816,-0.031104,0.470142,0.035889,-0.090918,-0.430664,0.168677,bad
1616136046.339082,1,12.0,33.0,-3.0,-6.0,-3.0,0.247681,0.670288,0.057007,0.697144,-0.038168,0.0,0.015267,8.835791,4.48728,0.933105,-0.045459,0.453394,0.003589,-0.118433,-0.413916,0.144751,bad
1616136046.3491728,1,10.0,8.0,-4.0,-6.0,-3.0,0.247925,0.670105,0.056641,0.697266,-0.030534,0.0,0.015267,8.83938,4.488477,0.922339,-0.043066,0.456982,-0.011963,-0.135181,-0.41272,0.147144,bad
1616136046.3592536,1,11.0,8.0,-3.0,-5.0,-3.0,0.248108,0.669861,0.056274,0.697449,-0.038168,0.007634,0.015267,8.84895,4.504028,0.930713,-0.033496,0.476123,-0.010767,-0.13877,-0.424683,0.163892,bad
1616136046.3691266,1,12.0,10.0,-2.0,-3.0,-1.0,0.248352,0.669617,0.055908,0.697632,-0.038168,0.007634,0.015267,8.842969,4.512403,0.936694,-0.040674,0.488086,-0.011963,-0.144751,-0.437842,0.161499,bad
1616136046.3793037,1,11.0,10.0,-2.0,-2.0,-4.0,0.248596,0.669312,0.05542,0.697876,-0.038168,0.015267,0.022901,8.83938,4.511206,0.94148,-0.045459,0.491675,-0.016748,-0.150732,-0.442627,0.15791,bad
1616136046.389143,1,11.0,10.0,-4.0,11.0,17.0,0.24884,0.668945,0.054871,0.698181,-0.045802,0.015267,0.022901,8.834595,4.502832,0.947461,-0.05144,0.489282,-0.021533,-0.155518,-0.441431,0.150732,bad
1616136046.3990912,1,16.0,10.0,-3.0,-4.0,-3.0,0.249023,0.66864,0.054321,0.698425,-0.045802,0.007634,0.022901,8.819043,4.474121,0.946265,-0.068188,0.466553,-0.031104,-0.159106,-0.425879,0.12561,bad
1616136046.4092124,1,13.0,9.0,-6.0,-6.0,-5.0,0.249268,0.668457,0.053711,0.698608,-0.038168,0.0,0.022901,8.798706,4.438232,0.961816,-0.090918,0.436646,-0.022729,-0.143555,-0.411523,0.093311,bad
1616136046.4193754,1,11.0,9.0,-6.0,-5.0,-5.0,0.249451,0.668274,0.053162,0.69873,-0.045802,-0.007634,0.022901,8.786743,4.428662,1.013257,-0.105273,0.433057,0.022729,-0.099292,-0.425879,0.082544,bad
1616136046.429155,1,12.0,10.0,-3.0,-4.0,-1.0,0.249756,0.668091,0.05249,0.698853,-0.053435,-0.007634,0.022901,8.779566,4.428662,1.073071,-0.113647,0.439038,0.076563,-0.050244,-0.448608,0.082544,bad
1616136046.4391563,1,12.0,11.0,-2.0,-4.0,27.0,0.250183,0.667786,0.051697,0.699036,-0.061069,0.0,0.022901,8.773584,4.419092,1.128101,-0.122021,0.435449,0.122021,-0.007178,-0.460571,0.077759,bad
1616136046.4491806,1,13.0,10.0,-2.0,0.0,-4.0,0.250793,0.667358,0.050781,0.699341,-0.076336,0.007634,0.022901,8.756836,4.378418,1.169971,-0.139966,0.400757,0.149536,0.027515,-0.446216,0.050244,bad
1616136046.4591098,1,13.0,10.0,-2.0,-4.0,-3.0,0.251465,0.666809,0.049744,0.699646,-0.083969,0.007634,0.015267,8.72334,4.332959,1.219019,-0.174658,0.363672,0.183032,0.068188,-0.436646,0.007178,bad
1616136046.469179,1,9.0,10.0,-4.0,-5.0,-3.0,0.25238,0.666138,0.048706,0.700073,-0.099237,0.015267,0.015267,8.669507,4.310229,1.242944,-0.229687,0.345728,0.186621,0.075366,-0.44502,-0.047852,bad
1616136046.479265,1,12.0,13.0,-2.0,-5.0,-5.0,0.253418,0.665466,0.047607,0.700378,-0.10687,0.015267,0.007634,8.63003,4.307837,1.282422,-0.267969,0.34812,0.206958,0.092114,-0.468945,-0.078955,bad
1616136046.489262,1,12.0,10.0,-3.0,-5.0,-3.0,0.254761,0.664673,0.046387,0.700745,-0.129771,0.007634,0.0,8.576197,4.338941,1.338647,-0.320605,0.382812,0.240454,0.111255,-0.531152,-0.108862,bad
1616136046.4992511,1,12.0,10.0,-7.0,-4.0,-3.0,0.256531,0.663818,0.045044,0.700989,-0.152672,0.007634,-0.007634,8.509204,4.378418,1.411621,-0.384009,0.421094,0.288306,0.143555,-0.604126,-0.144751,bad
1616136046.5094137,1,13.0,10.0,-2.0,9.0,-4.0,0.258606,0.662903,0.043518,0.701172,-0.175573,0.0,-0.015267,8.446997,4.348511,1.492969,-0.442627,0.38999,0.344531,0.203369,-0.618481,-0.203369,bad
1616136046.5191967,1,13.0,9.0,-4.0,-5.0,0.0,0.260925,0.661926,0.04187,0.701355,-0.183206,-0.007634,-0.022901,8.374023,4.265967,1.585083,-0.510815,0.305054,0.407935,0.285913,-0.594556,-0.290698,bad
1616136046.5291994,1,13.0,9.0,-3.0,-1.0,-1.0,0.263306,0.66095,0.040222,0.701477,-0.183206,-0.007634,-0.038168,8.279516,4.164282,1.697534,-0.599341,0.19978,0.491675,0.394775,-0.567041,-0.400757,bad
1616136046.5392926,1,9.0,11.0,-2.0,-1.0,-3.0,0.265808,0.659912,0.038696,0.701599,-0.183206,-0.007634,-0.045802,8.15271,4.102075,1.855444,-0.720166,0.131592,0.620874,0.535937,-0.601733,-0.520386,bad
1616136046.549127,1,13.0,10.0,-3.0,-4.0,-4.0,0.268677,0.658691,0.037354,0.701721,-0.19084,-0.007634,-0.068702,7.948144,4.091309,2.10188,-0.913965,0.107666,0.833813,0.740503,-0.732129,-0.674707,bad
1616136046.5592818,1,12.0,9.0,-3.0,-3.0,1.0,0.272278,0.657166,0.03595,0.701904,-0.236641,-0.007634,-0.091603,7.645483,4.124804,2.477515,-1.203467,0.122021,1.167578,1.04436,-0.978564,-0.880469,bad
1616136046.5692687,1,13.0,10.0,-3.0,-1.0,-1.0,0.277161,0.655029,0.034302,0.702026,-0.305344,-0.007634,-0.137405,7.25669,4.124804,2.951245,-1.569531,0.093311,1.583887,1.435547,-1.258496,-1.154419,bad
1616136046.579295,1,12.0,9.0,-2.0,-2.0,1.0,0.283447,0.652344,0.032166,0.702148,-0.389313,-0.015267,-0.19084,6.835596,3.984839,3.49436,-1.96311,-0.081348,2.055225,1.924829,-1.461865,-1.494165,bad
1616136046.5891848,1,13.0,8.0,14.0,-7.0,-3.0,0.29126,0.64917,0.029785,0.701965,-0.458015,-0.030534,-0.259542,6.377417,3.737207,4.054224,-2.383008,-0.378027,2.531348,2.460767,-1.604224,-1.896118,bad
1616136046.599224,1,13.0,10.0,-1.0,-1.0,9.0,0.300537,0.645691,0.027344,0.701355,-0.51145,-0.061069,-0.343511,5.831909,3.460864,4.587769,-2.88186,-0.717773,2.973975,2.977563,-1.769312,-2.379419,bad
1616136046.6091063,1,13.0,10.0,-3.0,-5.0,-5.0,0.311707,0.642212,0.025146,0.699768,-0.572519,-0.10687,-0.450382,5.205054,3.235962,5.053125,-3.448901,-1.032398,3.349609,3.413013,-2.008569,-2.912964,bad
1616136046.619081,1,13.0,10.0,-3.0,-4.0,-3.0,0.324951,0.638855,0.023193,0.696899,-0.641221,-0.175573,-0.572519,4.624854,3.121118,5.468237,-3.952539,-1.264477,3.678589,3.756348,-2.319604,-3.353198,bad
1616136046.6292462,1,10.0,10.0,-2.0,-5.0,-1.0,0.340576,0.635498,0.021362,0.692505,-0.725191,-0.244275,-0.70229,4.123609,3.117529,5.841479,-4.359277,-1.414014,3.966895,4.00398,-2.689258,-3.667822,bad
1616136046.6392865,1,12.0,9.0,-3.0,-2.0,-2.0,0.358826,0.63208,0.019653,0.686523,-0.832061,-0.305344,-0.854962,3.709692,3.310132,6.164477,-4.657153,-1.399658,4.202563,4.09729,-3.164185,-3.806592,bad
1616136046.6491284,1,11.0,10.0,-3.0,-3.0,-1.0,0.380005,0.628235,0.018066,0.678589,-0.954198,-0.358779,-1.022901,3.432153,3.585278,6.352295,-4.788745,-1.333862,4.294678,4.002783,-3.575708,-3.785058,bad
1616136046.659332,1,13.0,9.0,-3.0,-4.0,-3.0,0.403687,0.623962,0.016846,0.668823,-1.030534,-0.396947,-1.183206,3.286206,3.661841,6.370239,-4.758838,-1.495361,4.207349,3.846069,-3.686963,-3.764722,bad
1616136046.669276,1,9.0,11.0,-4.0,0.0,-1.0,0.42926,0.619446,0.016357,0.656982,-1.068702,-0.435115,-1.366412,3.14624,3.775488,6.187207,-4.691846,-1.646094,3.914258,3.496753,-3.700122,-3.755151,bad
1616136046.679154,1,13.0,10.0,-3.0,-4.0,-2.0,0.456909,0.615173,0.017639,0.642151,-1.083969,-0.503817,-1.59542,2.911767,4.221704,5.688354,-4.672705,-1.50852,3.312524,2.707202,-3.752759,-3.695337,bad
1616136046.6892052,1,12.0,10.0,-5.0,-2.0,-3.0,0.487061,0.611328,0.021301,0.623291,-1.099237,-0.580153,-1.885496,2.733521,5.161987,5.024414,-4.530347,-0.933105,2.558862,1.538428,-3.834106,-3.29458,bad
1616136046.699046,1,11.0,11.0,-2.0,2.0,-3.0,0.520142,0.6073,0.027161,0.599854,-1.160305,-0.664122,-2.19084,2.740698,6.517383,4.237256,-4.122412,0.005981,1.680786,0.118433,-3.718066,-2.444019,bad
1616136046.7091177,1,11.0,7.0,-6.0,-4.0,-3.0,0.555969,0.602661,0.03479,0.571289,-1.267176,-0.755725,-2.503817,2.88186,8.207739,3.247925,-3.487183,1.250122,0.590967,-1.513306,-3.207251,-1.217822,bad
1616136046.719061,1,12.0,10.0,-2.0,-3.0,1.0,0.594055,0.596985,0.042908,0.537415,-1.412214,-0.885496,-2.770992,3.189307,10.046435,2.141357,-2.59834,2.642602,-0.636426,-3.080444,-2.136572,0.279932,bad
1616136046.729186,1,11.0,10.0,-3.0,-3.0,-3.0,0.633362,0.589478,0.049988,0.498718,-1.603053,-1.030534,-2.938931,3.604419,12.041845,1.116138,-1.536035,4.234863,-1.821948,-4.376025,-0.606519,2.020532,bad
1616136046.7390666,1,10.0,10.0,-2.0,-5.0,-3.0,0.673157,0.579468,0.054382,0.456116,-1.847328,-1.19084,-3.0,4.105664,14.040845,0.259595,-0.356494,5.908472,-2.899805,-5.20625,1.357788,3.804199,bad
1616136046.749112,1,13.0,10.0,-3.0,-4.0,-4.0,0.712585,0.565918,0.054138,0.411011,-2.137405,-1.374046,-2.954198,4.578198,15.514673,-0.388794,0.775195,7.174146,-3.852051,-5.342627,3.59126,5.043555,bad
1616136046.759173,1,11.0,10.0,-1.0,1.0,-1.0,0.751099,0.548096,0.048767,0.364685,-2.442748,-1.519084,-2.839695,4.696631,16.597315,-0.913965,1.496558,8.179029,-4.777978,-5.212232,5.751758,5.62854,bad
1616136046.769098,1,8.0,10.0,-5.0,-2.0,-3.0,0.788147,0.525391,0.039612,0.318054,-2.725191,-1.580153,-2.709924,4.661939,17.394043,-1.142456,1.997803,9.030787,-5.500537,-4.745679,7.718457,5.803198,bad
1616136046.779308,1,15.0,10.0,-1.0,-1.0,-3.0,0.822876,0.497742,0.02832,0.272583,-2.908397,-1.51145,-2.564885,4.586572,17.979029,-1.035986,2.383008,9.798803,-5.963501,-3.989624,9.415991,5.714673,bad
1616136046.7890792,1,11.0,9.0,-1.0,-5.0,-1.0,0.854004,0.466614,0.017212,0.22937,-2.938931,-1.343511,-2.419847,4.494458,17.937159,-0.576611,2.684473,10.048828,-6.102271,-2.860327,10.524951,5.14165,bad
1616136046.7982905,1,12.0,10.0,-4.0,-5.0,-1.0,0.881226,0.432922,0.007385,0.189209,-2.89313,-1.137405,-2.259542,4.464551,17.331837,0.294287,2.985938,9.826319,-5.829516,-1.472632,10.883838,4.331763,bad
1616136046.8091557,1,13.0,10.0,-1.0,2.0,-1.0,0.904846,0.397278,-0.000732,0.15271,-2.847328,-0.916031,-2.076336,4.521973,16.43462,1.342236,3.319702,9.390869,-5.362964,-0.078955,10.759424,3.485986,bad
1616136046.819222,1,11.0,11.0,-4.0,0.0,1.0,0.92511,0.359985,-0.007263,0.119995,-2.824427,-0.709924,-1.877863,4.483691,15.457251,2.384204,3.505127,8.945849,-4.872485,1.014453,10.381396,2.683276,bad
1616136046.828308,1,9.0,9.0,-2.0,-3.0,-2.0,0.942383,0.321655,-0.012268,0.090698,-2.801527,-0.572519,-1.679389,4.172656,14.629419,3.313721,3.373535,8.708984,-4.453784,1.601831,10.02251,2.003784,bad
1616136046.8384688,1,15.0,11.0,-2.0,-1.0,-3.0,0.956848,0.282776,-0.017395,0.064453,-2.778626,-0.572519,-1.465649,3.573315,13.605395,4.026709,2.889038,8.323779,-4.198975,1.740601,9.532031,1.161597,bad
1616136046.8491292,1,15.0,10.0,-4.0,-2.0,-4.0,0.968567,0.243958,-0.024231,0.041199,-2.687023,-0.679389,-1.206107,2.550488,12.123194,4.481299,1.892529,7.510303,-4.13916,1.306348,8.682666,0.019141,bad
1616136046.8584037,1,10.0,10.0,-1.0,-4.0,-4.0,0.9776,0.206665,-0.033508,0.021057,-2.480916,-0.847328,-0.969466,1.391284,10.332349,4.913159,0.662744,6.385791,-4.026709,0.537134,7.485181,-1.052734,bad
1616136046.869233,1,13.0,11.0,-1.0,0.0,-3.0,0.983948,0.172302,-0.045898,0.003601,-2.19084,-1.030534,-0.770992,0.488086,8.360865,5.519678,-0.409131,5.041162,-3.655859,-0.196191,5.985034,-1.752563,bad
1616136046.8785064,1,11.0,9.0,-1.0,-3.0,-5.0,0.987854,0.142273,-0.061157,-0.011353,-1.832061,-1.183206,-0.625954,-0.04187,6.442017,6.281714,-1.193897,3.672607,-3.046948,-0.787158,4.421484,-2.002588,bad
1616136046.8886914,1,12.0,13.0,-1.0,-3.0,-1.0,0.989624,0.117615,-0.07843,-0.024231,-1.435115,-1.274809,-0.519084,-0.312231,4.801904,7.02461,-1.776489,2.4823,-2.381812,-1.295581,3.073267,-1.964307,bad
1616136046.8985517,1,10.0,12.0,-2.0,-2.0,-1.0,0.989685,0.098999,-0.096802,-0.035217,-1.030534,-1.312977,-0.435115,-0.354102,3.502734,7.674194,-2.162891,1.514502,-1.747778,-1.692749,2.002588,-1.771704,bad
1616136046.9091363,1,15.0,10.0,-10.0,0.0,1.0,0.988464,0.086426,-0.115906,-0.04425,-0.648855,-1.335878,-0.351145,-0.204565,2.708398,8.196973,-2.374634,0.933105,-1.191504,-1.955933,1.361377,-1.497754,bad
1616136046.9184968,1,12.0,11.0,-1.0,-2.0,-2.0,0.986206,0.079407,-0.135742,-0.051575,-0.335878,-1.351145,-0.282443,0.059814,2.463159,8.591748,-2.483496,0.790747,-0.722559,-2.115039,1.185522,-1.196289,bad
1616136046.9284651,1,15.0,11.0,-1.0,-1.0,-3.0,0.983032,0.07666,-0.156189,-0.05719,-0.10687,-1.374046,-0.206107,0.411523,2.622266,8.845362,-2.511011,0.968994,-0.360083,-2.171265,1.34104,-0.923535,bad
1616136046.93861,1,10.0,10.0,-1.0,-7.0,52.0,0.979248,0.076843,-0.177063,-0.06134,0.045802,-1.374046,-0.137405,0.825439,3.036182,8.941065,-2.479907,1.348218,-0.128003,-2.13418,1.703516,-0.722559,bad
1616136046.9484203,1,12.0,10.0,-4.0,0.0,-3.0,0.974854,0.078857,-0.198059,-0.064392,0.137405,-1.366412,-0.083969,1.165186,3.545801,8.783154,-2.519385,1.788452,-0.124414,-2.081543,2.161694,-0.739307,bad
1616136046.9582586,1,12.0,10.0,-2.0,-2.0,-1.0,0.969971,0.081787,-0.218933,-0.06665,0.19084,-1.366412,-0.045802,1.445117,3.969287,8.38479,-2.609107,2.128198,-0.343335,-1.987036,2.555274,-0.984546,bad
1616136046.968576,1,13.0,10.0,-4.0,-1.0,-4.0,0.9646,0.085205,-0.239929,-0.068481,0.21374,-1.374046,-0.022901,1.65686,4.300659,7.833301,-2.764624,2.367456,-0.695044,-1.873389,2.879468,-1.385303,bad
1616136046.9784472,1,9.0,11.0,-3.0,0.0,-3.0,0.958618,0.088562,-0.261353,-0.069824,0.221374,-1.40458,0.007634,1.876978,4.462158,7.207642,-2.911767,2.44043,-1.09939,-1.707104,3.049341,-1.850659,bad
1616136046.9883685,1,12.0,11.0,-1.0,-2.0,-1.0,0.951965,0.091675,-0.283325,-0.070801,0.221374,-1.442748,0.038168,2.082739,4.472925,6.475513,-3.075659,2.368652,-1.585083,-1.478613,3.091211,-2.414111,bad
1616136046.998637,1,11.0,10.0,-2.0,0.0,-3.0,0.94458,0.094238,-0.306213,-0.071228,0.221374,-1.496183,0.076336,2.393775,4.334155,5.746973,-3.142651,2.161694,-2.039673,-1.147241,2.97876,-2.916553,bad
1616136047.0083375,1,13.0,10.0,-3.0,-1.0,0.0,0.936401,0.09613,-0.329834,-0.070862,0.21374,-1.534351,0.129771,2.819653,4.014746,5.012451,-3.099585,1.792041,-2.472729,-0.708203,2.677295,-3.354394,bad
1616136047.0182316,1,12.0,9.0,-1.0,3.0,-5.0,0.927612,0.097168,-0.353943,-0.069397,0.206107,-1.541985,0.198473,3.277832,3.538623,4.153516,-3.024219,1.2896,-3.005078,-0.145947,2.244238,-3.843677,bad
1616136047.028452,1,12.0,11.0,-1.0,2.0,0.0,0.918152,0.097351,-0.378296,-0.066589,0.206107,-1.541985,0.290076,3.708496,2.9656,3.148633,-2.971582,0.71897,-3.660645,0.529956,1.750171,-4.40354,bad
1616136047.03823,1,16.0,10.0,-2.0,-1.0,-3.0,0.907959,0.096863,-0.402832,-0.062195,0.221374,-1.534351,0.374046,4.309033,2.318408,2.141357,-2.740698,0.102881,-4.292285,1.364966,1.162793,-4.766016,bad
1616136047.0482647,1,12.0,11.0,-4.0,0.0,-4.0,0.8974,0.095764,-0.427063,-0.056091,0.244275,-1.465649,0.465649,5.108154,1.733423,1.282422,-2.298071,-0.419897,-4.762427,2.247827,0.599341,-4.766016,bad
1616136047.058334,1,13.0,11.0,-1.0,0.0,-4.0,0.886963,0.094177,-0.449524,-0.048401,0.244275,-1.312977,0.541985,6.156104,1.312329,0.636426,-1.568335,-0.75127,-5.028003,3.1271,0.153125,-4.300659,bad
1616136047.068397,1,13.0,12.0,-2.0,0.0,1.0,0.877808,0.09198,-0.468384,-0.039612,0.21374,-1.015267,0.59542,7.51748,1.216626,0.244043,-0.468945,-0.72854,-5.089014,3.97168,-0.007178,-3.295776,bad
1616136047.0783007,1,13.0,12.0,-2.0,-4.0,-3.0,0.871521,0.089172,-0.48114,-0.03064,0.122137,-0.526718,0.587786,9.268847,1.509717,0.088525,1.102978,-0.301465,-5.017236,4.834204,0.181836,-1.750171,bad
1616136047.0884686,1,15.0,11.0,-1.0,-2.0,-2.0,0.869934,0.085693,-0.485107,-0.023193,-0.030534,0.160305,0.480916,11.472412,2.155713,0.196191,3.239551,0.47373,-4.847363,5.800806,0.679492,0.307446,bad
1616136047.0984094,1,12.0,10.0,-2.0,-1.0,-4.0,0.874817,0.081848,-0.477112,-0.019043,-0.236641,1.061069,0.259542,13.626928,2.985938,0.429468,5.476611,1.404443,-4.776782,6.918139,1.370947,2.243042,bad
1616136047.1084106,1,11.0,9.0,-2.0,4.0,-1.0,0.886902,0.077454,-0.454956,-0.019714,-0.48855,2.045802,-0.045802,15.210815,3.728833,0.594556,7.332056,2.205957,-5.030396,8.286695,2.004981,3.349609,bad
1616136047.1182635,1,12.0,9.0,-4.0,-4.0,-2.0,0.904846,0.072266,-0.418701,-0.025085,-0.694656,2.992366,-0.351145,16.374805,3.744385,0.567041,8.984131,2.256201,-5.69314,10.121801,1.9021,3.480005,bad
1616136047.1283977,1,12.0,8.0,-2.0,3.0,-3.0,0.926453,0.066223,-0.369141,-0.032532,-0.740458,3.854962,-0.534351,17.01123,2.479907,0.312231,10.350293,1.041968,-6.730322,12.151904,0.564648,2.349512,bad
1616136047.1382997,1,9.0,9.0,-4.0,-2.0,-5.0,0.949036,0.059631,-0.306946,-0.03949,-0.70229,4.557252,-0.572519,15.950122,0.858936,-0.055029,10.285693,-0.48689,-7.938574,12.958203,-0.922339,-0.508423,bad
1616136047.1481814,1,11.0,10.0,-2.0,-1.0,-5.0,0.969543,0.053589,-0.234253,-0.046021,-0.671756,4.946565,-0.572519,13.087402,0.027515,-0.297876,8.683863,-1.201074,-8.963794,11.73081,-1.442725,-4.176245,bad
1616136047.158454,1,13.0,9.0,-3.0,-5.0,-3.0,0.985413,0.048401,-0.153809,-0.053406,-0.70229,5.19084,-0.641221,9.471021,-0.094507,-0.470142,6.550879,-1.190308,-9.759326,9.10376,-1.193897,-7.431348,bad
1616136047.1683214,1,11.0,8.0,-3.0,-2.0,-3.0,0.994812,0.04248,-0.067871,-0.062073,-0.770992,5.274809,-0.717557,5.388086,-0.376831,-0.744092,4.115234,-1.287207,-10.417285,5.35459,-1.010864,-9.868189,bad
1616136047.1784956,1,10.0,8.0,-3.0,-2.0,-3.0,0.996765,0.035339,0.016907,-0.069458,-0.755725,4.938931,-0.59542,1.475024,-0.963013,-0.328979,1.853052,-1.629346,-10.097876,1.314722,-1.128101,-10.247412,bad
1616136047.1883786,1,12.0,11.0,-4.0,3.0,-3.0,0.992676,0.028442,0.092346,-0.071777,-0.671756,4.160306,-0.21374,-3.063696,-1.031201,0.497656,-1.226196,-1.453491,-9.118115,-3.040967,-0.631641,-8.779566,bad
1616136047.1982038,1,12.0,11.0,-7.0,-3.0,-3.0,0.985596,0.023499,0.153259,-0.066895,-0.587786,3.10687,0.267176,-7.449292,-0.227295,2.051636,-4.457373,-0.479712,-7.27583,-6.449194,0.565845,-5.5771,bad
1616136047.2082615,1,13.0,9.0,-10.0,-4.0,-6.0,0.978821,0.021179,0.195557,-0.05603,-0.465649,2.007634,0.610687,-10.672094,1.317114,4.008765,-6.896606,1.124512,-5.031592,-8.106054,2.13418,-1.96311,bad
1616136047.2185135,1,11.0,10.0,-6.0,-1.0,-6.0,0.974365,0.020752,0.219788,-0.042786,-0.465649,0.946565,0.694656,-13.039551,3.075659,6.433642,-8.823828,2.86272,-2.410522,-8.701807,3.647485,1.680786,bad
1616136047.228362,1,9.0,11.0,-4.0,-2.0,-6.0,0.973389,0.017029,0.226379,-0.029846,-0.603053,-0.129771,0.633588,-14.780151,3.567334,8.6719,-10.450781,3.374732,-0.11604,-9.188696,3.89751,4.578198,bad
1616136047.2383416,1,13.0,11.0,-6.0,-2.0,-4.0,0.975403,0.01178,0.218933,-0.020325,-0.435115,-0.908397,0.442748,-14.927295,2.573218,9.923218,-10.736694,2.434448,1.065894,-9.132471,2.767017,5.587866,bad
1616136047.2483532,1,11.0,10.0,-6.0,0.0,-3.0,0.979187,0.008606,0.202026,-0.015198,-0.122137,-1.312977,0.259542,-13.533618,1.148438,10.60271,-9.652857,1.043164,1.604224,-8.189795,1.258496,5.305542,bad
1616136047.2581985,1,12.0,11.0,-4.0,-2.0,-2.0,0.983337,0.00946,0.180725,-0.013367,0.167939,-1.435115,0.129771,-11.456861,0.404346,11.156591,-7.970874,0.269165,1.998999,-6.72793,0.404346,4.706201,bad
1616136047.26829,1,11.0,10.0,-6.0,-1.0,-5.0,0.987122,0.013,0.158569,-0.013,0.267176,-1.343511,0.068702,-9.064282,0.223706,11.78584,-5.992212,0.011963,2.4823,-4.910767,0.066992,4.233667,bad
1616136047.2783074,1,11.0,10.0,-3.0,0.0,-3.0,0.989929,0.016968,0.139893,-0.012878,0.244275,-1.015267,0.068702,-6.735107,0.319409,12.387573,-4.015943,0.025122,2.976367,-3.032593,-0.001196,3.972876,bad
1616136047.2883496,1,13.0,8.0,-4.0,-4.0,-5.0,0.991638,0.020386,0.12677,-0.011597,0.167939,-0.610687,0.137405,-4.32937,0.588574,12.717749,-1.860229,0.220117,3.240747,-0.979761,0.112451,3.6104,bad
1616136047.298128,1,12.0,10.0,-3.0,-4.0,-4.0,0.992615,0.022583,0.118591,-0.008545,0.068702,-0.274809,0.221374,-2.104272,0.692651,12.538305,0.205762,0.272754,3.024219,0.916357,0.128003,2.898608,bad
1616136047.3083208,1,9.0,10.0,-1.0,2.0,0.0,0.993103,0.023865,0.11438,-0.004517,0.061069,-0.045802,0.267176,-0.53833,0.333765,11.864795,1.68916,-0.119629,2.332764,2.172461,-0.238062,1.878174,bad
1616136047.3181431,1,12.0,10.0,-4.0,-4.0,-5.0,0.993164,0.02533,0.113831,-0.000244,0.10687,0.137405,0.274809,0.221313,-0.131592,10.911352,2.436841,-0.623267,1.378125,2.680884,-0.678296,0.757251,bad
1616136047.3282237,1,12.0,10.0,-2.0,0.0,-6.0,0.992798,0.027527,0.11615,0.00354,0.160305,0.259542,0.229008,0.394775,-0.375635,9.941162,2.652173,-0.91875,0.421094,2.677295,-0.903198,-0.252417,bad
1616136047.3381622,1,11.0,9.0,-3.0,43.0,-3.0,0.992249,0.030334,0.120178,0.006104,0.19084,0.312977,0.152672,0.161499,-0.369653,9.101367,2.494263,-0.973779,-0.395972,2.331567,-0.899609,-1.037183,bad
1616136047.348232,1,11.0,10.0,-2.0,-3.0,-4.0,0.991516,0.033508,0.124939,0.007324,0.19084,0.305344,0.068702,-0.258398,-0.177051,8.481689,2.164087,-0.845776,-0.988135,1.855444,-0.729736,-1.546802,bad
1616136047.358052,1,11.0,10.0,-2.0,-2.0,-1.0,0.990906,0.036255,0.129272,0.00769,0.152672,0.267176,0.022901,-0.640015,0.096899,8.122803,1.865015,-0.625659,-1.323096,1.465454,-0.484497,-1.798023,bad
1616136047.3682375,1,11.0,10.0,-2.0,0.0,-3.0,0.990295,0.037964,0.132996,0.007751,0.068702,0.221374,0.0,-0.98335,0.384009,7.991211,1.592261,-0.372046,-1.431958,1.159204,-0.224902,-1.823145,bad
1616136047.3782494,1,10.0,7.0,-1.0,1.0,-4.0,0.989868,0.038208,0.136108,0.007812,-0.022901,0.183206,-0.015267,-1.333862,0.619678,7.997192,1.300366,-0.142358,-1.409229,0.870898,-0.003589,-1.713086,bad
1616136047.388293,1,10.0,7.0,-3.0,-5.0,-5.0,0.989563,0.037109,0.138855,0.007751,-0.099237,0.160305,-0.030534,-1.673608,0.750073,8.055811,1.013257,0.008374,-1.338647,0.605322,0.129199,-1.559961,bad
1616136047.3981504,1,11.0,9.0,-6.0,0.0,-5.0,0.989258,0.034973,0.141357,0.007446,-0.152672,0.137405,-0.053435,-2.025317,0.776392,8.141943,0.709399,0.076563,-1.240552,0.332568,0.177051,-1.379321,bad
1616136047.4082892,1,10.0,10.0,-3.0,-4.0,0.0,0.989014,0.032166,0.14386,0.006775,-0.175573,0.137405,-0.083969,-2.359082,0.73811,8.274732,0.424683,0.094507,-1.098193,0.093311,0.171069,-1.163989,bad
1616136047.4181616,1,10.0,9.0,-2.0,0.0,-3.0,0.98877,0.029175,0.146362,0.005737,-0.175573,0.137405,-0.10687,-2.622266,0.660352,8.450586,0.210547,0.077759,-0.911572,-0.062207,0.132788,-0.927124,bad
1616136047.4282668,1,9.0,11.0,-3.0,2.0,-1.0,0.988464,0.026306,0.148926,0.004333,-0.160305,0.145038,-0.122137,-2.848364,0.571826,8.664721,0.033496,0.049048,-0.685474,-0.169873,0.08374,-0.660352,bad
1616136047.4382071,1,12.0,11.0,-2.0,-1.0,0.0,0.988098,0.023804,0.151611,0.002747,-0.129771,0.152672,-0.122137,-3.025415,0.497656,8.884839,-0.089722,0.027515,-0.452197,-0.220117,0.046655,-0.401953,bad
1616136047.448087,1,11.0,9.0,-1.0,2.0,-3.0,0.987732,0.021973,0.15448,0.001282,-0.083969,0.160305,-0.114504,-3.166577,0.42229,9.089404,-0.175854,-0.005981,-0.23208,-0.238062,0.001196,-0.166284,bad
1616136047.4581978,1,10.0,10.0,-3.0,-2.0,-5.0,0.987305,0.020996,0.157227,6.1e-05,-0.030534,0.160305,-0.083969,-3.289795,0.349316,9.253296,-0.246436,-0.056226,-0.052637,-0.250024,-0.055029,0.023926,bad
1616136047.468361,1,11.0,10.0,-4.0,0.0,-3.0,0.986877,0.020935,0.15979,-0.000671,0.022901,0.137405,-0.038168,-3.42019,0.324194,9.372925,-0.328979,-0.077759,0.082544,-0.285913,-0.082544,0.178247,bad
1616136047.4781237,1,9.0,12.0,-1.0,-4.0,-3.0,0.986511,0.021973,0.161987,-0.000854,0.076336,0.10687,0.0,-3.599634,0.379224,9.461451,-0.466553,-0.04187,0.185425,-0.382812,-0.05144,0.321802,bad
1616136047.4881728,1,10.0,9.0,-3.0,-1.0,-4.0,0.986206,0.023926,0.163635,-0.000671,0.114504,0.068702,0.030534,-3.799414,0.533545,9.546387,-0.635229,0.072974,0.282324,-0.508423,0.055029,0.474927,bad
1616136047.4983394,1,10.0,11.0,-1.0,2.0,-1.0,0.985962,0.026367,0.164612,-0.000244,0.129771,0.022901,0.045802,-3.957324,0.766821,9.638501,-0.775195,0.257202,0.384009,-0.605322,0.229687,0.626855,bad
1616136047.5081367,1,13.0,12.0,-4.0,-2.0,-2.0,0.98584,0.028931,0.164917,0.000183,0.122137,-0.015267,0.038168,-4.066186,1.037183,9.733007,-0.879272,0.477319,0.483301,-0.668726,0.439038,0.769214,bad
1616136047.5181286,1,12.0,10.0,-3.0,-2.0,-4.0,0.98584,0.031189,0.164612,0.000366,0.091603,-0.053435,0.015267,-4.103271,1.283618,9.807178,-0.922339,0.679492,0.557471,-0.684277,0.632837,0.86731,bad
1616136047.5282946,1,12.0,10.0,-3.0,-1.0,-2.0,0.985901,0.032776,0.163757,0.000183,0.053435,-0.083969,-0.015267,-4.06499,1.442725,9.844263,-0.899609,0.808691,0.590967,-0.651978,0.758447,0.899609,bad
1616136047.537626,1,12.0,10.0,-6.0,3.0,0.0,0.986145,0.033569,0.162415,-0.000305,0.015267,-0.10687,-0.038168,-3.959717,1.516895,9.849048,-0.819458,0.868506,0.587378,-0.577808,0.818262,0.874487,bad
1616136047.5472548,1,9.0,10.0,-3.0,-6.0,-3.0,0.986389,0.033691,0.160706,-0.001099,-0.015267,-0.122137,-0.053435,-3.803003,1.485791,9.805982,-0.695044,0.837402,0.534741,-0.478516,0.79314,0.781177,bad
1616136047.5581007,1,9.0,10.0,-1.0,0.0,4.0,0.986694,0.033325,0.158813,-0.002014,-0.038168,-0.129771,-0.068702,-3.597241,1.367358,9.738989,-0.523975,0.72854,0.455786,-0.343335,0.692651,0.642407,bad
1616136047.5676422,1,12.0,10.0,-1.0,-1.0,-5.0,0.987061,0.032715,0.156799,-0.002991,-0.038168,-0.129771,-0.068702,-3.384302,1.191504,9.66123,-0.34812,0.567041,0.363672,-0.208154,0.539526,0.488086,bad
1616136047.5774994,1,11.0,10.0,-4.0,-3.0,-4.0,0.987366,0.032227,0.154907,-0.003906,-0.022901,-0.114504,-0.061069,-3.209644,1.019238,9.605005,-0.209351,0.406738,0.295483,-0.101685,0.385205,0.369653,bad
1616136047.5881355,1,12.0,9.0,-2.0,3.0,-3.0,0.98761,0.032043,0.153259,-0.004822,0.0,-0.099237,-0.053435,-3.070874,0.880469,9.542798,-0.100488,0.27395,0.223706,-0.022729,0.258398,0.259595,bad
1616136047.597481,1,10.0,10.0,-2.0,0.0,-3.0,0.987854,0.032349,0.151794,-0.005737,0.030534,-0.091603,-0.053435,-2.95603,0.785962,9.482984,-0.013159,0.175854,0.154321,0.037085,0.165088,0.161499,bad
1616136047.607463,1,12.0,10.0,-2.0,2.0,-2.0,0.987976,0.033081,0.150452,-0.006531,0.061069,-0.076336,-0.038168,-2.855542,0.758447,9.441113,0.061011,0.136377,0.10647,0.092114,0.128003,0.090918,bad
1616136079.0790892,1,11.0,9.0,-4.0,-3.0,1.0,0.361572,0.617371,0.036926,0.697632,0.038168,0.015267,0.030534,7.822534,4.738501,2.52417,-0.356494,-0.141162,0.221313,0.252417,-0.179443,-0.31582,bad
1616136079.088909,1,16.0,10.0,-2.0,0.0,2.0,0.360718,0.617432,0.037292,0.697937,0.053435,0.007634,0.022901,7.850049,4.757642,2.515796,-0.331372,-0.117236,0.215332,0.236865,-0.179443,-0.283521,bad
1616136079.0991216,1,9.0,11.0,-2.0,-41.0,1.0,0.359924,0.617615,0.037781,0.698181,0.053435,0.007634,0.015267,7.860816,4.813867,2.509815,-0.324194,-0.059814,0.215332,0.210547,-0.217725,-0.250024,bad
1616136079.109195,1,9.0,10.0,-3.0,0.0,5.0,0.359436,0.617737,0.038269,0.698303,0.038168,0.0,0.007634,7.860816,4.907178,2.515796,-0.324194,0.031104,0.224902,0.178247,-0.288306,-0.202173,bad
1616136079.1191964,1,11.0,11.0,-3.0,2.0,-1.0,0.359192,0.61792,0.038635,0.698303,0.022901,-0.015267,0.0,7.857226,5.017236,2.512207,-0.327783,0.137573,0.224902,0.130396,-0.368457,-0.151929,bad
1616136079.1289814,1,12.0,9.0,-1.0,3.0,-1.0,0.359314,0.618042,0.038879,0.698059,0.0,-0.022901,-0.007634,7.870386,5.116529,2.509815,-0.311035,0.230884,0.227295,0.089722,-0.429468,-0.090918,bad
1616136079.1392896,1,10.0,11.0,-30.0,3.0,0.0,0.359741,0.618225,0.038818,0.697693,-0.022901,-0.038168,-0.015267,7.903882,5.172754,2.513403,-0.276343,0.282324,0.234473,0.07417,-0.451001,-0.034692,bad
1616136079.1491125,1,11.0,10.0,-1.0,47.0,1.0,0.360291,0.618469,0.038574,0.697205,-0.030534,-0.045802,-0.022901,7.957715,5.17395,2.506226,-0.221313,0.278735,0.233276,0.075366,-0.417505,0.008374,bad
1616136079.1591284,1,13.0,11.0,-2.0,0.0,0.0,0.36084,0.618713,0.038208,0.696716,-0.030534,-0.045802,-0.015267,8.003174,5.156006,2.488281,-0.174658,0.258398,0.220117,0.072974,-0.372046,0.033496,bad
1616136079.1690934,1,11.0,11.0,-3.0,2.0,1.0,0.361328,0.619019,0.037842,0.696228,-0.022901,-0.045802,-0.015267,8.047437,5.13208,2.471533,-0.131592,0.230884,0.210547,0.077759,-0.324194,0.053833,bad
1616136079.1789284,1,12.0,10.0,-3.0,3.0,4.0,0.361694,0.619385,0.037598,0.69574,-0.015267,-0.045802,-0.015267,8.07854,5.111743,2.444019,-0.100488,0.206958,0.191406,0.071777,-0.282324,0.063403,bad
1616136079.1891878,1,12.0,16.0,-4.0,2.0,0.0,0.361938,0.619751,0.037476,0.695251,-0.007634,-0.045802,-0.015267,8.092896,5.144043,2.432056,-0.086133,0.235669,0.189014,0.057422,-0.295483,0.088525,bad
1616136079.1992626,1,11.0,10.0,-1.0,-2.0,3.0,0.362305,0.620117,0.037354,0.694824,-0.015267,-0.045802,-0.015267,8.090503,5.24812,2.446411,-0.088525,0.334961,0.210547,0.031104,-0.378027,0.141162,bad
1616136079.2090526,1,15.0,10.0,-2.0,0.0,3.0,0.362915,0.6203,0.03717,0.694275,-0.038168,-0.045802,-0.022901,8.076147,5.409619,2.497852,-0.099292,0.490479,0.266772,0.008374,-0.520386,0.223706,bad
1616136079.21892,1,13.0,10.0,-1.0,2.0,1.0,0.364075,0.6203,0.036743,0.693665,-0.076336,-0.053435,-0.030534,8.04624,5.614184,2.576807,-0.124414,0.687866,0.345728,-0.013159,-0.709399,0.320605,bad
1616136079.2290523,1,13.0,13.0,-2.0,6.0,1.0,0.365967,0.620056,0.035828,0.692993,-0.137405,-0.061069,-0.038168,8.011548,5.846265,2.684473,-0.153125,0.911572,0.44502,-0.0323,-0.92832,0.43186,bad
1616136079.239207,1,11.0,10.0,-1.0,-2.0,3.0,0.368958,0.619385,0.03418,0.692078,-0.221374,-0.076336,-0.053435,7.952929,6.091504,2.818457,-0.200977,1.148438,0.56106,-0.050244,-1.17356,0.540723,bad
1616136079.248943,1,12.0,11.0,-3.0,4.0,4.0,0.373169,0.618164,0.031677,0.69104,-0.328244,-0.083969,-0.076336,7.902686,6.35708,2.983545,-0.238062,1.40564,0.692651,-0.071777,-1.431958,0.673511,bad
1616136079.2591665,1,13.0,10.0,-4.0,2.0,4.0,0.378906,0.616394,0.028198,0.689636,-0.442748,-0.10687,-0.10687,7.854834,6.576001,3.093604,-0.266772,1.616186,0.756055,-0.141162,-1.620972,0.776392,bad
1616136079.2690227,1,13.0,10.0,-3.0,0.0,1.0,0.386108,0.614075,0.023621,0.687866,-0.557252,-0.122137,-0.145038,7.840478,6.678882,3.130688,-0.259595,1.713086,0.733325,-0.240454,-1.668823,0.832617,bad
1616136079.2791524,1,11.0,10.0,-3.0,-1.0,0.0,0.39447,0.611328,0.017944,0.68573,-0.656489,-0.137405,-0.167939,7.858423,6.683667,3.10437,-0.218921,1.715479,0.636426,-0.360083,-1.594653,0.849365,bad
1616136079.2890918,1,10.0,10.0,-3.0,-1.0,0.0,0.403748,0.608276,0.011292,0.683167,-0.740458,-0.160305,-0.183206,7.911059,6.581983,3.001489,-0.143555,1.616186,0.456982,-0.494067,-1.386499,0.818262,bad
1616136079.2988992,1,13.0,12.0,-2.0,4.0,0.0,0.413574,0.605164,0.003845,0.680176,-0.78626,-0.183206,-0.198473,8.011548,6.373828,2.861523,-0.023926,1.416406,0.240454,-0.592163,-1.063501,0.76084,bad
1616136079.3091326,1,11.0,10.0,-16.0,2.0,-1.0,0.423401,0.602051,-0.004211,0.676819,-0.80916,-0.206107,-0.198473,8.15271,6.111841,2.70481,0.130396,1.171167,0.010767,-0.656763,-0.681885,0.699829,bad
1616136079.3189893,1,12.0,10.0,-2.0,0.0,5.0,0.432983,0.59906,-0.01239,0.67334,-0.801527,-0.206107,-0.19084,8.322583,5.872583,2.593555,0.311035,0.95105,-0.16748,-0.672314,-0.326587,0.684277,bad
1616136079.328935,1,13.0,10.0,-3.0,1.0,0.0,0.442078,0.596008,-0.020569,0.669922,-0.778626,-0.206107,-0.175573,8.496045,5.675195,2.489478,0.491675,0.77998,-0.33855,-0.695044,-0.007178,0.692651,bad
1616136079.3390253,1,13.0,10.0,-6.0,4.0,-1.0,0.450562,0.593079,-0.028687,0.666626,-0.748092,-0.19084,-0.145038,8.688647,5.50293,2.392578,0.685474,0.640015,-0.49646,-0.710596,0.293091,0.730933,bad
1616136079.3489387,1,12.0,12.0,-1.0,2.0,0.0,0.458069,0.590149,-0.036621,0.663635,-0.70229,-0.167939,-0.10687,8.886035,5.31272,2.308838,0.880469,0.490479,-0.636426,-0.693848,0.588574,0.769214,bad
1616136079.358848,1,12.0,11.0,-2.0,3.0,2.0,0.464478,0.587341,-0.04425,0.661255,-0.633588,-0.145038,-0.061069,9.045141,5.139258,2.207153,1.028809,0.364868,-0.791943,-0.699829,0.850561,0.776392,bad
1616136079.368917,1,11.0,11.0,-2.0,4.0,0.0,0.469604,0.584778,-0.051208,0.659424,-0.549618,-0.114504,-0.015267,9.148023,5.004077,2.123413,1.11853,0.282324,-0.921143,-0.717773,1.037183,0.765625,bad
1616136079.378864,1,11.0,10.0,-4.0,-1.0,0.0,0.473389,0.582458,-0.057495,0.658203,-0.465649,-0.083969,0.030534,9.204248,4.896411,2.062402,1.155615,0.233276,-1.021631,-0.741699,1.155615,0.73811,bad
1616136079.38905,1,12.0,10.0,-2.0,4.0,4.0,0.475952,0.580444,-0.062988,0.657593,-0.381679,-0.061069,0.076336,9.242529,4.848559,2.06001,1.17356,0.245239,-1.056323,-0.764429,1.186719,0.745288,bad
1616136079.3990014,1,15.0,11.0,-1.0,5.0,3.0,0.477417,0.578674,-0.06781,0.657654,-0.305344,-0.030534,0.114504,9.274829,4.812671,2.093506,1.180737,0.271558,-1.051538,-0.775195,1.177148,0.763232,bad
1616136079.4090197,1,13.0,9.0,-2.0,0.0,1.0,0.477844,0.577026,-0.07196,0.658325,-0.229008,0.0,0.152672,9.297559,4.781568,2.14375,1.177148,0.305054,-1.026416,-0.781177,1.142456,0.782373,bad
1616136079.4188766,1,9.0,9.0,-4.0,-1.0,4.0,0.477417,0.5755,-0.0755,0.659607,-0.167939,0.038168,0.19084,9.259277,4.75166,2.186816,1.112549,0.342139,-1.008472,-0.806299,1.075464,0.748877,bad
1616136079.4287915,1,11.0,9.0,-3.0,4.0,0.0,0.476257,0.573975,-0.078491,0.661377,-0.122137,0.053435,0.21374,9.138453,4.755249,2.244238,0.964209,0.413916,-0.976172,-0.856543,0.934302,0.666333,bad
1616136079.4390862,1,11.0,10.0,-3.0,0.0,-1.0,0.474792,0.572571,-0.081238,0.663391,-0.114504,0.053435,0.236641,8.935083,4.791138,2.336353,0.733325,0.517993,-0.907983,-0.915161,0.707007,0.53833,bad
1616136079.448909,1,12.0,11.0,-1.0,3.0,1.0,0.473328,0.571106,-0.084351,0.665283,-0.129771,0.030534,0.251908,8.717359,4.830615,2.473926,0.48689,0.631641,-0.791943,-0.947461,0.436646,0.415112,bad
1616136079.458772,1,13.0,10.0,-2.0,-1.0,1.0,0.472107,0.569519,-0.088013,0.667053,-0.167939,0.007634,0.259542,8.537915,4.831811,2.658154,0.276343,0.711792,-0.631641,-0.919946,0.175854,0.319409,bad
1616136079.4689054,1,13.0,10.0,-4.0,2.0,4.0,0.471252,0.567627,-0.092346,0.66864,-0.221374,-0.007634,0.259542,8.380005,4.762427,2.843579,0.087329,0.729736,-0.472534,-0.845776,-0.035889,0.214136,bad
1616136079.4788702,1,12.0,10.0,-1.0,-3.0,4.0,0.470886,0.565552,-0.097412,0.669983,-0.274809,-0.030534,0.251908,8.220899,4.612891,2.994312,-0.104077,0.672314,-0.349316,-0.739307,-0.183032,0.062207,bad
1616136079.4888842,1,11.0,9.0,-1.0,3.0,0.0,0.470947,0.563171,-0.103088,0.671021,-0.320611,-0.045802,0.244275,8.082129,4.39397,3.116333,-0.275146,0.550293,-0.257202,-0.601733,-0.263184,-0.10647,bad
1616136079.498991,1,11.0,10.0,-3.0,-1.0,0.0,0.471619,0.560669,-0.109253,0.671753,-0.358779,-0.061069,0.221374,7.970874,4.124804,3.212036,-0.419897,0.38042,-0.191406,-0.442627,-0.287109,-0.279932,bad
1616136079.508938,1,10.0,10.0,-3.0,0.0,1.0,0.472717,0.557861,-0.115784,0.67218,-0.396947,-0.068702,0.198473,7.890723,3.798218,3.293384,-0.531152,0.154321,-0.142358,-0.245239,-0.252417,-0.448608,bad
1616136079.5188591,1,-8.0,10.0,-2.0,0.0,3.0,0.474243,0.554871,-0.122437,0.672363,-0.419847,-0.061069,0.175573,7.858423,3.428565,3.338843,-0.590967,-0.114844,-0.130396,-0.031104,-0.145947,-0.596948,bad
1616136079.5288627,1,11.0,11.0,-1.0,0.0,-4.0,0.475952,0.551697,-0.128967,0.672546,-0.419847,-0.045802,0.145038,7.834497,3.000293,3.340039,-0.640015,-0.446216,-0.166284,0.205762,0.026318,-0.769214,bad
1616136079.5389678,1,11.0,10.0,-5.0,0.0,0.0,0.477783,0.548523,-0.13501,0.672729,-0.389313,-0.022901,0.114504,7.792627,2.538525,3.295776,-0.703418,-0.817065,-0.248828,0.453394,0.24165,-0.978564,bad
1616136079.5489511,1,11.0,9.0,-4.0,0.0,1.0,0.479492,0.545471,-0.140198,0.672913,-0.343511,0.0,0.083969,7.732812,2.091113,3.246728,-0.778784,-1.185522,-0.334961,0.702222,0.448608,-1.195093,bad
1616136079.558864,1,12.0,10.0,-2.0,-4.0,0.0,0.48114,0.542664,-0.144287,0.673157,-0.282443,0.022901,0.038168,7.651465,1.665234,3.213233,-0.868506,-1.547998,-0.405542,0.959424,0.630444,-1.411621,bad
1616136079.5689197,1,11.0,10.0,-5.0,0.0,4.0,0.482727,0.540161,-0.147156,0.673401,-0.21374,0.045802,-0.007634,7.534228,1.297974,3.180933,-0.986938,-1.8698,-0.474927,1.185522,0.773999,-1.638916,bad
1616136079.5787718,1,13.0,10.0,-2.0,12.0,0.0,0.484314,0.538025,-0.148804,0.673584,-0.152672,0.061069,-0.053435,7.383496,0.974976,3.162988,-1.131689,-2.167676,-0.527563,1.399658,0.87688,-1.876978,bad
1616136079.5888867,1,11.0,10.0,-1.0,0.0,-1.0,0.48584,0.536316,-0.149353,0.673706,-0.091603,0.068702,-0.099237,7.212427,0.703418,3.152222,-1.290796,-2.430859,-0.57063,1.589868,0.947461,-2.113843,bad
1616136079.5990558,1,12.0,10.0,-3.0,3.0,3.0,0.487427,0.535095,-0.148926,0.673645,-0.038168,0.068702,-0.137405,7.031787,0.471338,3.18811,-1.455884,-2.673706,-0.563452,1.787256,0.966602,-2.33396,bad
1616136079.6088085,1,15.0,7.0,-3.0,0.0,1.0,0.489014,0.534241,-0.147583,0.673462,0.007634,0.068702,-0.183206,6.834399,0.263184,3.264673,-1.631738,-2.908179,-0.512012,1.998999,0.94148,-2.548096,bad
1616136079.6187987,1,11.0,10.0,-4.0,0.0,3.0,0.490784,0.533752,-0.145569,0.672974,0.045802,0.061069,-0.221374,6.623853,0.065796,3.396265,-1.815967,-3.147437,-0.401953,2.241846,0.868506,-2.751465,bad
1616136079.628889,1,13.0,10.0,-2.0,3.0,-2.0,0.492981,0.533386,-0.142883,0.672302,0.061069,0.061069,-0.274809,6.401343,-0.071777,3.654663,-2.007373,-3.342432,-0.16748,2.516992,0.675903,-2.903394,bad
1616136079.6389916,1,16.0,12.0,-2.0,0.0,-1.0,0.496033,0.532715,-0.139587,0.671204,0.038168,0.076336,-0.343511,6.153711,-0.076563,4.041064,-2.210742,-3.418994,0.186621,2.759839,0.325391,-2.97876,bad
1616136079.6489303,1,7.0,10.0,-1.0,0.0,1.0,0.500671,0.531494,-0.135864,0.669556,-0.030534,0.083969,-0.435115,5.863013,0.038281,4.492065,-2.444019,-3.393872,0.590967,2.942871,-0.139966,-3.025415,bad
1616136079.6589632,1,13.0,10.0,-3.0,0.0,1.0,0.507629,0.52948,-0.13208,0.666626,-0.152672,0.076336,-0.549618,5.513696,0.351709,4.939477,-2.717969,-3.190503,0.977368,2.957227,-0.721362,-3.040967,bad
1616136079.6689188,1,13.0,10.0,-3.0,-1.0,0.0,0.5177,0.526611,-0.128967,0.661743,-0.358779,0.030534,-0.694656,5.092603,0.933105,5.378516,-3.045752,-2.737109,1.34104,2.725147,-1.454687,-3.001489,bad
1616136079.6787796,1,13.0,10.0,-3.0,0.0,3.0,0.531982,0.522339,-0.127625,0.654053,-0.679389,-0.045802,-0.862595,4.712183,1.892529,5.811572,-3.313721,-1.917651,1.678394,2.137769,-2.306445,-2.751465,bad
1616136079.6887774,1,11.0,10.0,-1.0,0.0,1.0,0.55188,0.515747,-0.129028,0.642395,-1.137405,-0.137405,-1.076336,4.441821,3.292187,6.138159,-3.446509,-0.661548,1.878174,1.046753,-3.128296,-2.225098,bad
1616136079.6987512,1,10.0,9.0,-3.0,2.0,1.0,0.578247,0.505737,-0.134583,0.625793,-1.732824,-0.229008,-1.312977,4.429858,4.77439,6.172852,-3.298169,0.692651,1.741797,-0.358887,-3.453686,-1.524072,bad
1616136079.7087803,1,12.0,10.0,-2.0,-1.0,0.0,0.610779,0.490906,-0.145569,0.603882,-2.40458,-0.312977,-1.519084,4.752856,6.055615,5.768506,-2.799316,1.900903,1.107764,-1.851856,-2.924927,-0.824243,bad
1616136079.718946,1,13.0,10.0,-1.0,0.0,1.0,0.647949,0.470581,-0.161987,0.576477,-3.015267,-0.374046,-1.694656,5.23855,6.794922,4.721753,-2.135376,2.648584,-0.221313,-3.058911,-1.378125,-0.596948,bad
1616136079.7288945,1,9.0,10.0,-2.0,-2.0,4.0,0.6875,0.445251,-0.182434,0.543823,-3.473282,-0.40458,-1.854962,5.697925,7.086816,3.099585,-1.506128,3.031396,-2.161694,-3.777881,0.906787,-1.013257,bad
1616136079.7386987,1,9.0,10.0,-1.0,2.0,-1.0,0.727356,0.415588,-0.2052,0.506042,-3.801527,-0.427481,-1.977099,6.136963,7.092798,1.204663,-0.910376,3.202466,-4.383203,-3.805396,3.500342,-1.882959,bad
1616136079.7488935,1,11.0,9.0,-2.0,4.0,2.0,0.765564,0.382385,-0.228821,0.463928,-3.977099,-0.442748,-2.068702,6.464746,6.866699,-0.573022,-0.44502,3.209644,-6.479102,-3.076855,5.81875,-3.02063,bad
1616136079.758067,1,10.0,8.0,-3.0,4.0,0.0,0.80072,0.346863,-0.251953,0.418274,-4.038168,-0.458015,-2.114504,6.562842,6.840381,-2.055225,-0.234473,3.46206,-8.250806,-2.11145,7.622754,-4.185815,bad
1616136079.7688465,1,8.0,7.0,-4.0,-4.0,-1.0,0.832092,0.309998,-0.273254,0.369812,-4.007634,-0.450382,-2.152672,6.646582,6.827222,-2.933301,-0.056226,3.751563,-9.384888,-0.860132,8.716162,-5.039966,bad
1616136079.779071,1,7.0,8.0,-26.0,-1.0,0.0,0.859314,0.271729,-0.291626,0.320435,-3.900763,-0.328244,-2.137405,7.375122,6.510205,-2.671314,0.756055,3.764722,-9.356176,0.861328,8.84895,-4.817456,bad
1616136079.7888422,1,7.0,5.0,-1.0,-3.0,0.0,0.882751,0.231384,-0.304626,0.272705,-3.748092,0.015267,-2.045802,9.139648,5.806787,-1.282422,2.631836,3.430957,-8.21372,2.996704,8.168262,-3.22998,bad
1616136079.7988076,1,8.0,6.0,-5.0,-5.0,-4.0,0.903625,0.187866,-0.308899,0.229553,-3.610687,0.664122,-1.832061,11.499927,4.946655,0.764429,5.18352,3.008667,-6.471924,5.104566,7.143042,-0.843384,bad
1616136079.808918,1,7.0,5.0,-2.0,-2.0,-1.0,0.923157,0.140991,-0.301941,0.19165,-3.503817,1.427481,-1.587786,13.421167,4.167871,2.25979,7.427759,2.750268,-5.362964,7.019824,6.450391,0.766821,bad
1616136079.8181217,1,7.0,0.0,-5.0,-4.0,-5.0,0.941406,0.092712,-0.282898,0.158508,-3.312977,2.183206,-1.374046,14.441602,3.274243,3.466846,8.932691,2.441626,-4.594946,8.509204,5.688354,1.446314,bad
1616136079.8287427,1,8.0,7.0,-4.0,-6.0,-5.0,0.958496,0.044922,-0.249878,0.129272,-3.015267,3.0,-1.229008,14.688037,1.897314,4.452588,9.878955,1.685571,-4.081738,9.765307,4.463355,1.327881,bad
1616136079.838769,1,8.0,8.0,-3.0,-4.0,-4.0,0.973694,0.00061,-0.202759,0.103516,-2.465649,3.778626,-1.137405,14.037256,-0.916357,4.506421,10.166064,-0.515601,-4.486084,10.985522,1.735815,-0.080151,bad
1616136079.8488262,1,5.0,5.0,-5.0,-2.0,-1.0,0.985779,-0.036621,-0.141968,0.08197,-1.648855,4.450382,-0.969466,12.289477,-4.871289,4.001587,9.605005,-3.934595,-5.376123,11.219995,-2.481103,-2.137769,bad
1616136079.8588178,1,11.0,8.0,-7.0,-5.0,-3.0,0.993347,-0.062683,-0.070557,0.065125,-0.740458,4.801527,-0.694656,9.223389,-8.248413,3.349609,7.929004,-6.93728,-6.274536,9.548779,-6.450391,-4.187012,bad
1616136079.868788,1,8.0,7.0,-8.0,-12.0,-3.0,0.995728,-0.075012,0.005371,0.053467,0.099237,4.694656,-0.343511,4.55188,-9.992602,2.771802,4.734912,-8.53313,-6.916944,5.603418,-8.924316,-5.657251,bad
1616136079.878893,1,8.0,9.0,-8.0,-6.0,-1.0,0.99292,-0.073608,0.080322,0.046326,0.755725,4.229008,-0.045802,-1.502539,-9.382495,2.424878,0.126807,-8.022314,-7.140649,-0.132788,-8.986524,-5.878564,bad
1616136079.8882082,1,8.0,9.0,-11.0,-5.0,-3.0,0.986511,-0.061035,0.145691,0.042297,1.083969,3.374046,0.10687,-6.303247,-6.135767,3.554175,-3.434546,-5.075854,-5.755347,-4.386792,-6.00896,-3.913062,bad
1616136079.8989289,1,11.0,9.0,-14.0,-7.0,-2.0,0.979553,-0.042297,0.192322,0.039917,1.030534,2.206107,0.129771,-9.829907,-1.491772,6.063989,-6.103467,-0.829028,-2.973975,-6.66333,-1.492969,-0.366064,bad
1616136079.908894,1,8.0,6.0,-11.0,-5.0,-2.0,0.974792,-0.024841,0.21759,0.041626,0.633588,0.954198,0.251908,-12.421069,3.006274,9.002075,-8.242432,3.302954,0.142358,-7.675391,2.716773,3.541016,bad
1616136079.91808,1,9.0,26.0,-13.0,-5.0,-1.0,0.973206,-0.01416,0.224548,0.046631,0.129771,-0.091603,0.290076,-14.324366,5.630933,11.204443,-10.027295,5.695532,2.397363,-8.479297,4.937085,6.511401,bad
1616136079.9287972,1,9.0,9.0,-11.0,-5.0,1.0,0.974426,-0.010498,0.21814,0.052307,-0.183206,-0.80916,0.259542,-14.525342,6.225488,12.431836,-10.3479,6.201562,3.566138,-8.454175,5.31272,7.650269,bad
1616136079.9388795,1,8.0,8.0,-12.0,-5.0,-4.0,0.977478,-0.010986,0.202515,0.057312,-0.290076,-1.183206,0.206107,-13.100561,5.327075,12.918726,-9.207837,5.309131,3.925025,-7.460059,4.456177,7.267456,bad
1616136079.9483304,1,9.0,9.0,-12.0,-2.0,-2.0,0.981018,-0.012939,0.183472,0.061218,-0.236641,-1.229008,0.167939,-10.958008,3.762329,12.970166,-7.414599,3.789844,3.83291,-5.958716,3.087622,6.242236,bad
1616136079.958144,1,6.0,9.0,-8.0,-4.0,1.0,0.983948,-0.014404,0.165771,0.064209,-0.129771,-1.022901,0.137405,-8.564234,2.245435,12.915136,-5.348608,2.313623,3.657056,-4.127197,1.824341,5.191895,bad
1616136079.968068,1,9.0,7.0,-7.0,-4.0,-3.0,0.985901,-0.014648,0.152588,0.066528,-0.015267,-0.656489,0.129771,-6.177637,1.019238,12.751245,-3.209644,1.102978,3.411816,-2.160498,0.852954,4.21333,bad
1616136079.97815,1,7.0,11.0,-8.0,-4.0,0.0,0.986938,-0.013428,0.145081,0.068359,0.114504,-0.267176,0.129771,-4.049438,0.13877,12.322973,-1.225,0.203369,2.939282,-0.352905,0.177051,3.165381,bad
1616136079.9879837,1,11.0,8.0,-9.0,-13.0,0.0,0.987183,-0.010254,0.143005,0.069763,0.251908,0.045802,0.122137,-2.422485,-0.403149,11.601611,0.35769,-0.399561,2.204761,1.014453,-0.258398,2.012158,bad
1616136079.9982686,1,8.0,9.0,-6.0,-7.0,1.0,0.986816,-0.005432,0.145081,0.07074,0.351145,0.259542,0.10687,-1.411621,-0.531152,10.764209,1.400854,-0.626855,1.378125,1.808789,-0.384009,0.910376,bad
1616136080.00829,1,7.0,7.0,-11.0,-5.0,1.0,0.986145,0.000122,0.149475,0.071472,0.351145,0.343511,0.091603,-0.872095,-0.194995,10.021314,2.015747,-0.406738,0.659155,2.155713,-0.104077,0.026318,bad
1616136080.0180209,1,9.0,7.0,-8.0,-4.0,0.0,0.985352,0.005371,0.154358,0.072144,0.290076,0.335878,0.076336,-0.68667,0.364868,9.420776,2.286108,0.04187,0.088525,2.173657,0.37085,-0.607715,bad
1616136080.02808,1,8.0,8.0,-7.0,-2.0,-1.0,0.984558,0.00946,0.158447,0.072998,0.183206,0.259542,0.068702,-0.76084,0.957031,8.974561,2.28252,0.546704,-0.330176,1.961914,0.873291,-0.998901,bad
1616136080.0379052,1,11.0,10.0,-6.0,-1.0,1.0,0.98407,0.011841,0.161072,0.074097,0.053435,0.160305,0.068702,-0.942676,1.374536,8.664721,2.146142,0.911572,-0.623267,1.681982,1.221411,-1.223804,bad
1616136080.0480793,1,7.0,9.0,-6.0,-1.0,-3.0,0.983765,0.01239,0.161987,0.075623,-0.045802,0.053435,0.083969,-1.143652,1.528857,8.435034,1.960718,1.049145,-0.845776,1.411621,1.335059,-1.370947,bad
1616136080.058139,1,8.0,10.0,-7.0,2.0,-1.0,0.983765,0.011719,0.161255,0.077515,-0.10687,-0.045802,0.099237,-1.337451,1.451099,8.241236,1.75376,0.979761,-1.045557,1.161597,1.239355,-1.496558,bad
1616136080.0681212,1,7.0,9.0,-7.0,-4.0,-2.0,0.983948,0.01062,0.159302,0.079468,-0.114504,-0.122137,0.099237,-1.581494,1.252515,8.103662,1.473828,0.799121,-1.196289,0.880469,1.018042,-1.557568,bad
1616136080.0779352,1,10.0,10.0,-5.0,0.0,0.0,0.984253,0.009583,0.156616,0.081055,-0.099237,-0.167939,0.068702,-1.844678,1.037183,8.040258,1.1604,0.60293,-1.27644,0.598145,0.773999,-1.542017,bad
1616136080.0881,1,7.0,9.0,-4.0,-5.0,1.0,0.984619,0.00885,0.153809,0.081726,-0.068702,-0.183206,0.015267,-2.061206,0.852954,8.066577,0.892432,0.435449,-1.26687,0.382812,0.564648,-1.455884,bad
1616136080.0982904,1,8.0,9.0,-5.0,3.0,1.0,0.985046,0.008301,0.151184,0.081482,-0.038168,-0.160305,-0.038168,-2.223901,0.752466,8.21372,0.680689,0.350513,-1.135278,0.245239,0.446216,-1.270459,bad
1616136080.1079378,1,9.0,8.0,-7.0,-5.0,1.0,0.985474,0.007935,0.149109,0.080322,-0.030534,-0.122137,-0.091603,-2.353101,0.739307,8.455371,0.514404,0.350513,-0.905591,0.162695,0.419897,-1.001294,bad
1616136080.1181235,1,9.0,10.0,-4.0,0.0,-1.0,0.98584,0.007446,0.147827,0.078674,-0.038168,-0.068702,-0.122137,-2.477515,0.768018,8.741284,0.367261,0.395972,-0.628052,0.101685,0.442627,-0.691455,bad
1616136080.12824,1,8.0,7.0,-4.0,-1.0,0.0,0.986023,0.006775,0.147278,0.076904,-0.045802,-0.030534,-0.122137,-2.606714,0.776392,9.000879,0.228491,0.42229,-0.37085,0.044263,0.448608,-0.405542,bad
1616136080.1380413,1,9.0,8.0,-5.0,-2.0,4.0,0.986145,0.006104,0.147278,0.075439,-0.038168,0.007634,-0.099237,-2.739502,0.723755,9.205444,0.098096,0.387598,-0.16748,-0.011963,0.395972,-0.174658,bad
1616136080.1480658,1,12.0,9.0,-2.0,4.0,4.0,0.986145,0.005859,0.147705,0.074524,0.0,0.022901,-0.045802,-2.859131,0.6448,9.37771,-0.011963,0.314624,0.005981,-0.055029,0.308643,0.019141,bad
1616136080.158131,1,8.0,10.0,-4.0,0.0,3.0,0.986084,0.00647,0.148193,0.074463,0.053435,0.015267,0.015267,-2.991919,0.598145,9.536817,-0.136377,0.256006,0.168677,-0.11604,0.233276,0.209351,bad
1616136080.167892,1,10.0,10.0,-4.0,-2.0,0.0,0.985962,0.008301,0.148682,0.075256,0.114504,0.0,0.076336,-3.177344,0.611304,9.644483,-0.31582,0.230884,0.278735,-0.248828,0.181836,0.367261,bad
1616136080.1778803,1,8.0,10.0,-3.0,1.0,1.0,0.985779,0.011353,0.148926,0.076599,0.183206,-0.030534,0.114504,-3.369946,0.68667,9.7354,-0.508423,0.242847,0.373242,-0.404346,0.161499,0.515601,bad
1616136080.1881282,1,11.0,10.0,-4.0,-2.0,-1.0,0.985596,0.015625,0.148743,0.078125,0.244275,-0.061069,0.137405,-3.520679,0.845776,9.794019,-0.671118,0.31582,0.433057,-0.551489,0.200977,0.625659,bad
1616136080.198158,1,12.0,10.0,-2.0,-1.0,0.0,0.985535,0.020752,0.14801,0.079712,0.282443,-0.099237,0.137405,-3.619971,1.104175,9.868189,-0.79314,0.471338,0.50603,-0.669922,0.326587,0.741699,bad
1616136080.208038,1,12.0,8.0,-4.0,1.0,1.0,0.985474,0.026367,0.146667,0.081177,0.290076,-0.137405,0.129771,-3.628345,1.414014,9.932788,-0.836206,0.671118,0.568237,-0.723755,0.504834,0.831421,bad
1616136080.2179136,1,10.0,10.0,-6.0,-1.0,0.0,0.985474,0.031799,0.144714,0.082642,0.267176,-0.167939,0.129771,-3.55896,1.717871,10.003369,-0.814673,0.868506,0.634033,-0.717773,0.689062,0.90918,bad
1616136080.227807,1,10.0,8.0,-5.0,0.0,-3.0,0.985535,0.036682,0.142334,0.084167,0.221374,-0.183206,0.129771,-3.408227,1.952344,10.045239,-0.71897,1.008472,0.668726,-0.643604,0.831421,0.933105,bad
1616136080.2379496,1,10.0,10.0,-3.0,-2.0,2.0,0.985596,0.040833,0.139771,0.085938,0.175573,-0.175573,0.137405,-3.200073,2.050439,10.051221,-0.568237,1.02522,0.666333,-0.510815,0.866113,0.897217,bad
1616136080.248063,1,11.0,10.0,-4.0,-1.0,1.0,0.985596,0.044189,0.137146,0.088013,0.137405,-0.160305,0.160305,-2.95603,2.042065,10.029688,-0.382812,0.95105,0.636426,-0.33855,0.820654,0.815869,bad
1616136080.2580764,1,9.0,9.0,-6.0,0.0,-1.0,0.985596,0.04718,0.134766,0.090393,0.122137,-0.145038,0.167939,-2.749072,2.012158,9.971069,-0.228491,0.861328,0.57063,-0.202173,0.759644,0.707007,bad
1616136080.267965,1,9.0,6.0,-5.0,0.0,2.0,0.985474,0.049927,0.132751,0.092773,0.122137,-0.114504,0.160305,-2.604321,1.976269,9.889722,-0.130396,0.77041,0.484497,-0.122021,0.691455,0.592163,bad
1616136080.2780907,1,13.0,10.0,-4.0,0.0,0.0,0.985352,0.052734,0.131287,0.094604,0.129771,-0.091603,0.122137,-2.509815,1.973877,9.794019,-0.071777,0.711792,0.386401,-0.086133,0.649585,0.479712,bad
1616136080.2880533,1,12.0,9.0,-2.0,0.0,1.0,0.985229,0.05542,0.13031,0.095703,0.129771,-0.068702,0.068702,-2.403345,2.001392,9.697119,0.008374,0.68667,0.290698,-0.033496,0.645996,0.368457,bad
1616136080.297767,1,9.0,10.0,-6.0,0.0,3.0,0.985168,0.057922,0.129639,0.096008,0.122137,-0.045802,0.022901,-2.305249,2.089917,9.616968,0.088525,0.727344,0.211743,0.013159,0.707007,0.282324,bad
1616136080.307945,1,9.0,9.0,-3.0,0.0,-1.0,0.985107,0.059937,0.12915,0.095703,0.083969,-0.030534,-0.022901,-2.221509,2.229883,9.554761,0.159106,0.830225,0.153125,0.047852,0.826636,0.226099,bad
1616136080.317968,1,8.0,9.0,-6.0,2.0,-2.0,0.985168,0.061218,0.128906,0.09491,0.038168,-0.022901,-0.061069,-2.160498,2.378223,9.500928,0.214136,0.955835,0.100488,0.065796,0.964209,0.183032,bad
1616136080.327754,1,8.0,10.0,-4.0,0.0,1.0,0.985291,0.061707,0.128601,0.093811,-0.015267,-0.015267,-0.083969,-2.106665,2.494263,9.435132,0.263184,1.065894,0.033496,0.077759,1.087427,0.123218,bad
1616136080.3380518,1,8.0,9.0,-4.0,0.0,0.0,0.985474,0.06134,0.128357,0.092468,-0.061069,-0.015267,-0.099237,-2.044458,2.52417,9.364551,0.322998,1.106567,-0.037085,0.112451,1.146045,0.045459,bad
1616136080.3477974,1,9.0,9.0,-6.0,-1.0,0.0,0.985718,0.060425,0.128052,0.091003,-0.083969,-0.015267,-0.114504,-1.987036,2.478711,9.287989,0.378027,1.082642,-0.118433,0.149536,1.14126,-0.050244,bad
1616136080.3578918,1,8.0,10.0,-3.0,-2.0,-1.0,0.985962,0.059265,0.127808,0.089417,-0.091603,-0.007634,-0.122137,-1.940381,2.381812,9.209033,0.424683,1.012061,-0.200977,0.187817,1.088623,-0.153125,bad
1616136080.3678477,1,9.0,10.0,-6.0,2.0,1.0,0.986206,0.058105,0.127563,0.087769,-0.076336,-0.007634,-0.114504,-1.908081,2.277734,9.149219,0.456982,0.934302,-0.26438,0.217725,1.022827,-0.235669,bad
1616136080.378096,1,11.0,10.0,-4.0,2.0,1.0,0.986389,0.057251,0.127319,0.086243,-0.061069,-0.007634,-0.10687,-1.893726,2.178442,9.106153,0.470142,0.855347,-0.309839,0.233276,0.95105,-0.295483,bad
1616136080.387814,1,11.0,9.0,-4.0,-1.0,0.0,0.986572,0.056702,0.127136,0.084839,-0.038168,-0.015267,-0.099237,-1.905689,2.104272,9.079834,0.458179,0.795532,-0.33855,0.226099,0.892432,-0.328979,bad
1616136080.397825,1,11.0,9.0,-4.0,4.0,0.0,0.986694,0.056519,0.126892,0.083679,-0.015267,-0.015267,-0.076336,-1.94397,2.065991,9.088208,0.416309,0.764429,-0.331372,0.194995,0.852954,-0.317017,bad
1616136080.4078417,1,9.0,8.0,-4.0,0.0,1.0,0.986816,0.056702,0.126709,0.082703,0.0,-0.015267,-0.061069,-2.006177,2.075562,9.109741,0.351709,0.772803,-0.311035,0.13877,0.846973,-0.279932,bad
1616136080.4179704,1,12.0,9.0,-5.0,-2.0,3.0,0.986877,0.057129,0.126587,0.08197,0.007634,-0.015267,-0.045802,-2.06958,2.122217,9.14563,0.287109,0.813477,-0.275146,0.082544,0.872095,-0.224902,bad
1616136080.4277372,1,12.0,9.0,-3.0,2.0,0.0,0.986877,0.0578,0.126526,0.081421,0.015267,-0.015267,-0.038168,-2.138965,2.191602,9.189893,0.215332,0.870898,-0.229687,0.017944,0.911572,-0.154321,bad
1616136080.4377604,1,8.0,9.0,-2.0,-1.0,-2.0,0.986877,0.058594,0.126587,0.080933,0.022901,-0.007634,-0.030534,-2.216724,2.275342,9.240137,0.13877,0.940283,-0.177051,-0.049048,0.961816,-0.075366,bad
1616136080.4483542,1,10.0,11.0,-4.0,3.0,1.0,0.986816,0.059387,0.126831,0.080505,0.022901,0.007634,-0.030534,-2.278931,2.350708,9.289185,0.080151,1.001294,-0.124414,-0.099292,1.006079,0.0,bad
1616136080.458031,1,11.0,10.0,-3.0,-2.0,2.0,0.986755,0.060242,0.127136,0.080139,0.022901,0.015267,-0.030534,-2.329175,2.424878,9.340625,0.034692,1.059912,-0.069385,-0.135181,1.050342,0.071777,bad
1616136080.467852,1,10.0,9.0,-4.0,-1.0,-1.0,0.986694,0.060913,0.127625,0.079773,0.015267,0.022901,-0.022901,-2.381812,2.476318,9.396851,-0.008374,1.098193,-0.00957,-0.166284,1.075464,0.147144,bad
1616136080.4778495,1,8.0,9.0,-4.0,-4.0,0.0,0.986572,0.061523,0.128235,0.07959,0.007634,0.030534,-0.022901,-2.418896,2.487085,9.432739,-0.034692,1.096997,0.029907,-0.179443,1.064697,0.192603,bad
1616136080.4878654,1,11.0,8.0,-5.0,-5.0,26.0,0.986511,0.062012,0.128845,0.079468,0.007634,0.030534,-0.007634,-2.442822,2.461963,9.457861,-0.047852,1.061108,0.058618,-0.179443,1.02522,0.218921,bad
1616136080.4979098,1,11.0,9.0,-3.0,-2.0,0.0,0.986389,0.062561,0.129333,0.079529,0.007634,0.022901,0.0,-2.452393,2.414111,9.466235,-0.049048,1.00249,0.070581,-0.168677,0.965405,0.223706,bad
1616136080.5073729,1,9.0,10.0,-7.0,-2.0,-3.0,0.986267,0.063171,0.129761,0.079712,0.022901,0.015267,0.007634,-2.460767,2.367456,9.467432,-0.050244,0.942676,0.076563,-0.160303,0.905591,0.22251,bad
1616136080.5171494,1,12.0,9.0,-4.0,-2.0,1.0,0.986145,0.063965,0.130066,0.079956,0.030534,0.007634,0.015267,-2.481103,2.34353,9.471021,-0.066992,0.903198,0.08374,-0.168677,0.862524,0.228491,bad
1616136080.5272768,1,9.0,8.0,-7.0,-2.0,-1.0,0.986023,0.06488,0.13031,0.080261,0.030534,0.0,0.015267,-2.525366,2.362671,9.498535,-0.108862,0.903198,0.114844,-0.19978,0.851758,0.270361,bad
1616136080.5372443,1,9.0,10.0,-5.0,-4.0,3.0,0.985962,0.065735,0.130493,0.080444,0.022901,0.0,0.007634,-2.569629,2.390186,9.536817,-0.150732,0.913965,0.155518,-0.230884,0.850561,0.322998,bad
1616136080.5470638,1,11.0,17.0,-30.0,0.0,-1.0,0.985901,0.066406,0.130615,0.080505,0.015267,-0.007634,0.0,-2.603125,2.424878,9.587061,-0.183032,0.935498,0.208154,-0.250024,0.858936,0.386401,bad
1616136080.5571232,1,11.0,10.0,-7.0,0.0,3.0,0.98584,0.066833,0.130676,0.080444,-0.007634,-0.007634,-0.015267,-2.623462,2.45,9.624146,-0.203369,0.952246,0.246436,-0.261987,0.86731,0.430664,bad
1616136080.567211,1,8.0,10.0,-2.0,-1.0,-3.0,0.98584,0.066956,0.130615,0.080261,-0.022901,-0.015267,-0.022901,-2.612695,2.430859,9.646875,-0.193799,0.930713,0.270361,-0.242847,0.845776,0.448608,bad
1616136082.4060411,1,11.0,10.0,-2.0,0.0,-1.0,0.270386,0.63623,0.036926,0.721558,-0.015267,-0.007634,-0.022901,8.705396,4.115234,1.920044,-0.095703,0.220117,0.081348,0.004785,-0.252417,0.016748,bad
1616136082.4151623,1,9.0,10.0,-3.0,-1.0,1.0,0.27063,0.63623,0.03717,0.721497,0.007634,0.0,-0.022901,8.737696,4.038672,1.898511,-0.062207,0.137573,0.058618,0.00957,-0.160303,0.00957,bad
1616136082.4253266,1,11.0,11.0,-2.0,2.0,4.0,0.270569,0.636169,0.037659,0.721497,0.022901,0.007634,-0.022901,8.76521,3.996802,1.866211,-0.031104,0.089722,0.026318,-0.003589,-0.096899,0.011963,bad
1616136082.434957,1,11.0,9.0,-6.0,-2.0,-1.0,0.270203,0.63623,0.03833,0.721558,0.045802,0.007634,-0.007634,8.787939,4.006372,1.849463,-0.005981,0.094507,0.011963,-0.020337,-0.086133,0.033496,bad
1616136082.4449344,1,9.0,10.0,-4.0,-2.0,-1.0,0.269653,0.636292,0.03894,0.72168,0.045802,0.007634,0.007634,8.795117,4.067383,1.849463,0.0,0.153125,0.014355,-0.038281,-0.133984,0.063403,bad
1616136082.4550538,1,10.0,9.0,-5.0,2.0,-1.0,0.269104,0.636353,0.03949,0.721802,0.038168,0.007634,0.015267,8.786743,4.165479,1.88894,-0.007178,0.250024,0.056226,-0.031104,-0.23208,0.102881,bad
1616136082.4650528,1,12.0,11.0,-3.0,3.0,0.0,0.268616,0.636414,0.039856,0.721924,0.022901,0.0,0.022901,8.764013,4.264771,1.923633,-0.031104,0.349316,0.093311,-0.027515,-0.337354,0.128003,bad
1616136082.4750445,1,10.0,10.0,-4.0,3.0,-1.0,0.268372,0.636414,0.039978,0.721985,0.007634,-0.007634,0.015267,8.737696,4.341333,1.960718,-0.057422,0.427075,0.130396,-0.017944,-0.425879,0.142358,bad
1616136082.4849954,1,11.0,10.0,-2.0,0.0,3.0,0.268311,0.636475,0.039978,0.721985,-0.007634,-0.015267,0.015267,8.72334,4.37124,1.98584,-0.072974,0.458179,0.156714,-0.002393,-0.466553,0.145947,bad
