"Alphabet","timestamp","user_id","flex_1","flex_2","flex_3","flex_4","flex_5","Qw","Qx","Qy","Qz","GYRx","GYRy","GYRz","ACCx","ACCy","ACCz","ACCx_body","ACCy_body","ACCz_body","ACCx_world","ACCy_world","ACCz_world"
"C","1617445328.8576005","7","11","39","36","42","26","0.907349","-0.116394","-0.393677","-0.090271","0.007634","-0.015267","0.015267","6.837988","-1.516895","6.31521","-0.368457","-0.142358","-0.18064","-0.159106","-0.160303","-0.369653"
"C","1617445328.8483453","7","11","39","36","42","20","0.907349","-0.116333","-0.393616","-0.090698","0.007634","-0.015267","0.022901","6.88584","-1.486987","6.272143","-0.320605","-0.117236","-0.224902","-0.089722","-0.151929","-0.368457"
"C","1617445328.83753","7","9","41","38","38","21","0.907288","-0.116272","-0.393677","-0.091248","0.007634","-0.007634","0.022901","6.963599","-1.461865","6.226685","-0.244043","-0.098096","-0.270361","-0.001196","-0.151929","-0.344531"
"C","1617445328.8276634","7","8","40","37","40","21","0.907166","-0.116211","-0.393799","-0.091858","0.007634","0","0.030534","7.059302","-1.414014","6.1573","-0.150732","-0.056226","-0.337354","0.117236","-0.137573","-0.326587"
"C","1617445328.8175366","7","9","41","37","39","23","0.907043","-0.116089","-0.393982","-0.092468","0.007634","0.007634","0.038168","7.158594","-1.336255","6.093896","-0.055029","0.013159","-0.398364","0.24165","-0.095703","-0.30625"
"C","1617445328.807591","7","10","40","36","39","25","0.906921","-0.115906","-0.394165","-0.09314","0.007634","0.007634","0.038168","7.257886","-1.258496","6.034082","0.039478","0.081348","-0.456982","0.363672","-0.053833","-0.284717"
"C","1617445328.797541","7","9","40","40","39","23","0.906799","-0.115723","-0.394287","-0.093811","0.007634","0.007634","0.038168","7.338037","-1.186719","5.981445","0.117236","0.144751","-0.508423","0.468945","-0.014355","-0.269165"
"C","1617445328.7877686","7","8","39","38","41","21","0.906738","-0.115601","-0.394409","-0.094421","0.007634","0.007634","0.038168","7.39187","-1.126904","5.940772","0.16748","0.197388","-0.5479","0.543115","0.019141","-0.265576"
"C","1617445328.777694","7","9","42","36","38","24","0.906677","-0.11554","-0.394348","-0.095032","0.007634","0","0.030534","7.416992","-1.080249","5.913257","0.193799","0.238062","-0.576611","0.592163","0.046655","-0.270361"
"C","1617445328.7676091","7","10","40","36","38","23","0.906677","-0.115479","-0.394287","-0.09552","0","0","0.030534","7.421777","-1.03479","5.909668","0.198584","0.278735","-0.581396","0.608911","0.08374","-0.275146"
"C","1617445328.757724","7","8","40","40","40","23","0.906677","-0.115356","-0.394165","-0.095947","0","0","0.022901","7.416992","-0.986938","5.916846","0.194995","0.320605","-0.575415","0.613696","0.12561","-0.279932"
"C","1617445328.7485266","7","7","41","32","40","21","0.906738","-0.115295","-0.393982","-0.096252","-0.007634","0","0.015267","7.395459","-0.945068","5.928809","0.175854","0.360083","-0.567041","0.605322","0.16748","-0.294287"
"C","1617445328.7383676","7","7","39","36","49","-3","0.90686","-0.115173","-0.393799","-0.096375","-0.015267","-0.007634","0","7.379907","-0.922339","5.956323","0.162695","0.38042","-0.544312","0.586182","0.193799","-0.290698"
"C","1617445328.7276947","7","8","41","36","39","23","0.906982","-0.115173","-0.393494","-0.096313","-0.015267","-0.007634","-0.007634","7.360766","-0.921143","5.987427","0.147144","0.382812","-0.516797","0.557471","0.205762","-0.284717"
"C","1617445328.7182302","7","7","39","34","40","25","0.907104","-0.115173","-0.393188","-0.09613","-0.015267","-0.015267","-0.015267","7.327271","-0.946265","6.029297","0.119629","0.360083","-0.479712","0.507227","0.196191","-0.277539"
"C","1617445328.7082918","7","11","39","37","36","23","0.907349","-0.115173","-0.392761","-0.095764","-0.015267","-0.015267","-0.022901","7.279419","-1.008472","6.077148","0.077759","0.301465","-0.439038","0.434253","0.155518","-0.27395"
"C","1617445328.6983182","7","9","38","34","40","21","0.907593","-0.115295","-0.392273","-0.095215","-0.015267","-0.022901","-0.038168","7.217212","-1.089819","6.141748","0.023926","0.228491","-0.38042","0.33855","0.107666","-0.265576"
"C","1617445328.688476","7","7","39","32","36","21","0.907837","-0.115356","-0.391785","-0.094666","-0.022901","-0.022901","-0.045802","7.138257","-1.165186","6.20874","-0.046655","0.160303","-0.320605","0.230884","0.065796","-0.269165"
"C","1617445328.678399","7","8","40","33","39","23","0.908142","-0.115417","-0.391296","-0.093933","-0.022901","-0.022901","-0.053435","7.052124","-1.232178","6.281714","-0.124414","0.101685","-0.25481","0.117236","0.034692","-0.27395"
"C","1617445328.6684265","7","9","39","36","39","21","0.908447","-0.115417","-0.390869","-0.093079","-0.030534","-0.015267","-0.053435","6.957617","-1.295581","6.361865","-0.211743","0.045459","-0.181836","-0.005981","0.008374","-0.282324"
"C","1617445328.658518","7","8","40","37","38","21","0.908691","-0.115356","-0.390503","-0.092163","-0.030534","-0.015267","-0.061069","6.85354","-1.337451","6.437232","-0.308643","0.010767","-0.112451","-0.128003","0.002393","-0.301465"
"C","1617445328.6482975","7","9","41","37","41","23","0.908936","-0.115234","-0.390198","-0.091248","-0.038168","-0.015267","-0.061069","6.75664","-1.37334","6.497046","-0.400757","-0.017944","-0.058618","-0.235669","-0.002393","-0.328979"
"C","1617445328.6382897","7","10","39","36","40","24","0.90918","-0.115112","-0.389893","-0.090271","-0.038168","-0.022901","-0.053435","6.656152","-1.398462","6.54729","-0.495264","-0.035889","-0.013159","-0.336157","0","-0.364868"
"C","1617445328.6283932","7","9","41","36","41","24","0.909363","-0.114868","-0.389709","-0.089355","-0.038168","-0.015267","-0.053435","6.574805","-1.406836","6.584375","-0.571826","-0.04187","0.019141","-0.41272","0.005981","-0.398364"
"C","1617445328.6182785","7","9","38","38","40","21","0.909546","-0.114624","-0.389587","-0.088501","-0.038168","-0.015267","-0.045802","6.501831","-1.403247","6.616675","-0.641211","-0.034692","0.047852","-0.477319","0.025122","-0.429468"
"C","1617445328.6084125","7","10","40","38","39","24","0.909668","-0.114319","-0.389526","-0.087769","-0.030534","-0.015267","-0.038168","6.449194","-1.404443","6.647779","-0.691455","-0.035889","0.077759","-0.532349","0.035889","-0.446216"
"C","1617445328.5984569","7","9","41","38","40","24","0.909729","-0.114136","-0.389526","-0.087158","-0.022901","-0.015267","-0.030534","6.430054","-1.419995","6.675293","-0.709399","-0.050244","0.104077","-0.567041","0.029907","-0.439038"
"C","1617445328.5882466","7","7","37","39","40","21","0.90979","-0.113953","-0.389587","-0.086731","-0.022901","-0.015267","-0.022901","6.422876","-1.452295","6.687256","-0.717773","-0.082544","0.11604","-0.588574","0.001196","-0.433057"
"C","1617445328.5785606","7","9","38","38","40","25","0.909851","-0.11377","-0.389587","-0.086365","-0.022901","-0.022901","-0.022901","6.410913","-1.455884","6.701612","-0.72854","-0.086133","0.129199","-0.606519","0.002393","-0.43186"
"C","1617445328.5685215","7","9","24","37","39","24","0.909912","-0.113586","-0.389526","-0.086182","-0.015267","-0.022901","-0.015267","6.391772","-1.409229","6.725537","-0.746484","-0.040674","0.151929","-0.623267","0.052637","-0.435449"
"C","1617445328.5583737","7","11","39","36","36","20","0.909973","-0.113464","-0.389465","-0.08606","-0.007634","-0.022901","0","6.388184","-1.409229","6.735107","-0.748877","-0.04187","0.159106","-0.630444","0.053833","-0.43186"
"C","1617445328.5484054","7","10","39","36","40","20","0.909973","-0.113403","-0.389465","-0.086182","0","-0.022901","0.007634","6.416894","-1.414014","6.733911","-0.720166","-0.049048","0.15791","-0.611304","0.045459","-0.411523"
"C","1617445328.538533","7","9","37","38","40","22","0.909912","-0.113403","-0.389526","-0.086487","0.007634","-0.015267","0.022901","6.459961","-1.410425","6.717163","-0.678296","-0.047852","0.142358","-0.571826","0.039478","-0.391187"
"C","1617445328.5284042","7","9","40","37","38","23","0.909851","-0.113342","-0.389587","-0.087036","0.007634","-0.015267","0.030534","6.509009","-1.388892","6.690845","-0.631641","-0.031104","0.11604","-0.517993","0.045459","-0.378027"
"C","1617445328.5183938","7","8","40","37","39","22","0.909668","-0.113281","-0.389832","-0.087646","0.007634","-0.007634","0.038168","6.583179","-1.342236","6.647779","-0.56106","0.007178","0.077759","-0.433057","0.066992","-0.35769"
"C","1617445328.5083487","7","9","40","37","41","21","0.909485","-0.113159","-0.390137","-0.088379","0.007634","0","0.045802","6.682471","-1.284814","6.586768","-0.467749","0.056226","0.020337","-0.317017","0.093311","-0.334961"
"C","1617445328.4985309","7","11","41","34","39","22","0.909241","-0.113037","-0.390503","-0.089172","0.007634","0","0.045802","6.785352","-1.229785","6.510205","-0.37085","0.101685","-0.049048","-0.191406","0.111255","-0.317017"
"C","1617445328.4882524","7","8","40","38","35","20","0.909058","-0.112915","-0.390869","-0.089966","0.015267","0.007634","0.053435","6.898999","-1.181934","6.410913","-0.26438","0.139966","-0.144751","-0.043066","0.113647","-0.308643"
"C","1617445328.4784596","7","8","39","36","40","24","0.908813","-0.112915","-0.391235","-0.090881","0.015267","0.007634","0.053435","7.009058","-1.148438","6.322388","-0.160303","0.165088","-0.227295","0.089722","0.10647","-0.290698"
"C","1617445328.4684048","7","7","42","33","40","26","0.908569","-0.112915","-0.391602","-0.091797","0.022901","0.007634","0.053435","7.126294","-1.138867","6.239844","-0.050244","0.166284","-0.303857","0.217725","0.078955","-0.260791"
"C","1617445328.4584112","7","9","41","36","42","23","0.908325","-0.113037","-0.391846","-0.092773","0.022901","0.007634","0.053435","7.22439","-1.143652","6.177637","0.04187","0.155518","-0.361279","0.317017","0.044263","-0.230884"
"C","1617445328.4484713","7","9","39","37","37","23","0.908081","-0.113159","-0.39209","-0.093689","0.030534","0.015267","0.045802","7.316504","-1.152026","6.117822","0.129199","0.141162","-0.416309","0.410327","0.008374","-0.200977"
"C","1617445328.438411","7","9","40","36","39","20","0.907898","-0.113342","-0.392273","-0.094604","0.022901","0.015267","0.045802","7.39187","-1.149634","6.081933","0.200977","0.13877","-0.449805","0.482104","-0.00957","-0.169873"
"C","1617445328.4283855","7","7","39","37","42","24","0.907715","-0.113403","-0.392456","-0.095459","0.022901","0.007634","0.045802","7.450488","-1.123315","6.0604","0.256006","0.159106","-0.467749","0.537134","0","-0.143555"
"C","1617445328.4187686","7","8","29","36","38","25","0.907593","-0.113525","-0.392517","-0.096252","0.022901","0.007634","0.038168","7.480395","-1.095801","6.029297","0.283521","0.183032","-0.497656","0.582593","0.00957","-0.145947"
"C","1617445328.408351","7","9","39","37","42","24","0.907471","-0.113708","-0.392578","-0.096985","0.022901","0.007634","0.038168","7.505517","-1.081445","6.012549","0.30625","0.193799","-0.512012","0.610107","0.013159","-0.141162"
"C","1617445328.398414","7","8","38","36","41","23","0.90741","-0.113892","-0.392517","-0.097656","0.022901","0.007634","0.030534","7.519873","-1.079053","5.992212","0.320605","0.194995","-0.532349","0.634033","0.007178","-0.143555"
"C","1617445328.388336","7","8","39","34","41","23","0.907349","-0.114136","-0.392456","-0.098267","0.022901","0.007634","0.022901","7.528247","-1.068286","5.98623","0.327783","0.204565","-0.53833","0.645996","0.013159","-0.143555"
"C","1617445328.3786223","7","9","36","42","44","26","0.907288","-0.11438","-0.392456","-0.098816","0.015267","0.007634","0.022901","7.52107","-1.03479","5.983838","0.319409","0.238062","-0.540723","0.650781","0.044263","-0.155518"
"C","1617445328.3683825","7","11","40","36","40","19","0.907227","-0.114441","-0.392395","-0.099182","0.007634","0.007634","0.007634","7.49834","-0.98335","5.98982","0.297876","0.288306","-0.534741","0.645996","0.094507","-0.173462"
"C","1617445328.3587074","7","8","38","36","40","17","0.907227","-0.114563","-0.392334","-0.099304","0","0.007634","0","7.469629","-0.949854","6.004175","0.269165","0.322998","-0.520386","0.625659","0.133984","-0.19021"
"C","1617445328.348578","7","11","40","38","41","23","0.907288","-0.114685","-0.392212","-0.099182","-0.007634","0.007634","-0.015267","7.428955","-0.945068","6.01853","0.230884","0.331372","-0.508423","0.594556","0.149536","-0.211743"
"C","1617445328.3386066","7","9","41","36","36","24","0.907349","-0.114807","-0.39209","-0.098877","-0.007634","0.007634","-0.022901","7.375122","-0.965405","6.049634","0.179443","0.31582","-0.478516","0.534741","0.14834","-0.227295"
"C","1617445328.328342","7","9","37","35","43","23","0.907471","-0.11499","-0.391907","-0.098389","-0.015267","0","-0.038168","7.3177","-1.008472","6.080737","0.124414","0.279932","-0.448608","0.467749","0.126807","-0.244043"
"C","1617445328.3185823","7","9","40","36","40","24","0.907593","-0.115234","-0.391724","-0.097778","-0.015267","0","-0.045802","7.250708","-1.062305","6.128589","0.061011","0.235669","-0.403149","0.381616","0.104077","-0.25481"
"C","1617445328.3085356","7","9","42","36","39","23","0.907715","-0.11554","-0.391479","-0.096985","-0.015267","0","-0.053435","7.160986","-1.136475","6.182422","-0.022729","0.174658","-0.350513","0.271558","0.068188","-0.272754"
"C","1617445328.29853","7","10","42","36","38","25","0.907837","-0.115845","-0.391296","-0.09613","-0.015267","0.007634","-0.061069","7.074853","-1.227393","6.235059","-0.105273","0.095703","-0.300269","0.160303","0.014355","-0.289502"
"C","1617445328.2887006","7","12","43","36","36","24","0.907959","-0.116089","-0.391174","-0.095215","-0.015267","0.007634","-0.061069","6.988721","-1.303955","6.290088","-0.189014","0.031104","-0.245239","0.049048","-0.023926","-0.305054"
"C","1617445328.278418","7","10","39","36","40","23","0.908081","-0.116211","-0.391113","-0.094299","-0.022901","0","-0.061069","6.902588","-1.349414","6.337939","-0.272754","-0.003589","-0.198584","-0.047852","-0.037085","-0.331372"
"C","1617445328.2685375","7","8","38","35","38","24","0.908203","-0.116272","-0.391113","-0.093323","-0.030534","0","-0.061069","6.824829","-1.356592","6.38938","-0.349316","-0.001196","-0.147144","-0.135181","-0.014355","-0.352905"
"C","1617445328.258659","7","7","41","38","42","23","0.908325","-0.116211","-0.391052","-0.092285","-0.030534","0","-0.061069","6.757837","-1.355396","6.424072","-0.413916","0.005981","-0.113647","-0.19978","0.004785","-0.379224"
"C","1617445328.2484312","7","9","39","36","44","21","0.908447","-0.11615","-0.391052","-0.091248","-0.030534","0","-0.061069","6.711182","-1.36377","6.468335","-0.459375","0.004785","-0.069385","-0.261987","0.019141","-0.382812"
"C","1617445328.238518","7","9","40","36","39","25","0.908508","-0.116089","-0.391052","-0.090271","-0.030534","-0.007634","-0.053435","6.681274","-1.386499","6.506616","-0.48689","-0.010767","-0.031104","-0.311035","0.015552","-0.374438"
"C","1617445328.2285683","7","9","41","38","83","15","0.90863","-0.116089","-0.391052","-0.089478","-0.022901","-0.007634","-0.045802","6.654956","-1.402051","6.540112","-0.512012","-0.020337","0.001196","-0.352905","0.016748","-0.369653"
"C","1617445328.2187512","7","11","41","37","-1","23","0.908691","-0.116028","-0.390991","-0.088745","-0.022901","-0.015267","-0.045802","6.620264","-1.412817","6.574805","-0.544312","-0.026318","0.034692","-0.399561","0.022729","-0.37085"
"C","1617445328.2085338","7","9","39","38","38","21","0.908813","-0.116028","-0.39093","-0.088074","-0.015267","-0.015267","-0.038168","6.577197","-1.42478","6.595141","-0.586182","-0.0323","0.053833","-0.442627","0.023926","-0.387598"
"C","1617445328.1985023","7","7","37","36","38","23","0.908875","-0.116089","-0.390869","-0.087524","-0.007634","-0.015267","-0.030534","6.562842","-1.443921","6.610693","-0.598145","-0.045459","0.069385","-0.465356","0.015552","-0.384009"
"C","1617445328.1886735","7","9","39","34","40","25","0.908936","-0.116211","-0.390808","-0.087158","-0.007634","-0.015267","-0.030534","6.548486","-1.459473","6.616675","-0.611304","-0.056226","0.07417","-0.479712","0.007178","-0.388794"
"C","1617445328.1785831","7","7","39","36","39","23","0.908936","-0.116272","-0.390808","-0.086853","-0.007634","-0.015267","-0.022901","6.538916","-1.463062","6.610693","-0.620874","-0.056226","0.069385","-0.483301","0.005981","-0.398364"
"C","1617445328.1686509","7","8","40","37","42","25","0.908997","-0.116333","-0.390808","-0.086609","-0.007634","-0.015267","-0.015267","6.534131","-1.460669","6.604712","-0.625659","-0.05144","0.062207","-0.479712","0.00957","-0.407935"
"C","1617445328.1586628","7","7","40","37","42","21","0.908997","-0.116333","-0.390808","-0.086487","-0.007634","-0.015267","-0.015267","6.549683","-1.452295","6.578393","-0.610107","-0.04187","0.035889","-0.448608","0.00957","-0.415112"
"C","1617445328.1487577","7","8","41","33","39","23","0.908936","-0.116394","-0.39093","-0.086426","0","-0.007634","-0.007634","6.587964","-1.44751","6.546094","-0.573022","-0.035889","0.005981","-0.401953","0.004785","-0.409131"
"C","1617445328.138625","7","8","39","37","35","22","0.908813","-0.116455","-0.391174","-0.086487","0.007634","0","0","6.656152","-1.448706","6.497046","-0.508423","-0.037085","-0.037085","-0.327783","-0.011963","-0.38999"
"C","1617445328.1286194","7","8","40","36","38","21","0.908691","-0.116516","-0.391418","-0.08667","0.007634","0","0.007634","6.742285","-1.455884","6.421679","-0.425879","-0.045459","-0.108862","-0.224902","-0.045459","-0.376831"
"C","1617445328.119196","7","8","37","38","41","23","0.908508","-0.116638","-0.391724","-0.086975","0.015267","0.007634","0.015267","6.839185","-1.45708","6.334351","-0.334961","-0.047852","-0.191406","-0.10647","-0.076563","-0.364868"
"C","1617445328.1087265","7","9","38","35","39","26","0.908264","-0.11676","-0.392151","-0.087463","0.015267","0.015267","0.022901","6.945654","-1.44751","6.235059","-0.234473","-0.040674","-0.283521","0.026318","-0.101685","-0.354102"
"C","1617445328.0986035","7","7","41","34","41","21","0.90802","-0.116821","-0.392578","-0.087952","0.015267","0.015267","0.030534","7.060498","-1.422388","6.128589","-0.126807","-0.019141","-0.382812","0.173462","-0.117236","-0.344531"
"C","1617445328.0884686","7","9","40","36","40","23","0.907776","-0.116821","-0.393005","-0.088501","0.007634","0.015267","0.030534","7.164575","-1.37334","6.016138","-0.029907","0.022729","-0.488086","0.322998","-0.113647","-0.34812"
"C","1617445328.0783715","7","9","40","38","41","23","0.907593","-0.11676","-0.393311","-0.088989","0.007634","0.015267","0.030534","7.25669","-1.313525","5.924024","0.056226","0.076563","-0.575415","0.455786","-0.092114","-0.350513"
"C","1617445328.0687091","7","9","40","35","39","24","0.907471","-0.116638","-0.393555","-0.089478","0","0.015267","0.022901","7.335645","-1.244141","5.861816","0.130396","0.139966","-0.635229","0.563452","-0.053833","-0.344531"
"C","1617445328.0585213","7","10","39","40","39","24","0.907349","-0.116516","-0.393677","-0.089966","0.007634","0.007634","0.022901","7.389478","-1.199878","5.822339","0.181836","0.177051","-0.672314","0.632837","-0.0323","-0.336157"
"C","1617445328.0485792","7","9","39","30","39","20","0.907349","-0.116516","-0.393677","-0.090393","0.007634","0.007634","0.022901","7.416992","-1.171167","5.790039","0.209351","0.203369","-0.705811","0.681885","-0.019141","-0.342139"
"C","1617445328.0387704","7","9","40","36","42","23","0.907288","-0.116577","-0.393616","-0.090881","0.015267","0","0.022901","7.43374","-1.162793","5.785254","0.226099","0.208154","-0.710596","0.697437","-0.017944","-0.333765"
"C","1617445328.0294151","7","11","41","38","40","24","0.907288","-0.11676","-0.393433","-0.09137","0.015267","0","0.022901","7.443311","-1.171167","5.794824","0.236865","0.19978","-0.703418","0.697437","-0.025122","-0.319409"
"C","1617445328.0192103","7","8","37","35","37","24","0.907349","-0.116943","-0.393188","-0.091858","0.015267","-0.007634","0.015267","7.436133","-1.1927","5.805591","0.23208","0.178247","-0.695044","0.683081","-0.044263","-0.314624"
"C","1617445328.0092115","7","9","40","36","42","23","0.90741","-0.117188","-0.392883","-0.092163","0.007634","-0.015267","0.007634","7.402637","-1.223804","5.815161","0.203369","0.149536","-0.689062","0.651978","-0.068188","-0.327783"
"C","1617445327.9993114","7","8","40","31","22","15","0.907593","-0.117249","-0.392456","-0.092346","0","-0.015267","-0.007634","7.357178","-1.246533","5.842676","0.162695","0.128003","-0.668726","0.604126","-0.080151","-0.342139"
"C","1617445327.9884694","7","9","40","35","40","23","0.907776","-0.117188","-0.391968","-0.092285","-0.015267","-0.015267","-0.015267","7.294971","-1.251318","5.885742","0.108862","0.124414","-0.632837","0.541919","-0.069385","-0.35769"
"C","1617445327.9787178","7","10","41","36","40","25","0.908081","-0.117126","-0.391418","-0.091919","-0.022901","-0.022901","-0.030534","7.218408","-1.27644","5.933594","0.040674","0.102881","-0.593359","0.462964","-0.072974","-0.379224"
"C","1617445327.9693284","7","9","41","36","37","21","0.908386","-0.117065","-0.39093","-0.09137","-0.022901","-0.022901","-0.038168","7.131079","-1.336255","5.977857","-0.038281","0.047852","-0.557471","0.369653","-0.108862","-0.405542"
"C","1617445327.9592102","7","9","39","36","38","22","0.90863","-0.117065","-0.390381","-0.090698","-0.022901","-0.015267","-0.045802","7.055713","-1.423584","6.037671","-0.104077","-0.0323","-0.50603","0.269165","-0.166284","-0.409131"
"C","1617445327.9493914","7","9","40","35","41","23","0.908936","-0.117065","-0.389893","-0.089966","-0.022901","-0.015267","-0.045802","6.968384","-1.512109","6.110644","-0.183032","-0.113647","-0.440234","0.14834","-0.218921","-0.411523"
"C","1617445327.9393346","7","8","39","33","36","24","0.90918","-0.117004","-0.389526","-0.089294","-0.022901","-0.015267","-0.045802","6.859521","-1.564746","6.195581","-0.285913","-0.160303","-0.361279","0.011963","-0.234473","-0.427075"
"C","1617445327.9293652","7","10","40","37","42","23","0.909424","-0.11676","-0.389221","-0.088623","-0.030534","-0.007634","-0.038168","6.755445","-1.583887","6.293677","-0.384009","-0.178247","-0.269165","-0.120825","-0.218921","-0.434253"
"C","1617445327.9193394","7","8","38","34","40","23","0.909607","-0.116333","-0.389038","-0.088013","-0.045802","-0.007634","-0.038168","6.648974","-1.55398","6.38938","-0.48689","-0.150732","-0.178247","-0.246436","-0.160303","-0.452197"
"C","1617445327.9092765","7","8","39","36","39","24","0.90979","-0.115784","-0.388916","-0.08728","-0.053435","-0.015267","-0.038168","6.544898","-1.484595","6.48269","-0.587378","-0.084937","-0.089722","-0.360083","-0.065796","-0.474927"
"C","1617445327.8992765","7","11","38","38","43","25","0.909912","-0.115173","-0.388855","-0.086609","-0.053435","-0.015267","-0.030534","6.480298","-1.40564","6.566431","-0.649585","-0.010767","-0.008374","-0.440234","0.031104","-0.476123"
"C","1617445327.8892124","7","9","40","38","42","21","0.910034","-0.114441","-0.388916","-0.085999","-0.061069","-0.007634","-0.022901","6.467139","-1.33147","6.63103","-0.661548","0.053833","0.052637","-0.47373","0.110059","-0.453394"
"C","1617445327.8794296","7","9","39","36","39","22","0.910156","-0.113708","-0.389099","-0.085449","-0.053435","-0.007634","-0.015267","6.480298","-1.252515","6.680078","-0.650781","0.123218","0.100488","-0.483301","0.189014","-0.42229"
"C","1617445327.8694727","7","9","39","37","40","23","0.910156","-0.113037","-0.389343","-0.084961","-0.045802","0","-0.007634","6.51499","-1.202271","6.706397","-0.618481","0.165088","0.128003","-0.470142","0.234473","-0.386401"
"C","1617445327.8594038","7","11","41","33","40","23","0.910156","-0.112549","-0.389648","-0.084656","-0.038168","0","0","6.572412","-1.191504","6.700415","-0.564648","0.168677","0.123218","-0.428271","0.23208","-0.351709"
"C","1617445327.849208","7","8","39","35","42","24","0.910034","-0.112244","-0.389954","-0.084473","-0.022901","0.007634","0","6.646582","-1.211841","6.690845","-0.494067","0.143555","0.118433","-0.382812","0.202173","-0.300269"
"C","1617445327.8394532","7","8","41","34","41","20","0.909912","-0.112","-0.390381","-0.084412","-0.015267","0.007634","0.007634","6.721948","-1.221411","6.675293","-0.424683","0.129199","0.107666","-0.331372","0.18064","-0.25481"
"C","1617445327.829353","7","9","39","35","41","17","0.90979","-0.111816","-0.390686","-0.084473","-0.015267","0","0.007634","6.776978","-1.189111","6.642993","-0.374438","0.15791","0.078955","-0.270361","0.197388","-0.24165"
"C","1617445327.8192563","7","7","43","37","39","21","0.909668","-0.111572","-0.390991","-0.084534","-0.015267","0","0","6.81167","-1.137671","6.613086","-0.343335","0.203369","0.052637","-0.220117","0.23208","-0.242847"
"C","1617445327.8094532","7","10","39","37","39","25","0.909607","-0.11145","-0.391235","-0.084473","-0.015267","0","0","6.849951","-1.094604","6.577197","-0.308643","0.244043","0.020337","-0.163892","0.259595","-0.244043"
"C","1617445327.799271","7","10","40","37","38","21","0.909485","-0.111389","-0.391479","-0.084473","-0.007634","0","0","6.897803","-1.080249","6.519775","-0.26438","0.257202","-0.0323","-0.094507","0.256006","-0.248828"
"C","1617445327.789421","7","9","38","37","42","25","0.909363","-0.11145","-0.391724","-0.084473","0","0.007634","0.007634","6.958814","-1.093408","6.451587","-0.206958","0.244043","-0.095703","-0.014355","0.221313","-0.247632"
"C","1617445327.7792037","7","8","39","36","41","23","0.909241","-0.111633","-0.391907","-0.084595","0.007634","0.007634","0.007634","7.02461","-1.140064","6.379809","-0.143555","0.198584","-0.163892","0.063403","0.155518","-0.240454"
"C","1617445327.7693317","7","9","40","36","39","24","0.909119","-0.111877","-0.39209","-0.084778","0.007634","0.007634","0.007634","7.073657","-1.18313","6.319995","-0.098096","0.15791","-0.220117","0.124414","0.098096","-0.239258"
"C","1617445327.759222","7","9","39","34","41","22","0.909058","-0.112122","-0.392212","-0.085022","0.007634","0.007634","0.007634","7.099976","-1.207056","6.280518","-0.07417","0.136377","-0.257202","0.160303","0.065796","-0.244043"
"C","1617445327.7494686","7","9","40","37","38","25","0.908997","-0.112244","-0.392334","-0.085205","0.007634","0","0.007634","7.105957","-1.227393","6.255395","-0.070581","0.11604","-0.281128","0.174658","0.039478","-0.25481"
"C","1617445327.7392645","7","11","39","35","41","21","0.908936","-0.112305","-0.392334","-0.085327","0","0","0","7.095191","-1.239355","6.243433","-0.081348","0.104077","-0.291895","0.172266","0.025122","-0.267969"
"C","1617445327.7294722","7","9","40","35","38","21","0.908936","-0.112366","-0.392273","-0.085327","0","-0.007634","0","7.083228","-1.239355","6.236255","-0.092114","0.105273","-0.299072","0.169873","0.025122","-0.281128"
"C","1617445327.7193615","7","8","40","37","39","21","0.908997","-0.112427","-0.392212","-0.085388","-0.007634","-0.007634","0","7.089209","-1.241748","6.244629","-0.086133","0.104077","-0.291895","0.168677","0.026318","-0.271558"
"C","1617445327.7093935","7","10","36","36","42","22","0.908997","-0.112366","-0.392151","-0.085388","-0.007634","-0.007634","0","7.093994","-1.23457","6.25061","-0.080151","0.110059","-0.287109","0.171069","0.0323","-0.26438"
"C","1617445327.6994154","7","7","39","34","42","22","0.909058","-0.112366","-0.39209","-0.085388","-0.007634","-0.007634","0","7.098779","-1.248926","6.25061","-0.07417","0.096899","-0.288306","0.172266","0.019141","-0.259595"
"C","1617445327.689397","7","7","39","34","40","23","0.909058","-0.112366","-0.391968","-0.085449","0","-0.007634","0","7.095191","-1.269263","6.261377","-0.076563","0.075366","-0.278735","0.159106","0.001196","-0.251221"
"C","1617445327.6796002","7","9","38","36","41","20","0.909119","-0.112366","-0.391907","-0.085449","0","-0.007634","0","7.093994","-1.2896","6.268555","-0.076563","0.056226","-0.272754","0.150732","-0.014355","-0.245239"
"C","1617445327.6694613","7","10","42","37","40","23","0.909119","-0.112366","-0.391785","-0.085449","0","-0.007634","-0.007634","7.090405","-1.295581","6.296069","-0.077759","0.050244","-0.246436","0.129199","-0.013159","-0.227295"
"C","1617445327.6594737","7","9","41","36","41","21","0.909241","-0.112427","-0.391602","-0.085449","0","-0.015267","-0.007634","7.070068","-1.287207","6.314013","-0.096899","0.059814","-0.23208","0.108862","0","-0.233276"
"C","1617445327.6494455","7","9","39","36","41","23","0.909302","-0.112427","-0.391418","-0.085449","-0.007634","-0.015267","-0.007634","7.049731","-1.280029","6.341528","-0.113647","0.066992","-0.206958","0.081348","0.015552","-0.229687"
"C","1617445327.6392994","7","6","41","38","35","21","0.909424","-0.112366","-0.391174","-0.085449","0","-0.015267","-0.007634","7.031787","-1.27644","6.363061","-0.128003","0.070581","-0.19021","0.061011","0.023926","-0.229687"
"C","1617445327.629528","7","8","37","37","41","25","0.909485","-0.112427","-0.390991","-0.085449","0","-0.015267","-0.007634","7.013843","-1.271655","6.381006","-0.143555","0.076563","-0.174658","0.04187","0.034692","-0.23208"
"C","1617445327.6193025","7","9","40","36","38","23","0.909546","-0.112427","-0.390869","-0.085388","-0.007634","-0.007634","-0.007634","6.99231","-1.268066","6.391772","-0.163892","0.081348","-0.165088","0.021533","0.044263","-0.240454"
"C","1617445327.6095283","7","8","37","36","37","20","0.909607","-0.112427","-0.390747","-0.085388","-0.007634","-0.007634","-0.007634","6.983935","-1.248926","6.402539","-0.169873","0.100488","-0.156714","0.016748","0.0646","-0.24165"
"C","1617445327.5994642","7","8","37","36","38","19","0.909607","-0.112427","-0.390686","-0.085327","-0.007634","-0.007634","-0.007634","6.97915","-1.221411","6.409717","-0.173462","0.129199","-0.149536","0.016748","0.094507","-0.244043"
"C","1617445327.5893395","7","10","41","35","39","31","0.909668","-0.112427","-0.390686","-0.085205","-0.007634","0","-0.007634","6.974365","-1.195093","6.408521","-0.178247","0.156714","-0.151929","0.021533","0.120825","-0.252417"
"C","1617445327.579357","7","7","37","37","39","20","0.909607","-0.112488","-0.390747","-0.085022","-0.007634","0","-0.007634","6.96958","-1.185522","6.39895","-0.183032","0.168677","-0.159106","0.026318","0.130396","-0.263184"
"C","1617445327.5696104","7","8","39","34","40","23","0.909607","-0.11261","-0.390808","-0.0849","0","0.007634","-0.015267","6.967187","-1.196289","6.385791","-0.186621","0.160303","-0.171069","0.029907","0.119629","-0.272754"
"C","1617445327.5595431","7","10","58","35","38","21","0.909546","-0.112732","-0.39093","-0.084717","-0.007634","0.007634","-0.015267","6.956421","-1.208252","6.361865","-0.19978","0.151929","-0.192603","0.033496","0.10647","-0.295483"
"C","1617445327.5494556","7","7","37","37","40","23","0.909546","-0.112854","-0.390991","-0.084534","-0.007634","0","-0.015267","6.939673","-1.222607","6.346313","-0.216528","0.141162","-0.206958","0.029907","0.093311","-0.31582"
"C","1617445327.5395997","7","7","38","37","39","25","0.909546","-0.112915","-0.390991","-0.08429","-0.007634","0","-0.022901","6.925317","-1.239355","6.337939","-0.230884","0.126807","-0.215332","0.021533","0.077759","-0.330176"
"C","1617445327.5295956","7","10","40","34","35","20","0.909546","-0.113037","-0.391052","-0.083984","-0.007634","-0.007634","-0.022901","6.909766","-1.262085","6.335547","-0.246436","0.108862","-0.216528","0.008374","0.061011","-0.339746"
"C","1617445327.5195143","7","7","39","38","38","21","0.909607","-0.113159","-0.39093","-0.083618","-0.007634","-0.007634","-0.030534","6.898999","-1.294385","6.319995","-0.256006","0.081348","-0.233276","0.005981","0.031104","-0.354102"
"C","1617445327.5094151","7","7","38","35","35","24","0.909607","-0.113342","-0.390869","-0.083252","0","-0.007634","-0.030534","6.897803","-1.347021","6.318799","-0.25481","0.034692","-0.233276","-0.003589","-0.013159","-0.345728"
"C","1617445327.499464","7","9","40","36","39","21","0.909668","-0.113525","-0.390808","-0.082947","0","-0.007634","-0.022901","6.901392","-1.408032","6.311621","-0.250024","-0.019141","-0.24165","-0.007178","-0.068188","-0.340942"
"C","1617445327.4894671","7","9","39","40","39","19","0.909668","-0.11377","-0.390747","-0.082642","0","-0.007634","-0.022901","6.912158","-1.446314","6.29248","-0.238062","-0.050244","-0.259595","0.004785","-0.104077","-0.339746"
"C","1617445327.479578","7","6","38","36","40","20","0.909668","-0.113892","-0.390686","-0.08252","0","0","-0.015267","6.938477","-1.460669","6.270947","-0.210547","-0.061011","-0.281128","0.035889","-0.122021","-0.332568"
"C","1617445327.4693658","7","7","40","34","40","25","0.909729","-0.113892","-0.390686","-0.082458","0","0","-0.007634","6.952832","-1.442725","6.267358","-0.197388","-0.043066","-0.285913","0.052637","-0.10647","-0.328979"
"C","1617445327.459315","7","7","38","35","42","23","0.909729","-0.113892","-0.390686","-0.082397","0","-0.007634","-0.007634","6.948047","-1.410425","6.257788","-0.200977","-0.00957","-0.295483","0.0646","-0.076563","-0.342139"
"C","1617445327.449674","7","11","37","36","40","24","0.90979","-0.113892","-0.390564","-0.082397","0","-0.007634","0","6.943262","-1.380518","6.242236","-0.204565","0.019141","-0.313428","0.081348","-0.053833","-0.361279"
"C","1617445327.4394076","7","8","40","36","40","23","0.90979","-0.113892","-0.390503","-0.082458","0","-0.007634","0","6.955225","-1.347021","6.245825","-0.191406","0.052637","-0.309839","0.095703","-0.021533","-0.354102"
"C","1617445327.4293697","7","7","41","34","34","20","0.909851","-0.113892","-0.39032","-0.082581","0","-0.015267","0","6.954028","-1.30874","6.270947","-0.19021","0.089722","-0.288306","0.090918","0.019141","-0.343335"
"C","1617445327.4195952","7","7","40","36","39","23","0.909912","-0.113892","-0.390076","-0.082764","0.007634","-0.015267","0.007634","6.930102","-1.280029","6.304443","-0.210547","0.117236","-0.257202","0.062207","0.055029","-0.342139"
"C","1617445327.4095623","7","7","40","38","39","23","0.910034","-0.114014","-0.389832","-0.083008","0.007634","-0.022901","0.007634","6.912158","-1.268066","6.346313","-0.226099","0.130396","-0.220117","0.028711","0.078955","-0.330176"
"C","1617445327.3992808","7","9","39","36","38","24","0.910095","-0.114136","-0.389587","-0.083313","0.015267","-0.022901","0.007634","6.893018","-1.269263","6.379809","-0.24165","0.130396","-0.189014","-0.002393","0.088525","-0.320605"
"C","1617445327.3896148","7","8","40","36","38","21","0.910095","-0.11438","-0.389343","-0.083557","0.015267","-0.015267","0.007634","6.887036","-1.275244","6.397754","-0.245239","0.126807","-0.173462","-0.016748","0.089722","-0.312231"
"C","1617445327.3795311","7","8","41","38","40","25","0.910156","-0.114624","-0.38916","-0.083801","0.007634","-0.015267","0","6.884644","-1.272852","6.407324","-0.245239","0.131592","-0.166284","-0.020337","0.095703","-0.308643"
"C","1617445327.369547","7","10","39","38","40","24","0.910217","-0.114746","-0.388977","-0.083923","0","-0.007634","0","6.883447","-1.252515","6.400146","-0.244043","0.154321","-0.175854","-0.007178","0.114844","-0.317017"
"C","1617445323.6840916","7","7","39","38","38","20","0.911499","-0.101929","-0.386658","-0.096252","0.007634","-0.038168","-0.045802","7.671802","-0.873291","5.836694","0.57063","0.217725","-0.829028","1.012061","-0.061011","-0.174658"
"C","1617445323.6740918","7","8","41","33","39","22","0.911987","-0.102173","-0.385559","-0.095703","-0.007634","-0.045802","-0.053435","7.574903","-0.808691","5.882154","0.490479","0.294287","-0.799121","0.955835","0.027515","-0.22251"
"C","1617445323.6640947","7","8","39","37","38","22","0.912537","-0.102356","-0.384399","-0.095032","-0.007634","-0.053435","-0.061069","7.462451","-0.750073","5.919238","0.395972","0.363672","-0.778784","0.893628","0.108862","-0.287109"
"C","1617445323.6542747","7","6","38","34","40","22","0.913086","-0.102722","-0.383179","-0.094238","0","-0.061069","-0.068702","7.361963","-0.730933","5.946753","0.314624","0.399561","-0.768018","0.838599","0.154321","-0.345728"
"C","1617445323.6443405","7","9","40","37","37","21","0.913635","-0.103271","-0.381897","-0.093384","0.007634","-0.061069","-0.068702","7.286597","-0.757251","5.96709","0.258398","0.392383","-0.764429","0.794336","0.154321","-0.385205"
"C","1617445323.634188","7","9","39","36","38","19","0.914246","-0.103943","-0.380493","-0.092468","0.015267","-0.068702","-0.076336","7.227979","-0.813477","5.987427","0.221313","0.358887","-0.762036","0.757251","0.12561","-0.409131"
"C","1617445323.6243684","7","9","39","33","38","21","0.914856","-0.104736","-0.379089","-0.091553","0.022901","-0.068702","-0.083969","7.171753","-0.903198","6.010156","0.185425","0.294287","-0.757251","0.711792","0.068188","-0.425879"
"C","1617445323.6141684","7","6","38","33","38","17","0.915466","-0.105591","-0.377502","-0.090576","0.015267","-0.076336","-0.091603","7.084424","-0.998901","6.047241","0.123218","0.224902","-0.739307","0.637622","0.011963","-0.452197"
"C","1617445323.6041672","7","7","39","33","36","21","0.916199","-0.106323","-0.375854","-0.089355","0.007634","-0.083969","-0.10687","6.977954","-1.080249","6.090308","0.04187","0.169873","-0.71897","0.551489","-0.027515","-0.490479"
"C","1617445323.5942812","7","4","37","36","38","19","0.916931","-0.106995","-0.374207","-0.087952","-0.007634","-0.076336","-0.122137","6.869092","-1.153223","6.162085","-0.039478","0.124414","-0.667529","0.447412","-0.05144","-0.508423"
"C","1617445323.584463","7","9","38","32","38","23","0.917664","-0.107544","-0.372681","-0.086243","-0.022901","-0.076336","-0.129771","6.770996","-1.221411","6.243433","-0.113647","0.082544","-0.606519","0.342139","-0.069385","-0.514404"
"C","1617445323.5741851","7","7","37","34","38","24","0.918335","-0.10791","-0.371216","-0.084412","-0.030534","-0.068702","-0.137405","6.687256","-1.27644","6.321191","-0.172266","0.05144","-0.5479","0.252417","-0.080151","-0.510815"
"C","1617445323.5643582","7","6","37","34","40","21","0.919006","-0.108093","-0.369995","-0.082397","-0.045802","-0.061069","-0.137405","6.628638","-1.314722","6.38938","-0.209351","0.034692","-0.497656","0.187817","-0.080151","-0.500049"
"C","1617445323.554258","7","8","36","36","39","20","0.919678","-0.108154","-0.368896","-0.0802","-0.061069","-0.053435","-0.137405","6.574805","-1.337451","6.452783","-0.244043","0.031104","-0.449805","0.129199","-0.069385","-0.490479"
"C","1617445323.5444455","7","5","36","36","38","25","0.920227","-0.108032","-0.36792","-0.078003","-0.068702","-0.038168","-0.137405","6.507812","-1.344629","6.499438","-0.293091","0.040674","-0.417505","0.07417","-0.047852","-0.503638"
"C","1617445323.534246","7","8","38","36","40","21","0.920776","-0.107849","-0.367188","-0.075684","-0.068702","-0.030534","-0.129771","6.444409","-1.347021","6.550879","-0.342139","0.053833","-0.378027","0.014355","-0.022729","-0.510815"
"C","1617445323.524384","7","7","38","35","39","21","0.921204","-0.107544","-0.366638","-0.073486","-0.068702","-0.022901","-0.129771","6.371436","-1.362573","6.597534","-0.403149","0.050244","-0.340942","-0.053833","-0.014355","-0.526367"
"C","1617445323.5142612","7","7","38","35","34","17","0.92157","-0.1073","-0.36615","-0.07135","-0.068702","-0.030534","-0.122137","6.304443","-1.404443","6.633423","-0.458179","0.021533","-0.312231","-0.119629","-0.0323","-0.539526"
"C","1617445323.504515","7","8","40","33","39","20","0.921997","-0.106873","-0.365662","-0.069275","-0.076336","-0.030534","-0.114504","6.270947","-1.417603","6.693237","-0.480908","0.016748","-0.261987","-0.171069","-0.023926","-0.519189"
"C","1617445323.4944584","7","9","38","35","37","21","0.922363","-0.106262","-0.365234","-0.067322","-0.083969","-0.022901","-0.10687","6.25061","-1.388892","6.782959","-0.491675","0.049048","-0.18064","-0.226099","0.025122","-0.47373"
"C","1617445323.484435","7","6","40","34","36","24","0.922729","-0.105652","-0.364868","-0.065308","-0.091603","-0.022901","-0.10687","6.251807","-1.357788","6.865503","-0.482104","0.084937","-0.105273","-0.263184","0.076563","-0.417505"
"C","1617445323.4742632","7","8","37","33","41","22","0.923035","-0.10498","-0.364624","-0.063354","-0.091603","-0.015267","-0.099237","6.262573","-1.342236","6.942065","-0.46416","0.104077","-0.034692","-0.293091","0.111255","-0.35769"
"C","1617445323.464321","7","6","39","36","38","20","0.923279","-0.104309","-0.364502","-0.061462","-0.083969","-0.015267","-0.099237","6.268555","-1.34104","7.005469","-0.452197","0.10647","0.022729","-0.322998","0.12561","-0.308643"
"C","1617445323.4541967","7","7","38","36","39","21","0.923523","-0.103699","-0.36438","-0.059631","-0.083969","-0.007634","-0.091603","6.269751","-1.351807","7.055713","-0.446216","0.099292","0.068188","-0.350513","0.126807","-0.271558"
"C","1617445323.4444733","7","7","37","36","38","21","0.923767","-0.103027","-0.364319","-0.0578","-0.083969","-0.007634","-0.091603","6.262573","-1.361377","7.109546","-0.449805","0.090918","0.118433","-0.388794","0.129199","-0.236865"
"C","1617445323.4342544","7","8","40","36","38","21","0.92395","-0.102356","-0.364258","-0.05603","-0.083969","-0.007634","-0.091603","6.236255","-1.364966","7.162183","-0.472534","0.088525","0.16748","-0.439038","0.137573","-0.216528"
"C","1617445323.424416","7","8","38","34","37","23","0.924133","-0.101685","-0.364258","-0.054321","-0.083969","-0.007634","-0.083969","6.187207","-1.361377","7.210034","-0.517993","0.092114","0.212939","-0.501245","0.150732","-0.215332"
"C","1617445323.4142797","7","9","39","34","32","5","0.924255","-0.101074","-0.364258","-0.052612","-0.076336","-0.007634","-0.083969","6.145337","-1.379321","7.251904","-0.557471","0.075366","0.252417","-0.559863","0.142358","-0.211743"
"C","1617445323.4042792","7","8","35","33","40","21","0.924377","-0.100647","-0.364319","-0.051025","-0.061069","0","-0.083969","6.113037","-1.410425","7.268652","-0.587378","0.047852","0.269165","-0.598145","0.118433","-0.216528"
"C","1617445323.3943102","7","8","40","36","34","21","0.924438","-0.100281","-0.364563","-0.049561","-0.061069","0","-0.076336","6.107056","-1.453491","7.277026","-0.595752","0.008374","0.278735","-0.617285","0.080151","-0.209351"
"C","1617445323.3842368","7","8","38","34","40","19","0.924438","-0.099976","-0.364868","-0.048157","-0.053435","0.007634","-0.076336","6.110644","-1.484595","7.267456","-0.594556","-0.016748","0.271558","-0.616089","0.052637","-0.209351"
"C","1617445323.3744085","7","6","38","34","39","21","0.924377","-0.09967","-0.365234","-0.046814","-0.053435","0.015267","-0.068702","6.133374","-1.506128","7.248315","-0.574219","-0.034692","0.257202","-0.594556","0.029907","-0.203369"
"C","1617445323.3643217","7","7","43","36","38","24","0.924255","-0.099304","-0.365723","-0.045532","-0.053435","0.022901","-0.068702","6.147729","-1.527661","7.230371","-0.565845","-0.055029","0.245239","-0.583789","0.005981","-0.204565"
"C","1617445323.3542497","7","6","37","36","36","23","0.924133","-0.098999","-0.366272","-0.04425","-0.045802","0.022901","-0.061069","6.171655","-1.557568","7.206445","-0.5479","-0.081348","0.228491","-0.563452","-0.025122","-0.19978"
"C","1617445323.3444746","7","6","39","36","39","23","0.924011","-0.098755","-0.366821","-0.043152","-0.045802","0.022901","-0.061069","6.186011","-1.588672","7.170557","-0.540723","-0.110059","0.198584","-0.541919","-0.061011","-0.212939"
"C","1617445323.3344595","7","6","40","36","38","23","0.92395","-0.098389","-0.367249","-0.042114","-0.045802","0.015267","-0.053435","6.16687","-1.597046","7.138257","-0.564648","-0.117236","0.171069","-0.541919","-0.07417","-0.247632"
"C","1617445323.3243735","7","7","37","34","37","23","0.923828","-0.098145","-0.367676","-0.041138","-0.038168","0.015267","-0.045802","6.140552","-1.593457","7.12749","-0.595752","-0.112451","0.165088","-0.559863","-0.071777","-0.275146"
"C","1617445323.3144724","7","9","38","33","39","21","0.923767","-0.097839","-0.368042","-0.040344","-0.030534","0.007634","-0.045802","6.110644","-1.594653","7.143042","-0.629248","-0.113647","0.185425","-0.596948","-0.069385","-0.283521"
"C","1617445323.3044488","7","7","37","38","38","24","0.923645","-0.097595","-0.368347","-0.039612","-0.030534","0.007634","-0.038168","6.084326","-1.586279","7.183716","-0.659155","-0.105273","0.229687","-0.647192","-0.053833","-0.27395"
"C","1617445323.294437","7","5","38","31","40","20","0.923584","-0.097473","-0.368713","-0.039001","-0.015267","0.007634","-0.030534","6.071167","-1.574316","7.219604","-0.6771","-0.090918","0.270361","-0.685474","-0.0323","-0.260791"
"C","1617445323.284215","7","7","38","34","37","20","0.923462","-0.097473","-0.36908","-0.038574","-0.007634","0","-0.022901","6.063989","-1.586279","7.24353","-0.689062","-0.100488","0.299072","-0.714185","-0.035889","-0.247632"
"C","1617445323.2751784","7","6","39","35","35","17","0.92334","-0.097534","-0.369385","-0.03833","0.007634","-0.007634","-0.015267","6.061597","-1.604224","7.250708","-0.69624","-0.11604","0.311035","-0.729736","-0.049048","-0.24165"
"C","1617445323.2650316","7","8","40","34","36","20","0.923218","-0.097717","-0.369629","-0.03833","0.015267","-0.007634","-0.007634","6.074756","-1.632935","7.241138","-0.68667","-0.142358","0.30625","-0.723755","-0.075366","-0.234473"
"C","1617445323.2544258","7","8","39","34","39","20","0.923096","-0.097961","-0.369873","-0.038452","0.015267","-0.007634","0","6.103467","-1.638916","7.220801","-0.661548","-0.144751","0.289502","-0.693848","-0.081348","-0.229687"
"C","1617445323.24446","7","5","39","36","39","24","0.922913","-0.098206","-0.370178","-0.038818","0.022901","0","0.007634","6.141748","-1.622168","7.193286","-0.628052","-0.126807","0.267969","-0.653174","-0.068188","-0.224902"
"C","1617445323.2345653","7","9","39","32","39","26","0.922729","-0.098389","-0.370544","-0.039246","0.022901","0.007634","0.015267","6.201562","-1.585083","7.145434","-0.575415","-0.089722","0.226099","-0.581396","-0.039478","-0.223706"
"C","1617445323.2242243","7","7","37","34","39","19","0.922485","-0.098633","-0.371033","-0.039795","0.022901","0.015267","0.022901","6.269751","-1.542017","7.08562","-0.515601","-0.047852","0.174658","-0.49646","-0.00957","-0.226099"
"C","1617445323.2141154","7","6","37","34","40","17","0.922241","-0.098877","-0.371582","-0.040405","0.030534","0.015267","0.030534","6.336743","-1.501343","7.02461","-0.458179","-0.007178","0.122021","-0.41272","0.019141","-0.229687"
"C","1617445323.204602","7","5","41","35","38","18","0.921936","-0.099182","-0.372192","-0.041077","0.038168","0.022901","0.030534","6.39895","-1.463062","6.948047","-0.405542","0.028711","0.055029","-0.324194","0.039478","-0.246436"
"C","1617445323.2034662","7","7","37","33","36","18","0.92157","-0.099548","-0.372803","-0.04187","0.038168","0.022901","0.038168","6.447998","-1.417603","6.867896","-0.367261","0.07417","-0.013159","-0.242847","0.070581","-0.275146"
"C","1617445323.20227","7","8","40","36","34","21","0.921265","-0.099915","-0.373413","-0.042725","0.045802","0.022901","0.038168","6.489868","-1.380518","6.77937","-0.336157","0.110059","-0.090918","-0.161499","0.088525","-0.314624"
"C","1617445323.17425","7","6","40","34","39","24","0.920898","-0.100403","-0.374023","-0.04364","0.045802","0.022901","0.045802","6.540112","-1.356592","6.681274","-0.29668","0.135181","-0.178247","-0.069385","0.094507","-0.351709"
"C","1617445323.164297","7","7","40","37","37","23","0.920532","-0.101013","-0.374634","-0.044678","0.061069","0.030534","0.053435","6.596338","-1.356592","6.571216","-0.251221","0.137573","-0.276343","0.029907","0.07417","-0.388794"
"C","1617445323.1543689","7","6","39","33","40","20","0.920166","-0.101685","-0.375305","-0.045837","0.061069","0.030534","0.053435","6.686059","-1.369751","6.458765","-0.173462","0.126807","-0.376831","0.153125","0.040674","-0.403149"
"C","1617445323.1450293","7","5","37","36","39","24","0.9198","-0.102417","-0.375854","-0.047058","0.068702","0.030534","0.053435","6.78894","-1.376929","6.35708","-0.081348","0.122021","-0.467749","0.279932","0.014355","-0.400757"
"C","1617445323.1343634","7","7","38","34","39","22","0.919434","-0.103149","-0.376404","-0.048279","0.068702","0.030534","0.053435","6.873877","-1.375732","6.28291","-0.005981","0.126807","-0.531152","0.378027","0.002393","-0.392383"
"C","1617445323.1244757","7","8","39","34","38","20","0.919067","-0.103821","-0.376831","-0.0495","0.061069","0.022901","0.053435","6.930102","-1.364966","6.212329","0.040674","0.13877","-0.592163","0.455786","0","-0.403149"
"C","1617445323.1142528","7","7","38","31","36","23","0.918823","-0.104492","-0.377197","-0.050659","0.061069","0.022901","0.045802","6.976758","-1.344629","6.17644","0.078955","0.161499","-0.620874","0.507227","0.011963","-0.399561"
"C","1617445323.104321","7","6","37","34","39","22","0.918579","-0.105164","-0.377441","-0.051697","0.053435","0.022901","0.045802","7.01145","-1.335059","6.141748","0.108862","0.175854","-0.648389","0.550293","0.017944","-0.399561"
"C","1617445323.094467","7","8","40","36","35","23","0.918335","-0.105774","-0.377686","-0.052734","0.053435","0.022901","0.045802","7.035376","-1.342236","6.110644","0.126807","0.171069","-0.673511","0.579004","0.005981","-0.403149"
"C","1617445323.0850377","7","8","38","36","39","21","0.918152","-0.106445","-0.377808","-0.053711","0.053435","0.015267","0.038168","7.047339","-1.361377","6.080737","0.135181","0.155518","-0.698633","0.599341","-0.015552","-0.411523"
"C","1617445323.074319","7","7","40","34","36","21","0.917969","-0.107056","-0.37793","-0.054626","0.053435","0.015267","0.038168","7.044946","-1.384106","6.049634","0.130396","0.136377","-0.724951","0.611304","-0.04187","-0.429468"
"C","1617445323.065112","7","7","39","37","36","17","0.917847","-0.107727","-0.37793","-0.055542","0.053435","0.007634","0.030534","7.040161","-1.404443","6.0281","0.123218","0.122021","-0.744092","0.616089","-0.062207","-0.446216"
"C","1617445323.0545833","7","8","38","36","40","21","0.917725","-0.108337","-0.37793","-0.056335","0.053435","0.007634","0.030534","7.028198","-1.423584","6.000586","0.110059","0.107666","-0.769214","0.620874","-0.082544","-0.470142"
"C","1617445323.0444872","7","4","40","33","38","22","0.917603","-0.108887","-0.377869","-0.05719","0.038168","0.007634","0.030534","7.025805","-1.417603","5.975464","0.107666","0.11604","-0.791943","0.636426","-0.081348","-0.488086"
"C","1617445323.035176","7","6","40","36","36","25","0.917542","-0.109253","-0.377869","-0.057861","0.030534","0.015267","0.022901","7.042554","-1.370947","5.951538","0.122021","0.165088","-0.814673","0.671118","-0.040674","-0.501245"
"C","1617445323.0244975","7","6","38","33","38","22","0.91748","-0.109436","-0.37793","-0.058472","0.015267","0.015267","0.022901","7.079638","-1.305151","5.943164","0.15791","0.228491","-0.821851","0.714185","0.015552","-0.490479"
"C","1617445323.0152075","7","7","39","36","39","22","0.917358","-0.109436","-0.378113","-0.058838","0","0.015267","0.022901","7.126294","-1.235767","5.92522","0.200977","0.295483","-0.836206","0.766821","0.075366","-0.480908"
"C","1617445323.0050695","7","5","37","34","38","20","0.917297","-0.109436","-0.378235","-0.059143","0","0.015267","0.015267","7.178931","-1.187915","5.895312","0.251221","0.340942","-0.864917","0.831421","0.111255","-0.471338"
"C","1617445322.995099","7","9","39","37","36","24","0.917297","-0.109436","-0.378235","-0.059387","0.007634","0.007634","0.015267","7.217212","-1.184326","5.858228","0.289502","0.342139","-0.902002","0.884058","0.101685","-0.470142"
"C","1617445322.9845052","7","8","39","38","42","21","0.917297","-0.109619","-0.378174","-0.059631","0.015267","0.007634","0.007634","7.239942","-1.216626","5.827124","0.312231","0.311035","-0.934302","0.916357","0.062207","-0.471338"
"C","1617445322.9752114","7","6","40","35","41","21","0.917358","-0.109924","-0.377869","-0.059875","0.015267","-0.007634","0.007634","7.238745","-1.259692","5.828321","0.314624","0.272754","-0.935498","0.910376","0.023926","-0.465356"
"C","1617445322.9650872","7","7","40","36","36","18","0.91748","-0.110168","-0.37738","-0.06012","0.015267","-0.015267","0.007634","7.200464","-1.254907","5.884546","0.283521","0.281128","-0.885254","0.855347","0.044263","-0.45459"
"C","1617445322.9552484","7","8","33","36","36","20","0.917725","-0.110291","-0.37677","-0.060303","0.007634","-0.030534","0","7.12749","-1.248926","5.963501","0.218921","0.289502","-0.814673","0.763232","0.071777","-0.45459"
"C","1617445322.945127","7","9","37","34","38","21","0.91803","-0.110352","-0.375977","-0.060364","-0.007634","-0.038168","-0.007634","7.03418","-1.230981","6.038867","0.137573","0.308643","-0.75127","0.665137","0.107666","-0.471338"
"C","1617445322.9351048","7","8","43","36","39","17","0.918457","-0.110229","-0.375061","-0.060303","-0.022901","-0.045802","-0.015267","6.957617","-1.190308","6.135767","0.075366","0.350513","-0.668726","0.573022","0.171069","-0.465356"
"C","1617445322.9251015","7","8","39","33","40","24","0.918823","-0.110046","-0.374207","-0.059998","-0.030534","-0.045802","-0.022901","6.928906","-1.134082","6.243433","0.059814","0.406738","-0.574219","0.507227","0.250024","-0.421094"
"C","1617445322.9150546","7","9","38","36","38","16","0.91925","-0.109802","-0.373352","-0.059448","-0.038168","-0.045802","-0.038168","6.908569","-1.105371","6.337939","0.052637","0.437842","-0.492871","0.452197","0.300269","-0.375635"
"C","1617445322.90526","7","7","40","36","39","22","0.919617","-0.109619","-0.372498","-0.058777","-0.030534","-0.053435","-0.045802","6.882251","-1.110156","6.397754","0.04187","0.435449","-0.446216","0.411523","0.311035","-0.350513"
"C","1617445322.8950877","7","7","36","36","41","24","0.920105","-0.109558","-0.371521","-0.057983","-0.030534","-0.061069","-0.045802","6.848755","-1.154419","6.443213","0.023926","0.398364","-0.415112","0.369653","0.283521","-0.336157"
"C","1617445322.8852892","7","8","40","36","38","25","0.920593","-0.109558","-0.370422","-0.05719","-0.030534","-0.068702","-0.053435","6.790137","-1.204663","6.498242","-0.015552","0.356494","-0.376831","0.307446","0.253613","-0.331372"
"C","1617445322.875101","7","7","40","34","35","21","0.921143","-0.109558","-0.369141","-0.056274","-0.030534","-0.068702","-0.061069","6.707593","-1.264477","6.585571","-0.077759","0.30625","-0.307446","0.204565","0.223706","-0.318213"
"C","1617445322.865214","7","6","41","34","38","20","0.921692","-0.109558","-0.367981","-0.055298","-0.030534","-0.061069","-0.068702","6.607104","-1.325488","6.687256","-0.159106","0.25481","-0.22251","0.078955","0.196191","-0.307446"
"C","1617445322.8552594","7","7","38","35","40","23","0.92218","-0.109619","-0.366882","-0.054199","-0.030534","-0.061069","-0.068702","6.503027","-1.396069","6.782959","-0.244043","0.194995","-0.142358","-0.046655","0.159106","-0.300269"
"C","1617445322.845271","7","7","39","36","40","21","0.922607","-0.10968","-0.365906","-0.05304","-0.030534","-0.053435","-0.076336","6.392969","-1.484595","6.835596","-0.337354","0.117236","-0.102881","-0.155518","0.094507","-0.322998"
"C","1617445322.835194","7","5","37","35","36","24","0.923035","-0.109741","-0.365051","-0.051941","-0.030534","-0.053435","-0.076336","6.329566","-1.564746","6.869092","-0.386401","0.047852","-0.082544","-0.217725","0.0323","-0.330176"
"C","1617445322.825167","7","7","39","36","36","23","0.92334","-0.109802","-0.36438","-0.050781","-0.038168","-0.045802","-0.076336","6.322388","-1.63772","6.888232","-0.38042","-0.013159","-0.071777","-0.23208","-0.023926","-0.308643"
"C","1617445322.8154492","7","6","38","36","37","17","0.923706","-0.10968","-0.363708","-0.049683","-0.038168","-0.045802","-0.076336","6.311621","-1.690356","6.89541","-0.379224","-0.058618","-0.075366","-0.236865","-0.069385","-0.302661"
"C","1617445322.8052697","7","7","39","36","40","21","0.924011","-0.109497","-0.363098","-0.048462","-0.045802","-0.038168","-0.076336","6.286499","-1.717871","6.901392","-0.392383","-0.078955","-0.078955","-0.247632","-0.090918","-0.309839"
"C","1617445322.7951653","7","6","37","36","51","23","0.924316","-0.109192","-0.362549","-0.047241","-0.045802","-0.030534","-0.076336","6.286499","-1.739404","6.919336","-0.381616","-0.096899","-0.069385","-0.248828","-0.10647","-0.291895"
"C","1617445322.785196","7","5","37","33","35","21","0.924561","-0.108887","-0.362183","-0.046021","-0.045802","-0.030534","-0.068702","6.270947","-1.752563","6.921729","-0.38999","-0.105273","-0.07417","-0.253613","-0.117236","-0.300269"
"C","1617445322.7753732","7","7","39","36","40","23","0.924805","-0.108643","-0.361816","-0.044861","-0.045802","-0.022901","-0.068702","6.251807","-1.771704","6.896606","-0.401953","-0.119629","-0.105273","-0.244043","-0.13877","-0.327783"
"C","1617445322.7653162","7","7","39","35","39","20","0.924988","-0.108337","-0.361572","-0.043762","-0.045802","-0.015267","-0.068702","6.239844","-1.787256","6.870288","-0.407935","-0.132788","-0.136377","-0.230884","-0.159106","-0.351709"
"C","1617445322.7552023","7","4","41","38","38","20","0.925171","-0.107971","-0.361389","-0.042664","-0.045802","-0.015267","-0.061069","6.261377","-1.776489","6.866699","-0.381616","-0.119629","-0.144751","-0.203369","-0.14834","-0.340942"
"C","1617445322.7452824","7","5","40","36","36","21","0.925293","-0.107605","-0.361206","-0.041687","-0.045802","-0.015267","-0.053435","6.279321","-1.746582","6.863111","-0.358887","-0.089722","-0.151929","-0.177051","-0.122021","-0.336157"
"C","1617445322.73534","7","7","39","36","38","20","0.925476","-0.107178","-0.361023","-0.040771","-0.045802","-0.015267","-0.053435","6.288892","-1.74419","6.873877","-0.344531","-0.088525","-0.145947","-0.169873","-0.119629","-0.321802"
"C","1617445322.7252955","7","4","40","36","41","25","0.925598","-0.10675","-0.36084","-0.039856","-0.045802","-0.015267","-0.045802","6.276929","-1.759741","6.896606","-0.351709","-0.104077","-0.126807","-0.19021","-0.130396","-0.311035"
"C","1617445322.7153935","7","6","40","33","36","20","0.925781","-0.106384","-0.360596","-0.039062","-0.038168","-0.022901","-0.045802","6.24104","-1.775293","6.907373","-0.382812","-0.120825","-0.120825","-0.220117","-0.145947","-0.324194"
"C","1617445322.705286","7","5","37","33","38","24","0.925964","-0.106018","-0.360352","-0.038269","-0.038168","-0.022901","-0.038168","6.19917","-1.784863","6.918139","-0.419897","-0.130396","-0.11604","-0.251221","-0.154321","-0.344531"
"C","1617445322.6953166","7","6","38","34","38","20","0.926086","-0.105652","-0.360168","-0.037659","-0.038168","-0.022901","-0.030534","6.180029","-1.776489","6.932495","-0.435449","-0.124414","-0.105273","-0.269165","-0.147144","-0.34812"
"C","1617445322.6855345","7","6","37","34","37","23","0.926208","-0.105164","-0.360046","-0.03717","-0.038168","-0.015267","-0.022901","6.196777","-1.739404","6.939673","-0.415112","-0.092114","-0.101685","-0.252417","-0.114844","-0.337354"
"C","1617445322.6752598","7","7","37","36","38","21","0.926331","-0.104614","-0.360046","-0.036743","-0.038168","-0.007634","-0.015267","6.237451","-1.692749","6.93728","-0.374438","-0.052637","-0.10647","-0.212939","-0.076563","-0.319409"
"C","1617445322.6653538","7","5","36","36","39","23","0.926331","-0.104004","-0.360229","-0.036499","-0.038168","0","-0.007634","6.293677","-1.652075","6.920532","-0.320605","-0.020337","-0.123218","-0.15791","-0.049048","-0.301465"
"C","1617445322.655297","7","5","40","33","36","16","0.926331","-0.103394","-0.360413","-0.036316","-0.038168","0","0","6.348706","-1.593457","6.898999","-0.267969","0.026318","-0.144751","-0.098096","-0.007178","-0.288306"
"C","1617445322.6454506","7","7","39","34","38","23","0.926331","-0.102722","-0.360596","-0.036194","-0.038168","0","0","6.382202","-1.539624","6.861914","-0.236865","0.069385","-0.181836","-0.044263","0.026318","-0.301465"
"C","1617445322.6352036","7","8","36","34","38","24","0.926331","-0.102112","-0.36084","-0.036072","-0.038168","0.007634","0","6.414502","-1.486987","6.837988","-0.208154","0.111255","-0.205762","-0.001196","0.062207","-0.30625"
"C","1617445322.625203","7","4","37","34","42","20","0.92627","-0.101562","-0.361023","-0.03595","-0.038168","0.007634","0.007634","6.457568","-1.439136","6.82124","-0.16748","0.149536","-0.220117","0.043066","0.096899","-0.295483"
"C","1617445322.615389","7","7","38","33","41","21","0.92627","-0.101013","-0.361267","-0.035889","-0.030534","0.007634","0.007634","6.488672","-1.390088","6.818848","-0.139966","0.189014","-0.22251","0.070581","0.135181","-0.284717"
"C","1617445322.6054118","7","6","38","36","37","22","0.92627","-0.100525","-0.36145","-0.035889","-0.030534","0","0.007634","6.499438","-1.343433","6.810473","-0.132788","0.227295","-0.230884","0.086133","0.172266","-0.291895"
"C","1617445322.5954638","7","-7","37","37","38","23","0.92627","-0.100098","-0.361511","-0.03595","-0.022901","0","0.007634","6.503027","-1.313525","6.805688","-0.130396","0.248828","-0.235669","0.094507","0.192603","-0.29668"
"C","1617445322.5854795","7","6","39","36","37","24","0.92627","-0.099792","-0.361572","-0.036011","-0.022901","0","0.015267","6.507812","-1.295581","6.800903","-0.126807","0.260791","-0.240454","0.101685","0.203369","-0.299072"
"C","1617445322.5751889","7","5","37","34","36","21","0.92627","-0.099487","-0.361572","-0.036133","-0.022901","0","0.015267","6.51499","-1.27644","6.804492","-0.119629","0.272754","-0.238062","0.10647","0.215332","-0.294287"
"C","1617445322.565471","7","5","38","34","36","21","0.926331","-0.099182","-0.361633","-0.036194","-0.022901","-0.007634","0.007634","6.517383","-1.251318","6.798511","-0.118433","0.291895","-0.245239","0.114844","0.233276","-0.301465"
"C","1617445322.5553858","7","5","39","35","39","17","0.926331","-0.098938","-0.361633","-0.036316","-0.015267","-0.007634","0.007634","6.520972","-1.235767","6.785352","-0.114844","0.302661","-0.258398","0.128003","0.240454","-0.311035"
"C","1617445322.5452642","7","7","39","32","37","22","0.926392","-0.098755","-0.361572","-0.036377","-0.015267","-0.007634","0.007634","6.52815","-1.238159","6.772192","-0.10647","0.29668","-0.27395","0.143555","0.23208","-0.314624"
"C","1617445322.5355835","7","7","37","36","37","23","0.926392","-0.098633","-0.361572","-0.036438","-0.015267","0","0","6.544898","-1.246533","6.767407","-0.089722","0.285913","-0.278735","0.15791","0.220117","-0.305054"
"C","1617445322.5254202","7","7","37","34","35","20","0.926392","-0.098511","-0.361511","-0.036377","-0.015267","-0.007634","0","6.549683","-1.246533","6.768603","-0.08374","0.283521","-0.278735","0.161499","0.217725","-0.300269"
"C","1617445322.5153563","7","7","40","41","38","20","0.926453","-0.098389","-0.36145","-0.036255","-0.015267","-0.007634","-0.007634","6.53772","-1.262085","6.75664","-0.094507","0.266772","-0.291895","0.160303","0.198584","-0.314624"
"C","1617445322.505189","7","6","37","34","34","21","0.926514","-0.098389","-0.361389","-0.036011","-0.015267","0","-0.015267","6.54729","-1.291992","6.74707","-0.08374","0.239258","-0.302661","0.171069","0.169873","-0.311035"
"C","1617445322.495607","7","5","40","35","38","22","0.926453","-0.098328","-0.361511","-0.035645","-0.022901","0.007634","-0.015267","6.567627","-1.307544","6.731519","-0.0646","0.224902","-0.31582","0.192603","0.153125","-0.305054"
"C","1617445322.485402","7","7","38","36","38","20","0.926453","-0.098145","-0.361633","-0.035278","-0.030534","0.015267","-0.022901","6.583179","-1.313525","6.702807","-0.050244","0.217725","-0.344531","0.220117","0.141162","-0.31582"
"C","1617445322.4753716","7","5","38","36","36","21","0.926392","-0.097961","-0.361938","-0.03479","-0.030534","0.022901","-0.022901","6.605908","-1.323096","6.675293","-0.0323","0.208154","-0.368457","0.248828","0.126807","-0.318213"
"C","1617445322.465238","7","5","40","36","39","19","0.92627","-0.097778","-0.362305","-0.034302","-0.030534","0.030534","-0.022901","6.632226","-1.326685","6.639404","-0.010767","0.204565","-0.399561","0.284717","0.117236","-0.325391"
"C","1617445322.4553888","7","4","35","36","35","23","0.926147","-0.097595","-0.362732","-0.033752","-0.030534","0.038168","-0.030534","6.651367","-1.337451","6.605908","0.001196","0.193799","-0.428271","0.311035","0.101685","-0.336157"
"C","1617445322.4452145","7","4","37","34","-4","20","0.925964","-0.097412","-0.36322","-0.033081","-0.038168","0.038168","-0.038168","6.669312","-1.339844","6.578393","0.013159","0.191406","-0.448608","0.333765","0.095703","-0.342139"
"C","1617445322.4354434","7","8","39","38","38","21","0.925842","-0.097229","-0.363708","-0.032288","-0.038168","0.038168","-0.045802","6.686059","-1.342236","6.554468","0.023926","0.191406","-0.466553","0.352905","0.092114","-0.346924"
"C","1617445322.4252489","7","6","40","37","39","23","0.92572","-0.096985","-0.364136","-0.031433","-0.038168","0.045802","-0.045802","6.688452","-1.343433","6.555664","0.021533","0.191406","-0.460571","0.34812","0.093311","-0.344531"
"C","1617445322.4153616","7","4","39","37","36","21","0.925598","-0.096741","-0.364685","-0.030457","-0.045802","0.053435","-0.053435","6.721948","-1.337451","6.601123","0.047852","0.19978","-0.407935","0.332568","0.113647","-0.289502"
"C","1617445322.405451","7","6","39","36","37","23","0.925415","-0.096497","-0.365295","-0.029297","-0.053435","0.053435","-0.061069","6.749463","-1.320703","6.659741","0.068188","0.218921","-0.342139","0.30625","0.147144","-0.23208"
"C","1617445322.395208","7","5","37","34","36","21","0.925232","-0.09613","-0.365906","-0.028076","-0.053435","0.045802","-0.061069","6.743482","-1.300366","6.723145","0.055029","0.240454","-0.270361","0.250024","0.181836","-0.192603"
"C","1617445322.3853488","7","7","37","32","38","21","0.92511","-0.095764","-0.366333","-0.026855","-0.053435","0.030534","-0.061069","6.709985","-1.287207","6.763818","0.016748","0.256006","-0.224902","0.193799","0.206958","-0.189014"
"C","1617445322.3755095","7","5","39","35","36","20","0.92511","-0.09552","-0.366577","-0.025574","-0.053435","0.015267","-0.068702","6.654956","-1.311133","6.786548","-0.039478","0.236865","-0.19978","0.132788","0.191406","-0.205762"
"C","1617445322.365543","7","1","37","35","40","21","0.925171","-0.095337","-0.366577","-0.024292","-0.045802","0","-0.068702","6.598731","-1.354199","6.791333","-0.093311","0.19978","-0.196191","0.086133","0.154321","-0.234473"
"C","1617445322.355291","7","4","37","34","38","21","0.925232","-0.095276","-0.366455","-0.02301","-0.038168","0","-0.076336","6.506616","-1.40564","6.792529","-0.181836","0.156714","-0.196191","0.016748","0.110059","-0.288306"
"C","1617445322.345476","7","3","39","34","36","17","0.925354","-0.095154","-0.366333","-0.021729","-0.038168","0","-0.076336","6.44082","-1.448706","6.832007","-0.242847","0.120825","-0.159106","-0.056226","0.080151","-0.297876"
"C","1617445322.3356392","7","6","37","36","39","22","0.925415","-0.095032","-0.366333","-0.020447","-0.045802","0.007634","-0.068702","6.390576","-1.46665","6.88584","-0.291895","0.110059","-0.10647","-0.129199","0.077759","-0.291895"
"C","1617445322.3259542","7","6","40","35","39","28","0.925415","-0.09491","-0.366394","-0.019165","-0.045802","0.015267","-0.068702","6.328369","-1.478613","6.931299","-0.352905","0.104077","-0.061011","-0.205762","0.077759","-0.300269"
"C","1617445322.3159878","7","4","39","33","35","20","0.925354","-0.094604","-0.366638","-0.017883","-0.053435","0.015267","-0.068702","6.309228","-1.490576","6.975562","-0.373242","0.095703","-0.013159","-0.253613","0.077759","-0.278735"
"C","1617445322.3055146","7","4","39","34","40","24","0.925293","-0.094299","-0.366943","-0.016541","-0.053435","0.015267","-0.068702","6.303247","-1.501343","7.009058","-0.381616","0.089722","0.021533","-0.283521","0.076563","-0.258398"
"C","1617445322.2952652","7","4","39","34","39","24","0.925232","-0.093994","-0.367188","-0.015259","-0.053435","0.007634","-0.068702","6.281714","-1.528857","7.028198","-0.404346","0.065796","0.044263","-0.318213","0.056226","-0.25481"
"C","1617445322.2860284","7","5","39","35","40","23","0.925232","-0.09375","-0.36731","-0.013977","-0.045802","0","-0.068702","6.262573","-1.57312","7.037768","-0.423486","0.026318","0.053833","-0.342139","0.016748","-0.25481"
"C","1617445322.2761867","7","4","39","33","38","21","0.925293","-0.093506","-0.367371","-0.012756","-0.045802","0","-0.068702","6.251807","-1.618579","7.047339","-0.433057","-0.014355","0.063403","-0.360083","-0.021533","-0.247632"
"C","1617445322.2660103","7","4","40","37","39","23","0.925293","-0.093262","-0.367371","-0.011597","-0.038168","0","-0.061069","6.245825","-1.653271","7.068872","-0.437842","-0.044263","0.084937","-0.38042","-0.047852","-0.229687"
"C","1617445322.255998","7","5","38","34","39","19","0.925293","-0.093079","-0.367432","-0.010498","-0.038168","0","-0.061069","6.232666","-1.671216","7.091601","-0.449805","-0.058618","0.107666","-0.405542","-0.059814","-0.220117"
"C","1617445322.2459934","7","5","39","35","39","21","0.925293","-0.092957","-0.367615","-0.009583","-0.030534","0","-0.053435","6.215918","-1.701123","7.101172","-0.467749","-0.08374","0.118433","-0.428271","-0.08374","-0.220117"
"C","1617445322.2362096","7","4","39","32","39","21","0.925171","-0.092957","-0.367798","-0.008728","-0.015267","0.007634","-0.045802","6.217114","-1.740601","7.107153","-0.467749","-0.117236","0.128003","-0.437842","-0.11604","-0.208154"
"C","1617445322.2260797","7","5","37","32","36","21","0.92511","-0.093018","-0.368042","-0.008118","-0.007634","0","-0.038168","6.212329","-1.774097","7.095191","-0.474927","-0.145947","0.119629","-0.439038","-0.147144","-0.214136"
"C","1617445322.2160506","7","6","39","34","35","22","0.924988","-0.093201","-0.368225","-0.007629","0.007634","0","-0.038168","6.178833","-1.787256","7.070068","-0.510815","-0.151929","0.098096","-0.451001","-0.159106","-0.252417"
"C","1617445322.2060704","7","6","37","34","34","24","0.924927","-0.093506","-0.368408","-0.007263","0.015267","0","-0.030534","6.159692","-1.801611","7.037768","-0.531152","-0.15791","0.068188","-0.446216","-0.172266","-0.287109"
"C","1617445322.196131","7","4","39","40","37","22","0.924805","-0.093872","-0.368591","-0.00708","0.022901","0.007634","-0.015267","6.153711","-1.82793","6.994702","-0.539526","-0.177051","0.029907","-0.427075","-0.198584","-0.317017"
"C","1617445321.5865283","7","4","39","38","38","23","0.926819","-0.087036","-0.365295","0.002258","-0.007634","-0.007634","0","6.409717","-1.394873","6.904981","-0.221313","0.202173","-0.130396","-0.061011","0.162695","-0.275146"
"C","1617445321.5764475","7","4","40","35","38","23","0.926819","-0.087097","-0.365234","0.002258","0","-0.007634","0","6.401343","-1.423584","6.909766","-0.228491","0.174658","-0.12561","-0.071777","0.136377","-0.272754"
"C","1617445321.566276","7","4","38","34","40","26","0.926819","-0.08728","-0.365234","0.002258","0.007634","0","0","6.400146","-1.473828","6.898999","-0.229687","0.126807","-0.136377","-0.068188","0.087329","-0.27395"
"C","1617445321.556588","7","5","37","33","38","21","0.926758","-0.087524","-0.365295","0.002197","0.015267","0","-0.007634","6.412109","-1.52168","6.876269","-0.218921","0.08374","-0.15791","-0.047852","0.04187","-0.275146"
"C","1617445321.547124","7","4","38","36","36","21","0.926697","-0.08783","-0.365417","0.002136","0.007634","0","-0.007634","6.430054","-1.556372","6.851148","-0.203369","0.053833","-0.179443","-0.023926","0.00957","-0.275146"
"C","1617445321.5370245","7","1","37","34","38","24","0.926636","-0.087952","-0.365479","0.002075","0","0","-0.007634","6.436035","-1.543213","6.833203","-0.197388","0.068188","-0.196191","-0.007178","0.021533","-0.284717"
"C","1617445321.526239","7","5","37","34","39","23","0.926575","-0.088013","-0.365601","0.002075","-0.007634","0","-0.007634","6.422876","-1.497754","6.810473","-0.212939","0.114844","-0.216528","-0.001196","0.063403","-0.318213"
"C","1617445321.5164766","7","3","37","34","36","20","0.926575","-0.087952","-0.365723","0.002136","-0.007634","0","-0.007634","6.408521","-1.472632","6.786548","-0.228491","0.13877","-0.240454","0.003589","0.081348","-0.349316"
"C","1617445321.5070791","7","4","37","34","37","21","0.926514","-0.087891","-0.365784","0.002258","-0.007634","0","-0.007634","6.391772","-1.467847","6.750659","-0.246436","0.143555","-0.27395","0.013159","0.080151","-0.386401"
"C","1617445321.4962156","7","6","33","34","41","20","0.926453","-0.087952","-0.365845","0.002319","0","0","-0.007634","6.385791","-1.490576","6.712378","-0.252417","0.122021","-0.311035","0.0323","0.05144","-0.413916"
"C","1617445321.4870863","7","1","38","32","38","23","0.926453","-0.088074","-0.365906","0.00238","0","0","0","6.400146","-1.53125","6.687256","-0.239258","0.084937","-0.336157","0.057422","0.011963","-0.416309"
"C","1617445321.4763248","7","4","31","32","38","21","0.926392","-0.088196","-0.365967","0.002319","0.007634","0","-0.007634","6.403735","-1.56355","6.669312","-0.236865","0.053833","-0.351709","0.068188","-0.019141","-0.421094"
"C","1617445321.467143","7","5","40","37","39","23","0.926392","-0.088318","-0.365967","0.002319","0.007634","0","-0.007634","6.404932","-1.592261","6.662134","-0.235669","0.027515","-0.358887","0.071777","-0.046655","-0.421094"
"C","1617445321.4565604","7","4","37","36","40","24","0.926392","-0.08844","-0.365967","0.002258","0","0","0","6.418091","-1.609009","6.668115","-0.22251","0.011963","-0.352905","0.076563","-0.059814","-0.405542"
"C","1617445321.4468837","7","5","39","35","41","21","0.926392","-0.08844","-0.365967","0.002197","-0.007634","-0.007634","0","6.427661","-1.601831","6.684863","-0.212939","0.019141","-0.336157","0.072974","-0.050244","-0.387598"
"C","1617445321.4370668","7","4","39","34","38","23","0.926453","-0.088318","-0.365845","0.002136","-0.007634","-0.007634","0","6.436035","-1.571924","6.7052","-0.203369","0.046655","-0.318213","0.069385","-0.019141","-0.373242"
"C","1617445321.426896","7","4","39","34","37","23","0.926514","-0.088196","-0.365723","0.002075","-0.007634","-0.015267","0","6.428857","-1.536035","6.717163","-0.208154","0.080151","-0.307446","0.059814","0.014355","-0.374438"
"C","1617445321.416881","7","4","39","34","41","21","0.926575","-0.088074","-0.365601","0.002075","-0.007634","-0.007634","0","6.432446","-1.509717","6.726733","-0.203369","0.104077","-0.300269","0.059814","0.039478","-0.369653"
"C","1617445321.406983","7","6","39","34","37","23","0.926636","-0.087952","-0.36554","0.002014","-0.007634","-0.007634","0.007634","6.453979","-1.49895","6.739892","-0.18064","0.112451","-0.289502","0.070581","0.05144","-0.34812"
"C","1617445321.3960311","7","4","37","33","36","21","0.926636","-0.087891","-0.365479","0.001892","-0.007634","0","0.007634","6.486279","-1.48938","6.770996","-0.147144","0.119629","-0.258398","0.07417","0.065796","-0.303857"
"C","1617445321.386963","7","5","38","32","42","24","0.926636","-0.08783","-0.365417","0.00177","-0.007634","-0.007634","0.007634","6.491065","-1.481006","6.806885","-0.142358","0.126807","-0.223706","0.053833","0.078955","-0.277539"
"C","1617445321.3770452","7","5","39","36","35","23","0.926697","-0.087769","-0.365295","0.001587","-0.007634","-0.015267","0.007634","6.469531","-1.484595","6.827222","-0.161499","0.120825","-0.204565","0.027515","0.07417","-0.275146"
"C","1617445321.3670356","7","5","39","33","40","20","0.926819","-0.087646","-0.365112","0.001526","-0.015267","-0.015267","0","6.449194","-1.478613","6.848755","-0.18064","0.124414","-0.186621","0.001196","0.080151","-0.276343"
"C","1617445321.3571956","7","4","39","35","41","21","0.92688","-0.087463","-0.364929","0.001465","-0.015267","-0.015267","0","6.428857","-1.470239","6.877466","-0.197388","0.128003","-0.161499","-0.027515","0.086133","-0.270361"
"C","1617445321.347107","7","5","38","36","40","20","0.927002","-0.08728","-0.364746","0.001526","-0.015267","-0.015267","-0.007634","6.404932","-1.464258","6.897803","-0.218921","0.131592","-0.144751","-0.053833","0.090918","-0.272754"
"C","1617445321.3371758","7","6","39","35","32","23","0.927002","-0.087158","-0.364685","0.001648","-0.015267","-0.007634","-0.007634","6.402539","-1.472632","6.902588","-0.220117","0.122021","-0.139966","-0.058618","0.082544","-0.269165"
"C","1617445321.3272448","7","6","31","34","35","21","0.927063","-0.086975","-0.364685","0.00177","-0.015267","-0.007634","-0.007634","6.419287","-1.494165","6.897803","-0.203369","0.098096","-0.147144","-0.043066","0.058618","-0.258398"
"C","1617445321.3169646","7","4","39","34","39","24","0.927063","-0.086853","-0.364685","0.001953","-0.015267","0","-0.007634","6.433642","-1.509717","6.884644","-0.189014","0.081348","-0.160303","-0.025122","0.04187","-0.256006"
"C","1617445321.3071089","7","3","38","32","35","21","0.927002","-0.086731","-0.364807","0.002075","-0.015267","0","-0.007634","6.44082","-1.524072","6.863111","-0.183032","0.065796","-0.179443","-0.008374","0.023926","-0.263184"
"C","1617445321.2970312","7","4","38","36","36","22","0.927002","-0.086609","-0.364868","0.002197","-0.007634","0","-0.007634","6.445605","-1.537231","6.861914","-0.179443","0.05144","-0.18064","-0.005981","0.00957","-0.258398"
"C","1617445321.287053","7","4","40","33","39","21","0.927002","-0.086548","-0.364929","0.002319","-0.007634","0","-0.007634","6.434839","-1.54082","6.870288","-0.191406","0.047852","-0.172266","-0.020337","0.005981","-0.260791"
"C","1617445321.277209","7","5","37","34","46","17","0.926941","-0.086609","-0.36499","0.002441","-0.007634","0","-0.007634","6.420484","-1.544409","6.876269","-0.205762","0.045459","-0.165088","-0.035889","0.003589","-0.26438"
"C","1617445321.2671945","7","4","39","34","40","22","0.926941","-0.086609","-0.36499","0.002502","-0.007634","0","-0.007634","6.409717","-1.551587","6.876269","-0.216528","0.039478","-0.165088","-0.044263","-0.001196","-0.270361"
"C","1617445321.2570713","7","5","38","36","36","23","0.926941","-0.086609","-0.365051","0.002502","-0.007634","0","-0.007634","6.39895","-1.54082","6.861914","-0.228491","0.050244","-0.178247","-0.043066","0.004785","-0.290698"
"C","1617445321.247235","7","4","39","32","41","20","0.92688","-0.086487","-0.365112","0.002563","-0.015267","0","-0.007634","6.391772","-1.513306","6.85354","-0.235669","0.075366","-0.185425","-0.04187","0.028711","-0.303857"
"C","1617445321.2370334","7","1","39","35","37","21","0.92688","-0.086365","-0.365234","0.002686","-0.015267","0","-0.007634","6.38938","-1.488184","6.848755","-0.240454","0.099292","-0.189014","-0.04187","0.05144","-0.313428"
"C","1617445321.227168","7","4","39","35","38","23","0.926819","-0.086243","-0.365356","0.002808","-0.015267","0.007634","-0.007634","6.401343","-1.476221","6.836792","-0.229687","0.110059","-0.19978","-0.026318","0.061011","-0.31582"
"C","1617445321.2172716","7","3","38","34","38","21","0.926758","-0.086182","-0.36554","0.00293","-0.007634","0","-0.007634","6.410913","-1.495361","6.812866","-0.223706","0.090918","-0.221313","-0.008374","0.038281","-0.324194"
"C","1617445321.207235","7","4","37","33","39","20","0.926758","-0.086243","-0.365601","0.00293","0","0","-0.007634","6.419287","-1.527661","6.780566","-0.216528","0.059814","-0.253613","0.016748","0.003589","-0.337354"
"C","1617445321.197189","7","4","39","37","40","22","0.926697","-0.086365","-0.365723","0.00293","0","0","-0.007634","6.424072","-1.545605","6.75664","-0.212939","0.043066","-0.275146","0.0323","-0.015552","-0.34812"
"C","1617445321.1870933","7","-5","39","34","39","22","0.926636","-0.086426","-0.365784","0.00293","0","0","-0.007634","6.422876","-1.545605","6.738696","-0.215332","0.044263","-0.290698","0.04187","-0.016748","-0.361279"
"C","1617445321.177257","7","4","40","35","38","21","0.926636","-0.086426","-0.365906","0.00293","-0.007634","0","0","6.422876","-1.516895","6.741089","-0.217725","0.072974","-0.288306","0.039478","0.010767","-0.366064"
"C","1617445321.1673636","7","4","39","36","35","20","0.926636","-0.086304","-0.365906","0.00293","-0.015267","0","0","6.420484","-1.460669","6.751855","-0.220117","0.126807","-0.277539","0.033496","0.065796","-0.368457"
"C","1617445321.1571422","7","6","37","34","37","22","0.926636","-0.086121","-0.365906","0.00293","-0.015267","-0.007634","0.007634","6.404932","-1.41521","6.76023","-0.235669","0.169873","-0.269165","0.019141","0.107666","-0.379224"
"C","1617445321.147044","7","4","38","31","38","21","0.926697","-0.085938","-0.365845","0.002869","-0.007634","-0.007634","0.007634","6.39895","-1.397266","6.753052","-0.240454","0.183032","-0.278735","0.022729","0.119629","-0.392383"
"C","1617445321.137178","7","4","37","34","38","19","0.926697","-0.085876","-0.365784","0.002747","-0.007634","-0.007634","0.007634","6.404932","-1.393677","6.749463","-0.233276","0.185425","-0.282324","0.031104","0.122021","-0.38999"
"C","1617445321.1270502","7","4","36","34","36","21","0.926758","-0.085815","-0.365723","0.002686","-0.007634","-0.007634","0.007634","6.419287","-1.397266","6.757837","-0.218921","0.18064","-0.275146","0.035889","0.119629","-0.374438"
"C","1617445321.11728","7","4","39","34","36","21","0.926758","-0.085815","-0.365723","0.002563","-0.007634","-0.007634","0.007634","6.428857","-1.388892","6.762622","-0.209351","0.187817","-0.270361","0.040674","0.128003","-0.366064"
"C","1617445321.1072395","7","4","36","34","38","21","0.926758","-0.085754","-0.365723","0.002441","-0.007634","-0.007634","0.007634","6.443213","-1.37334","6.784155","-0.194995","0.200977","-0.250024","0.038281","0.144751","-0.343335"
"C","1617445321.0970504","7","4","37","34","38","23","0.926758","-0.085632","-0.365662","0.00238","-0.015267","-0.007634","0.007634","6.452783","-1.354199","6.815259","-0.184229","0.217725","-0.218921","0.025122","0.16748","-0.31582"
"C","1617445321.0871432","7","4","38","34","37","20","0.926819","-0.08551","-0.365601","0.002319","-0.007634","-0.007634","0","6.452783","-1.335059","6.842773","-0.184229","0.234473","-0.193799","0.00957","0.187817","-0.301465"
"C","1617445321.077174","7","3","37","33","37","22","0.926819","-0.08551","-0.36554","0.002319","-0.007634","-0.007634","0","6.44082","-1.336255","6.854736","-0.194995","0.233276","-0.181836","-0.005981","0.187817","-0.299072"
"C","1617445321.0671928","7","5","36","33","38","20","0.92688","-0.08551","-0.365479","0.002319","-0.007634","-0.007634","0","6.447998","-1.342236","6.882251","-0.186621","0.227295","-0.155518","-0.017944","0.186621","-0.27395"
"C","1617445321.0573657","7","5","37","33","39","23","0.92688","-0.085571","-0.365417","0.002319","-0.007634","-0.007634","0","6.464746","-1.356592","6.902588","-0.168677","0.214136","-0.135181","-0.019141","0.178247","-0.245239"
"C","1617445321.0472767","7","3","36","36","40","23","0.92688","-0.085632","-0.365356","0.002319","-0.007634","-0.007634","-0.007634","6.467139","-1.368555","6.925317","-0.166284","0.203369","-0.113647","-0.0323","0.171069","-0.226099"
"C","1617445321.0370982","7","3","40","34","41","21","0.926941","-0.085693","-0.365234","0.002441","-0.007634","-0.007634","-0.007634","6.453979","-1.384106","6.92771","-0.177051","0.19021","-0.112451","-0.04187","0.156714","-0.230884"
"C","1617445321.027382","7","3","36","34","35","22","0.926941","-0.085754","-0.365173","0.002563","-0.007634","-0.007634","-0.015267","6.444409","-1.402051","6.925317","-0.185425","0.173462","-0.11604","-0.046655","0.139966","-0.235669"
"C","1617445321.0171485","7","3","38","33","39","23","0.926941","-0.085876","-0.365112","0.002747","0","0","-0.015267","6.444409","-1.425977","6.921729","-0.184229","0.153125","-0.119629","-0.044263","0.118433","-0.234473"
"C","1617445321.007214","7","1","39","34","38","21","0.926941","-0.08606","-0.365234","0.00293","0","0.007634","-0.015267","6.462354","-1.463062","6.916944","-0.16748","0.120825","-0.123218","-0.0323","0.087329","-0.221313"
"C","1617445320.997183","7","4","35","32","40","20","0.926819","-0.086304","-0.365356","0.003052","0.007634","0.007634","-0.015267","6.468335","-1.496558","6.906177","-0.162695","0.092114","-0.130396","-0.025122","0.058618","-0.217725"
"C","1617445320.9871206","7","2","38","34","41","21","0.926758","-0.086487","-0.365601","0.003174","0","0.007634","-0.007634","6.48269","-1.514502","6.896606","-0.151929","0.078955","-0.136377","-0.013159","0.045459","-0.212939"
"C","1617445320.9772315","7","5","36","36","40","19","0.926636","-0.086609","-0.365784","0.003235","0","0.007634","-0.015267","6.491065","-1.50852","6.900195","-0.145947","0.087329","-0.129199","-0.013159","0.055029","-0.205762"
"C","1617445320.9673157","7","1","39","33","38","20","0.926514","-0.08667","-0.366028","0.003357","-0.007634","0.007634","-0.015267","6.480298","-1.495361","6.897803","-0.160303","0.101685","-0.128003","-0.023926","0.068188","-0.216528"
"C","1617445320.9572432","7","5","37","34","38","17","0.926453","-0.086731","-0.366211","0.00354","-0.007634","0.007634","-0.015267","6.477905","-1.485791","6.873877","-0.165088","0.113647","-0.149536","-0.011963","0.076563","-0.236865"
"C","1617445320.947379","7","3","39","34","36","20","0.926392","-0.086792","-0.366333","0.003784","-0.007634","0.007634","-0.015267","6.48269","-1.491772","6.829614","-0.161499","0.111255","-0.191406","0.017944","0.066992","-0.26438"
"C","1617445320.9371855","7","3","35","32","40","25","0.926331","-0.086914","-0.366455","0.004028","0","0.007634","-0.022901","6.494653","-1.513306","6.784155","-0.150732","0.093311","-0.234473","0.053833","0.043066","-0.284717"
"C","1617445320.927379","7","4","35","34","36","21","0.92627","-0.087097","-0.366516","0.004272","0","0.007634","-0.022901","6.511401","-1.551587","6.745874","-0.135181","0.059814","-0.271558","0.088525","0.005981","-0.295483"
"C","1617445320.9173455","7","1","37","32","40","20","0.926208","-0.087219","-0.366638","0.004517","0","0.007634","-0.022901","6.536523","-1.579102","6.730322","-0.111255","0.035889","-0.284717","0.113647","-0.016748","-0.284717"
"C","1617445320.9073975","7","5","40","36","39","20","0.926147","-0.087341","-0.36676","0.004822","0","0.007634","-0.022901","6.553271","-1.58269","6.735107","-0.095703","0.037085","-0.277539","0.120825","-0.014355","-0.269165"
"C","1617445320.8972332","7","1","37","34","39","22","0.926147","-0.087524","-0.366821","0.005066","0","0.007634","-0.022901","6.549683","-1.604224","6.733911","-0.099292","0.020337","-0.277539","0.117236","-0.031104","-0.269165"
"C","1617445320.8873436","7","4","39","35","41","20","0.926086","-0.087708","-0.366882","0.00531","0","0","-0.015267","6.535327","-1.625757","6.726733","-0.114844","0.003589","-0.283521","0.108862","-0.049048","-0.281128"
"C","1617445320.8772311","7","3","37","32","38","20","0.926086","-0.087891","-0.366821","0.005493","0.007634","-0.007634","-0.015267","6.519775","-1.638916","6.7375","-0.128003","-0.003589","-0.272754","0.090918","-0.056226","-0.281128"
"C","1617445320.8672936","7","4","36","34","37","21","0.926147","-0.088074","-0.366699","0.005615","0.007634","-0.007634","-0.015267","6.503027","-1.643701","6.738696","-0.143555","-0.003589","-0.272754","0.080151","-0.057422","-0.291895"
"C","1617445320.8573225","7","4","38","34","35","21","0.926147","-0.088257","-0.366577","0.005615","0.007634","-0.015267","-0.007634","6.470727","-1.644897","6.731519","-0.173462","-0.002393","-0.281128","0.063403","-0.059814","-0.318213"
"C","1617445320.8471303","7","4","41","36","38","21","0.926208","-0.088379","-0.366394","0.005615","0.007634","-0.015267","-0.007634","6.436035","-1.629346","6.730322","-0.204565","0.014355","-0.284717","0.044263","-0.046655","-0.344531"
"C","1617445320.8372118","7","6","37","35","32","19","0.92627","-0.088501","-0.366211","0.005615","0","-0.015267","-0.007634","6.420484","-1.593457","6.730322","-0.217725","0.052637","-0.285913","0.037085","-0.00957","-0.360083"
"C","1617445320.8274243","7","-3","40","34","38","19","0.926331","-0.088501","-0.366028","0.005615","-0.007634","-0.015267","-0.007634","6.407324","-1.544409","6.735107","-0.228491","0.101685","-0.284717","0.031104","0.037085","-0.375635"
"C","1617445320.8172147","7","3","39","34","39","21","0.926392","-0.08844","-0.365906","0.005676","-0.007634","-0.015267","-0.007634","6.392969","-1.492969","6.72793","-0.240454","0.153125","-0.293091","0.031104","0.084937","-0.398364"
"C","1617445320.8073063","7","3","39","34","40","22","0.926453","-0.088379","-0.365784","0.005798","-0.007634","-0.007634","-0.007634","6.385791","-1.451099","6.711182","-0.245239","0.194995","-0.312231","0.04187","0.123218","-0.42229"
"C","1617445320.797247","7","5","39","35","36","19","0.926514","-0.088379","-0.365662","0.00592","-0.007634","-0.007634","-0.007634","6.386987","-1.429565","6.690845","-0.242847","0.217725","-0.334961","0.061011","0.142358","-0.440234"
"C","1617445320.7872508","7","3","37","33","40","23","0.926514","-0.08844","-0.36554","0.006104","-0.007634","-0.007634","-0.015267","6.39895","-1.441528","6.677686","-0.228491","0.208154","-0.34812","0.078955","0.131592","-0.439038"
"C","1617445320.7775223","7","5","37","36","39","21","0.926575","-0.088562","-0.365417","0.006287","-0.007634","-0.007634","-0.015267","6.401343","-1.475024","6.666919","-0.223706","0.178247","-0.361279","0.089722","0.100488","-0.440234"
"C","1617445320.7673757","7","5","39","36","38","23","0.926636","-0.088745","-0.365234","0.00647","0","-0.015267","-0.015267","6.385791","-1.516895","6.664526","-0.235669","0.141162","-0.366064","0.082544","0.062207","-0.44502"
"C","1617445320.7571926","7","4","39","36","38","21","0.926697","-0.088867","-0.365051","0.006653","0","-0.015267","-0.022901","6.373828","-1.568335","6.676489","-0.244043","0.093311","-0.356494","0.066992","0.015552","-0.435449"
"C","1617445320.7473729","7","4","37","34","37","23","0.926758","-0.08905","-0.364868","0.006897","0","-0.015267","-0.022901","6.376221","-1.616186","6.699219","-0.239258","0.050244","-0.334961","0.053833","-0.022729","-0.410327"
"C","1617445320.7374015","7","4","38","34","38","21","0.926819","-0.089172","-0.364624","0.007141","0","-0.015267","-0.022901","6.371436","-1.65686","6.711182","-0.239258","0.013159","-0.326587","0.045459","-0.057422","-0.397168"
"C","1617445320.7273858","7","5","39","34","38","21","0.92688","-0.089233","-0.36438","0.007385","-0.007634","-0.015267","-0.022901","6.355884","-1.678394","6.721948","-0.250024","-0.003589","-0.318213","0.031104","-0.072974","-0.395972"
"C","1617445320.7179627","7","4","37","34","39","21","0.927002","-0.089294","-0.364136","0.007629","-0.007634","-0.022901","-0.022901","6.334351","-1.683179","6.732715","-0.267969","-0.005981","-0.311035","0.013159","-0.076563","-0.401953"
"C","1617445320.7081594","7","4","38","34","37","17","0.927124","-0.089233","-0.363831","0.007874","-0.015267","-0.022901","-0.015267","6.303247","-1.681982","6.736304","-0.294287","-0.003589","-0.312231","-0.004785","-0.076563","-0.421094"
"C","1617445320.697999","7","4","38","32","35","18","0.927246","-0.089172","-0.363525","0.008057","-0.015267","-0.015267","-0.015267","6.291284","-1.674805","6.736304","-0.300269","0.002393","-0.317017","-0.005981","-0.071777","-0.429468"
"C","1617445320.6880183","7","4","37","32","35","25","0.927368","-0.088989","-0.363281","0.008301","-0.015267","-0.015267","-0.015267","6.29248","-1.667627","6.755445","-0.295483","0.008374","-0.301465","-0.013159","-0.062207","-0.416309"
"C","1617445320.678097","7","3","39","33","38","17","0.927429","-0.088806","-0.363098","0.008484","-0.022901","-0.015267","-0.007634","6.29248","-1.649683","6.768603","-0.291895","0.023926","-0.291895","-0.015552","-0.045459","-0.410327"
"C","1617445320.668087","7","3","38","34","38","20","0.927551","-0.088562","-0.362976","0.008667","-0.022901","-0.015267","-0.007634","6.284106","-1.630542","6.786548","-0.299072","0.040674","-0.277539","-0.029907","-0.027515","-0.406738"
"C","1617445320.6578825","7","5","37","36","36","20","0.927612","-0.088196","-0.362793","0.00885","-0.030534","-0.015267","-0.007634","6.269751","-1.600635","6.800903","-0.309839","0.065796","-0.265576","-0.045459","-0.001196","-0.410327"
"C","1617445320.6479936","7","5","39","33","40","16","0.927673","-0.087891","-0.362671","0.009033","-0.030534","-0.007634","-0.007634","6.257788","-1.571924","6.81167","-0.320605","0.089722","-0.257202","-0.057422","0.021533","-0.415112"
"C","1617445320.63806","7","5","36","34","38","17","0.927734","-0.087585","-0.36261","0.009155","-0.022901","-0.007634","-0.007634","6.262573","-1.562353","6.814063","-0.314624","0.094507","-0.257202","-0.053833","0.027515","-0.41272"
"C","1617445320.6280236","7","5","37","34","38","21","0.927795","-0.08728","-0.36261","0.009277","-0.022901","-0.007634","0","6.272143","-1.547998","6.82124","-0.305054","0.104077","-0.251221","-0.050244","0.038281","-0.403149"
"C","1617445320.6181977","7","3","38","33","39","23","0.927856","-0.086914","-0.362549","0.009399","-0.022901","-0.007634","0","6.279321","-1.522876","6.840381","-0.297876","0.124414","-0.234473","-0.055029","0.062207","-0.38999"
"C","1617445320.60824","7","5","39","34","38","23","0.927917","-0.086548","-0.362427","0.009399","-0.022901","-0.015267","0","6.28291","-1.484595","6.864306","-0.291895","0.155518","-0.212939","-0.063403","0.096899","-0.375635"
"C","1617445320.597931","7","5","37","36","42","21","0.927979","-0.086243","-0.362305","0.009399","-0.022901","-0.015267","0","6.290088","-1.440332","6.888232","-0.283521","0.194995","-0.191406","-0.070581","0.139966","-0.360083"
"C","1617445320.5880148","7","3","37","35","39","22","0.928101","-0.085876","-0.362122","0.00946","-0.030534","-0.015267","0.007634","6.298462","-1.408032","6.902588","-0.272754","0.220117","-0.181836","-0.068188","0.166284","-0.350513"
"C","1617445320.5779324","7","4","44","36","39","23","0.928162","-0.08551","-0.362061","0.00946","-0.030534","-0.007634","0","6.311621","-1.376929","6.938477","-0.258398","0.245239","-0.14834","-0.078955","0.197388","-0.320605"
"C","1617445320.567941","7","3","39","33","38","21","0.928223","-0.085205","-0.362","0.009521","-0.030534","-0.007634","0","6.330762","-1.353003","6.96958","-0.238062","0.26438","-0.118433","-0.08374","0.22251","-0.288306"
"C","1617445320.557954","7","5","37","35","38","15","0.928223","-0.0849","-0.362","0.009583","-0.030534","-0.007634","0","6.349902","-1.327881","6.999487","-0.218921","0.283521","-0.089722","-0.088525","0.247632","-0.257202"
"C","1617445320.5479672","7","5","37","33","37","22","0.928284","-0.084656","-0.361938","0.009766","-0.022901","-0.007634","-0.007634","6.35708","-1.320703","7.019824","-0.211743","0.288306","-0.071777","-0.094507","0.256006","-0.240454"
"C","1617445320.5380185","7","5","35","34","38","18","0.928345","-0.084473","-0.361877","0.009949","-0.022901","-0.015267","-0.007634","6.340332","-1.33147","7.044946","-0.227295","0.275146","-0.047852","-0.123218","0.245239","-0.23208"
"C","1617445320.5281122","7","3","37","32","34","20","0.928345","-0.084473","-0.361755","0.010193","-0.015267","-0.015267","-0.007634","6.31521","-1.376929","7.050928","-0.250024","0.23208","-0.043066","-0.144751","0.202173","-0.235669"
"C","1617445320.5180645","7","5","40","37","35","18","0.928406","-0.084534","-0.361633","0.010315","-0.007634","-0.015267","-0.007634","6.291284","-1.449902","7.055713","-0.271558","0.160303","-0.039478","-0.166284","0.129199","-0.235669"
"C","1617445320.5080273","7","2","39","33","36","22","0.928406","-0.084595","-0.361572","0.010498","-0.007634","-0.007634","-0.007634","6.276929","-1.52168","7.035376","-0.284717","0.090918","-0.061011","-0.165088","0.057422","-0.248828"
"C","1617445320.4981382","7","3","37","34","36","20","0.928406","-0.084595","-0.361694","0.01062","-0.015267","0","-0.007634","6.281714","-1.577905","7.01145","-0.282324","0.035889","-0.08374","-0.149536","0","-0.25481"
"C","1617445320.488178","7","4","37","32","37","21","0.928345","-0.084473","-0.361877","0.010803","-0.022901","0.007634","-0.015267","6.285303","-1.613794","6.988721","-0.281128","0","-0.104077","-0.136377","-0.038281","-0.263184"
"C","1617445320.4780536","7","5","36","32","36","17","0.928223","-0.08429","-0.362122","0.011108","-0.022901","0.015267","-0.022901","6.286499","-1.636523","6.954028","-0.282324","-0.023926","-0.135181","-0.117236","-0.065796","-0.282324"
"C","1617445320.4680858","7","3","37","32","36","20","0.928101","-0.084045","-0.362488","0.011536","-0.022901","0.022901","-0.022901","6.309228","-1.660449","6.920532","-0.265576","-0.049048","-0.165088","-0.086133","-0.094507","-0.288306"
"C","1617445320.4582777","7","6","39","35","36","24","0.927979","-0.083862","-0.362915","0.011963","-0.022901","0.022901","-0.022901","6.352295","-1.686768","6.903784","-0.228491","-0.075366","-0.177051","-0.05144","-0.118433","-0.267969"
"C","1617445320.4480522","7","3","37","33","38","19","0.927795","-0.08374","-0.363342","0.012268","-0.015267","0.022901","-0.015267","6.377417","-1.71189","6.873877","-0.209351","-0.101685","-0.200977","-0.021533","-0.147144","-0.267969"
"C","1617445320.4380283","7","3","36","34","35","16","0.927673","-0.083618","-0.363647","0.012451","-0.007634","0.015267","-0.007634","6.373828","-1.735815","6.837988","-0.217725","-0.12561","-0.23208","-0.007178","-0.175854","-0.293091"
"C","1617445320.4280114","7","5","38","33","36","20","0.927612","-0.083374","-0.363892","0.012451","-0.015267","0.007634","0.007634","6.358276","-1.738208","6.815259","-0.236865","-0.132788","-0.252417","-0.007178","-0.186621","-0.319409"
"C","1617445320.4180093","7","1","37","33","39","21","0.927551","-0.083069","-0.364136","0.012329","-0.015267","0.007634","0.007634","6.335547","-1.699927","6.814063","-0.263184","-0.101685","-0.251221","-0.026318","-0.15791","-0.340942"
"C","1617445320.4080195","7","3","37","36","39","17","0.92749","-0.082703","-0.364319","0.012207","-0.022901","0.007634","0.007634","6.318799","-1.63772","6.82124","-0.283521","-0.046655","-0.24165","-0.045459","-0.104077","-0.356494"
"C","1617445320.3980055","7","7","39","33","35","18","0.92749","-0.082214","-0.364502","0.012085","-0.022901","0.007634","0.007634","6.304443","-1.552783","6.842773","-0.301465","0.027515","-0.220117","-0.070581","-0.028711","-0.366064"
"C","1617445320.388116","7","3","38","33","36","21","0.927429","-0.081787","-0.364685","0.011963","-0.022901","0.007634","0.015267","6.30564","-1.460669","6.869092","-0.303857","0.111255","-0.192603","-0.087329","0.056226","-0.361279"
"C","1617445320.3780398","7","3","38","33","39","21","0.927429","-0.081421","-0.364868","0.011719","-0.015267","0.007634","0.022901","6.32478","-1.376929","6.896606","-0.288306","0.186621","-0.163892","-0.092114","0.136377","-0.342139"
"C","1617445320.3682184","7","6","35","34","34","21","0.927368","-0.081116","-0.36499","0.011414","-0.007634","0","0.022901","6.341528","-1.300366","6.934888","-0.27395","0.25481","-0.124414","-0.10647","0.210547","-0.314624"
"C","1617445320.3580742","7","4","38","32","32","20","0.927368","-0.080994","-0.365112","0.010986","0","0","0.030534","6.349902","-1.223804","6.981543","-0.267969","0.326587","-0.076563","-0.131592","0.289502","-0.287109"
"C","1617445320.3479433","7","6","36","32","38","23","0.927368","-0.080872","-0.365112","0.010498","0","-0.007634","0.022901","6.355884","-1.149634","7.035376","-0.263184","0.394775","-0.022729","-0.161499","0.364868","-0.256006"
"C","1617445320.3380623","7","0","39","32","36","21","0.927429","-0.080811","-0.365051","0.010071","-0.007634","-0.015267","0.022901","6.329566","-1.074268","7.089209","-0.289502","0.466553","0.028711","-0.212939","0.441431","-0.247632"
"C","1617445320.328253","7","5","36","34","36","21","0.92749","-0.08075","-0.364868","0.009766","-0.007634","-0.022901","0.015267","6.302051","-1.016846","7.133471","-0.314624","0.520386","0.070581","-0.257202","0.498853","-0.242847"
"C","1617445320.3179915","7","4","33","34","38","22","0.927551","-0.080811","-0.364624","0.009644","-0.007634","-0.022901","0.007634","6.298462","-1.004883","7.163379","-0.314624","0.532349","0.096899","-0.27395","0.514404","-0.224902"
"C","1617445320.3080883","7","1","36","34","36","21","0.927612","-0.080994","-0.364441","0.009583","0","-0.022901","0","6.287695","-1.037183","7.190894","-0.322998","0.503638","0.123218","-0.299072","0.489282","-0.208154"
"C","1617445320.2981637","7","0","37","34","35","19","0.927673","-0.081238","-0.364258","0.009644","0","-0.022901","-0.007634","6.300855","-1.092212","7.19209","-0.30625","0.453394","0.122021","-0.288306","0.440234","-0.189014"
"C","1617445320.2881095","7","4","37","35","38","23","0.927673","-0.081604","-0.364197","0.009827","0","-0.007634","-0.015267","6.346313","-1.156811","7.189697","-0.259595","0.395972","0.119629","-0.25481","0.387598","-0.150732"
"C","1617445320.2780514","7","4","38","34","36","23","0.927612","-0.081909","-0.364258","0.010071","-0.007634","-0.007634","-0.022901","6.415698","-1.219019","7.174146","-0.19021","0.340942","0.10647","-0.197388","0.336157","-0.105273"
"C","1617445320.2680814","7","5","39","34","37","21","0.927551","-0.082153","-0.364319","0.010437","-0.007634","0","-0.022901","6.467139","-1.277637","7.115527","-0.13877","0.289502","0.049048","-0.123218","0.281128","-0.104077"
"C","1617445320.2582846","7","1","36","32","36","21","0.92749","-0.082458","-0.364441","0.010803","-0.007634","0","-0.022901","6.522168","-1.342236","7.031787","-0.084937","0.233276","-0.031104","-0.031104","0.217725","-0.11604"
"C","1617445320.2482069","7","3","37","31","34","21","0.927368","-0.082642","-0.364685","0.01123","-0.007634","0.007634","-0.022901","6.590356","-1.418799","6.954028","-0.019141","0.162695","-0.104077","0.062207","0.143555","-0.113647"
"C","1617445320.2381816","7","5","35","34","36","20","0.927246","-0.082886","-0.364929","0.011597","-0.007634","0.015267","-0.030534","6.648974","-1.470239","6.877466","0.034692","0.118433","-0.177051","0.149536","0.093311","-0.123218"
"C","1617445320.2281747","7","4","38","34","36","19","0.927124","-0.083069","-0.365112","0.012024","-0.007634","0.015267","-0.030534","6.683667","-1.514502","6.814063","0.068188","0.080151","-0.236865","0.212939","0.050244","-0.136377"
"C","1617445320.218163","7","7","40","34","41","20","0.927063","-0.083252","-0.365295","0.01239","0","0.015267","-0.022901","6.694434","-1.549194","6.762622","0.076563","0.05144","-0.284717","0.251221","0.015552","-0.160303"
"C","1617445320.208145","7","3","37","36","39","21","0.927002","-0.083496","-0.365417","0.012756","0","0.007634","-0.022901","6.680078","-1.591064","6.718359","0.061011","0.016748","-0.326587","0.266772","-0.025122","-0.196191"
"C","1617445320.1980703","7","4","36","33","35","22","0.926941","-0.08374","-0.365417","0.013","0.007634","0.007634","-0.022901","6.648974","-1.631738","6.689649","0.031104","-0.016748","-0.354102","0.261987","-0.0646","-0.229687"
"C","1617445320.1881006","7","4","37","34","38","24","0.926941","-0.084045","-0.365417","0.013184","0.015267","0","-0.015267","6.595141","-1.667627","6.671704","-0.021533","-0.045459","-0.372046","0.234473","-0.100488","-0.27395"
"C","1617445320.1781032","7","3","38","35","36","22","0.927002","-0.08429","-0.365234","0.013245","0.007634","-0.007634","-0.015267","6.523364","-1.690356","6.683667","-0.089722","-0.063403","-0.362476","0.177051","-0.123218","-0.309839"
"C","1617445320.1681204","7","3","39","33","35","17","0.927063","-0.084473","-0.364929","0.013306","0.007634","-0.015267","-0.015267","6.442017","-1.684375","6.704004","-0.166284","-0.053833","-0.344531","0.108862","-0.117236","-0.350513"
"C","1617445320.1583006","7","0","40","36","37","21","0.927185","-0.084534","-0.364624","0.013306","0","-0.015267","-0.007634","6.352295","-1.648486","6.754248","-0.251221","-0.016748","-0.299072","0.017944","-0.081348","-0.381616"
"C","1617445320.1480496","7","4","37","33","38","15","0.927307","-0.084595","-0.364319","0.013367","0","-0.022901","-0.015267","6.279321","-1.601831","6.808081","-0.319409","0.031104","-0.248828","-0.0646","-0.033496","-0.398364"
"C","1617445320.1380694","7","3","36","33","38","20","0.927429","-0.084656","-0.364075","0.013428","0","-0.015267","-0.015267","6.211133","-1.568335","6.846362","-0.384009","0.065796","-0.215332","-0.132788","0","-0.423486"
"C","1617445320.1283722","7","5","37","36","36","20","0.92749","-0.084839","-0.363892","0.01355","0","-0.015267","-0.015267","6.169263","-1.549194","6.866699","-0.42229","0.088525","-0.196191","-0.173462","0.021533","-0.440234"
"C","1617445320.1181967","7","2","38","36","35","23","0.92749","-0.084961","-0.36377","0.013672","0","-0.015267","-0.015267","6.1573","-1.555176","6.893018","-0.43186","0.086133","-0.171069","-0.197388","0.021533","-0.427075"
"C","1617445320.1084974","7","5","37","34","37","23","0.92749","-0.085144","-0.363708","0.013733","0","-0.015267","-0.015267","6.162085","-1.565942","6.913354","-0.425879","0.078955","-0.150732","-0.206958","0.017944","-0.407935"
"C","1617445320.0981731","7","4","39","35","38","20","0.92749","-0.085327","-0.363647","0.013855","0","-0.007634","-0.015267","6.17644","-1.562353","6.924121","-0.410327","0.087329","-0.139966","-0.203369","0.028711","-0.391187"
"C","1617445313.4360237","7","16","44","36","43","26","0.898926","-0.105103","-0.408447","-0.118469","-0.022901","0","-0.007634","7.805786","-0.515601","5.740991","0.364868","0.387598","-0.571826","0.753662","0.15791","-0.126807"
"C","1617445313.425918","7","16","43","38","42","26","0.899109","-0.10498","-0.408203","-0.118164","-0.022901","-0.007634","-0.015267","7.792627","-0.545508","5.778076","0.355298","0.358887","-0.539526","0.716577","0.141162","-0.111255"
"C","1617445313.416659","7","16","45","36","44","24","0.899353","-0.104919","-0.407776","-0.117798","-0.022901","-0.015267","-0.022901","7.754346","-0.573022","5.828321","0.322998","0.333765","-0.49646","0.656763","0.133984","-0.105273"
"C","1617445313.4067297","7","16","44","36","42","25","0.899658","-0.104797","-0.407227","-0.11731","-0.030534","-0.022901","-0.038168","7.711279","-0.608911","5.895312","0.289502","0.302661","-0.437842","0.584985","0.126807","-0.090918"
"C","1617445313.3967657","7","15","43","36","44","25","0.900024","-0.104736","-0.406677","-0.116577","-0.030534","-0.022901","-0.045802","7.653857","-0.656763","5.959912","0.240454","0.260791","-0.382812","0.501245","0.108862","-0.089722"
"C","1617445313.3866832","7","15","42","37","43","26","0.900391","-0.104675","-0.406067","-0.115723","-0.038168","-0.030534","-0.053435","7.586865","-0.727344","6.026904","0.183032","0.198584","-0.325391","0.405542","0.07417","-0.090918"
"C","1617445313.3766806","7","17","43","34","42","21","0.900818","-0.104614","-0.405457","-0.114746","-0.038168","-0.030534","-0.068702","7.511499","-0.790747","6.086719","0.117236","0.143555","-0.276343","0.312231","0.044263","-0.104077"
"C","1617445313.366829","7","17","44","37","43","26","0.901306","-0.104553","-0.404785","-0.113525","-0.045802","-0.038168","-0.076336","7.413404","-0.84458","6.141748","0.029907","0.101685","-0.23208","0.211743","0.027515","-0.137573"
"C","1617445313.3566475","7","16","43","36","42","23","0.901794","-0.10437","-0.404114","-0.112244","-0.053435","-0.038168","-0.076336","7.312915","-0.887646","6.203955","-0.058618","0.066992","-0.181836","0.108862","0.019141","-0.168677"
"C","1617445313.3467565","7","17","42","36","44","24","0.902283","-0.104126","-0.403442","-0.110901","-0.053435","-0.038168","-0.083969","7.216016","-0.911572","6.25061","-0.144751","0.052637","-0.145947","0.022729","0.026318","-0.208154"
"C","1617445313.3368225","7","17","44","37","44","24","0.90271","-0.103882","-0.402893","-0.109436","-0.053435","-0.038168","-0.083969","7.120313","-0.917554","6.297266","-0.230884","0.056226","-0.108862","-0.057422","0.049048","-0.248828"
"C","1617445313.326726","7","15","43","36","42","25","0.903137","-0.103638","-0.402344","-0.107971","-0.045802","-0.038168","-0.083969","7.040161","-0.937891","6.333154","-0.300269","0.044263","-0.082544","-0.124414","0.052637","-0.282324"
"C","1617445313.3169842","7","17","44","37","45","25","0.903564","-0.103516","-0.401794","-0.106628","-0.038168","-0.038168","-0.076336","6.967187","-0.973779","6.349902","-0.364868","0.019141","-0.075366","-0.179443","0.037085","-0.324194"
"C","1617445313.3067603","7","15","44","36","41","26","0.903992","-0.103394","-0.401184","-0.105408","-0.038168","-0.038168","-0.076336","6.894214","-1.014453","6.366651","-0.427075","-0.010767","-0.068188","-0.234473","0.016748","-0.362476"
"C","1617445313.296933","7","18","43","35","44","26","0.904358","-0.103394","-0.400635","-0.104248","-0.030534","-0.038168","-0.076336","6.830811","-1.047949","6.388184","-0.480908","-0.033496","-0.055029","-0.285913","0.003589","-0.391187"
"C","1617445313.2866552","7","17","43","35","44","24","0.904785","-0.103333","-0.400085","-0.103149","-0.030534","-0.038168","-0.068702","6.778174","-1.063501","6.419287","-0.525171","-0.039478","-0.033496","-0.332568","0.007178","-0.409131"
"C","1617445313.2767725","7","15","43","36","43","25","0.905151","-0.103271","-0.399597","-0.102051","-0.030534","-0.045802","-0.068702","6.745874","-1.073071","6.450391","-0.549097","-0.039478","-0.010767","-0.364868","0.014355","-0.411523"
"C","1617445313.2667408","7","13","44","34","44","25","0.905457","-0.10321","-0.399048","-0.100952","-0.030534","-0.045802","-0.068702","6.715967","-1.086231","6.46355","-0.569434","-0.043066","-0.004785","-0.384009","0.014355","-0.421094"
"C","1617445313.256824","7","16","44","36","41","26","0.905823","-0.103149","-0.39856","-0.099976","-0.030534","-0.038168","-0.061069","6.692041","-1.094604","6.487475","-0.584985","-0.044263","0.008374","-0.404346","0.016748","-0.423486"
"C","1617445313.2467103","7","17","42","37","43","25","0.906128","-0.103027","-0.398071","-0.09906","-0.030534","-0.038168","-0.061069","6.680078","-1.091016","6.52456","-0.588574","-0.033496","0.038281","-0.425879","0.034692","-0.406738"
"C","1617445313.2368488","7","19","43","37","42","25","0.906372","-0.102966","-0.397766","-0.098206","-0.022901","-0.030534","-0.053435","6.668115","-1.095801","6.543701","-0.595752","-0.031104","0.052637","-0.440234","0.040674","-0.403149"
"C","1617445313.2266722","7","18","45","34","41","24","0.906616","-0.102844","-0.397461","-0.097412","-0.022901","-0.030534","-0.045802","6.658545","-1.092212","6.565234","-0.600537","-0.022729","0.068188","-0.452197","0.052637","-0.395972"
"C","1617445313.2167523","7","15","44","36","43","23","0.906799","-0.102783","-0.397217","-0.096741","-0.022901","-0.030534","-0.038168","6.646582","-1.087427","6.57959","-0.607715","-0.013159","0.078955","-0.462964","0.0646","-0.395972"
"C","1617445313.2067757","7","15","42","36","43","21","0.906921","-0.102783","-0.397034","-0.096191","-0.015267","-0.022901","-0.038168","6.627441","-1.088623","6.591553","-0.623267","-0.00957","0.088525","-0.478516","0.071777","-0.400757"
"C","1617445313.196827","7","16","45","37","44","25","0.907043","-0.102844","-0.396851","-0.095642","-0.015267","-0.022901","-0.030534","6.615479","-1.09939","6.602319","-0.631641","-0.014355","0.096899","-0.491675","0.069385","-0.400757"
"C","1617445313.186778","7","12","42","34","68","23","0.907166","-0.102844","-0.396667","-0.095215","-0.007634","-0.022901","-0.030534","6.609497","-1.106567","6.608301","-0.635229","-0.017944","0.099292","-0.497656","0.065796","-0.400757"
"C","1617445313.1770906","7","17","43","35","44","25","0.907227","-0.102966","-0.396606","-0.094849","-0.007634","-0.015267","-0.022901","6.610693","-1.122119","6.605908","-0.632837","-0.027515","0.096899","-0.49646","0.055029","-0.399561"
"C","1617445313.1667254","7","16","41","34","42","23","0.907227","-0.103027","-0.396606","-0.094543","-0.007634","-0.007634","-0.022901","6.620264","-1.143652","6.598731","-0.62207","-0.045459","0.089722","-0.489282","0.034692","-0.394775"
"C","1617445313.1569395","7","16","42","37","40","23","0.907227","-0.103149","-0.39679","-0.094299","0","0","-0.015267","6.647779","-1.165186","6.572412","-0.598145","-0.063403","0.065796","-0.460571","0.00957","-0.391187"
"C","1617445313.146837","7","16","43","34","43","19","0.907104","-0.103271","-0.396973","-0.094177","0","0","-0.015267","6.680078","-1.197485","6.538916","-0.568237","-0.093311","0.035889","-0.427075","-0.028711","-0.385205"
"C","1617445313.137006","7","17","46","37","40","25","0.906982","-0.103333","-0.397217","-0.094116","0","0","-0.007634","6.725537","-1.209448","6.513794","-0.525171","-0.104077","0.015552","-0.386401","-0.049048","-0.366064"
"C","1617445313.126753","7","16","43","34","42","26","0.906921","-0.103333","-0.397461","-0.094055","0","0","-0.007634","6.763818","-1.216626","6.507812","-0.491675","-0.112451","0.013159","-0.364868","-0.061011","-0.342139"
"C","1617445313.117074","7","16","44","34","42","25","0.906799","-0.103455","-0.397705","-0.094177","0.007634","0","0","6.794922","-1.227393","6.491065","-0.46416","-0.122021","0","-0.339746","-0.075366","-0.328979"
"C","1617445313.1067","7","17","42","63","45","23","0.906677","-0.103577","-0.397888","-0.09436","0.015267","0","0.007634","6.824829","-1.238159","6.470727","-0.436646","-0.132788","-0.015552","-0.312231","-0.092114","-0.318213"
"C","1617445313.0967228","7","15","41","35","42","24","0.906494","-0.10376","-0.398132","-0.094727","0.015267","0","0.015267","6.847558","-1.228589","6.444409","-0.418701","-0.123218","-0.037085","-0.283521","-0.089722","-0.320605"
"C","1617445313.0867498","7","16","44","35","42","24","0.906372","-0.103882","-0.398315","-0.095154","0.015267","0.007634","0.022901","6.865503","-1.1927","6.412109","-0.403149","-0.089722","-0.065796","-0.244043","-0.066992","-0.331372"
"C","1617445313.0767784","7","17","42","34","41","23","0.906189","-0.103943","-0.398621","-0.095703","0.015267","0.007634","0.022901","6.889429","-1.125708","6.388184","-0.385205","-0.026318","-0.084937","-0.202173","-0.011963","-0.33855"
"C","1617445313.0667105","7","17","44","38","45","22","0.905945","-0.103943","-0.398987","-0.096191","0.015267","0.015267","0.030534","6.919336","-1.051538","6.355884","-0.360083","0.04187","-0.111255","-0.149536","0.043066","-0.344531"
"C","1617445313.0568469","7","17","42","37","43","25","0.90564","-0.104004","-0.399475","-0.096741","0.015267","0.022901","0.030534","6.968384","-0.994116","6.31521","-0.319409","0.094507","-0.143555","-0.084937","0.081348","-0.342139"
"C","1617445313.0467649","7","18","42","36","41","-5","0.905396","-0.104187","-0.399963","-0.097351","0.022901","0.015267","0.030534","7.012647","-0.978564","6.253003","-0.283521","0.10647","-0.198584","-0.019141","0.075366","-0.352905"
"C","1617445313.036848","7","17","44","36","44","24","0.90509","-0.104492","-0.400269","-0.098083","0.038168","0.007634","0.038168","7.050928","-1.001294","6.194385","-0.250024","0.082544","-0.250024","0.0323","0.034692","-0.358887"
"C","1617445313.0268722","7","15","44","36","44","23","0.904907","-0.104858","-0.400452","-0.098877","0.038168","0.007634","0.038168","7.064087","-1.033594","6.169263","-0.240454","0.049048","-0.271558","0.044263","-0.002393","-0.362476"
"C","1617445313.0168705","7","16","43","36","46","26","0.904724","-0.105225","-0.400635","-0.09967","0.038168","0.007634","0.038168","7.065283","-1.038379","6.184814","-0.244043","0.044263","-0.252417","0.027515","-0.001196","-0.351709"
"C","1617445313.0068483","7","17","39","35","44","21","0.904541","-0.10553","-0.400696","-0.100464","0.030534","0","0.038168","7.052124","-1.043164","6.207544","-0.259595","0.038281","-0.226099","-0.001196","0","-0.345728"
"C","1617445312.996864","7","16","44","35","44","25","0.904358","-0.105835","-0.400757","-0.101257","0.030534","0","0.030534","7.03418","-1.04436","6.233862","-0.278735","0.035889","-0.197388","-0.034692","0.007178","-0.340942"
"C","1617445312.9868326","7","16","43","36","42","24","0.904236","-0.106018","-0.400818","-0.10199","0.022901","0","0.030534","7.013843","-1.037183","6.253003","-0.301465","0.039478","-0.177051","-0.062207","0.019141","-0.344531"
"C","1617445312.9769511","7","16","43","34","42","25","0.904114","-0.106262","-0.400879","-0.102722","0.022901","0","0.038168","7.009058","-1.027612","6.268555","-0.308643","0.047852","-0.159106","-0.077759","0.0323","-0.339746"
"C","1617445312.966836","7","16","43","37","42","25","0.903992","-0.106445","-0.401001","-0.103455","0.030534","0","0.038168","7.003076","-1.03479","6.266162","-0.317017","0.037085","-0.160303","-0.084937","0.022729","-0.345728"
"C","1617445312.9569273","7","15","44","36","43","25","0.903809","-0.106628","-0.401062","-0.104309","0.030534","0","0.038168","7.012647","-1.035986","6.242236","-0.309839","0.0323","-0.181836","-0.065796","0.011963","-0.354102"
"C","1617445312.9468606","7","22","45","35","43","23","0.903625","-0.106873","-0.401245","-0.105164","0.030534","0","0.045802","7.03418","-1.03479","6.21831","-0.291895","0.029907","-0.202173","-0.040674","0.002393","-0.352905"
"C","1617445312.9368963","7","17","43","34","42","24","0.903381","-0.107056","-0.401428","-0.106079","0.030534","0.007634","0.045802","7.067676","-1.021631","6.1896","-0.261987","0.038281","-0.226099","-0.001196","0.001196","-0.34812"
"C","1617445312.9267416","7","16","43","35","44","23","0.903137","-0.107239","-0.401733","-0.107056","0.030534","0.015267","0.045802","7.102368","-1.008472","6.151319","-0.233276","0.046655","-0.259595","0.04187","-0.002393","-0.349316"
"C","1617445312.9167483","7","19","43","35","42","24","0.902832","-0.107483","-0.401978","-0.108032","0.030534","0.015267","0.045802","7.135864","-0.994116","6.107056","-0.204565","0.056226","-0.297876","0.090918","-0.007178","-0.352905"
"C","1617445312.9069524","7","11","43","36","41","24","0.902588","-0.107666","-0.402283","-0.109009","0.030534","0.015267","0.045802","7.174146","-0.974976","6.072363","-0.172266","0.069385","-0.327783","0.137573","-0.007178","-0.350513"
"C","1617445312.8967617","7","14","41","38","40","21","0.902344","-0.107849","-0.402527","-0.109985","0.030534","0.007634","0.045802","7.194482","-0.955835","6.040063","-0.156714","0.08374","-0.355298","0.171069","-0.002393","-0.35769"
"C","1617445312.886784","7","16","42","36","42","24","0.902161","-0.107971","-0.40271","-0.110901","0.022901","0.007634","0.045802","7.202857","-0.921143","6.03169","-0.151929","0.112451","-0.361279","0.186621","0.021533","-0.361279"
"C","1617445312.877028","7","17","42","34","42","25","0.901917","-0.108154","-0.402893","-0.111755","0.022901","0.007634","0.045802","7.206445","-0.898413","6.035278","-0.151929","0.130396","-0.352905","0.186621","0.040674","-0.35769"
"C","1617445312.8668284","7","17","43","34","41","25","0.901733","-0.108337","-0.403076","-0.11261","0.030534","0.007634","0.045802","7.218408","-0.905591","6.040063","-0.143555","0.118433","-0.344531","0.183032","0.029907","-0.344531"
"C","1617445312.856915","7","17","42","36","44","24","0.90155","-0.108582","-0.403198","-0.113464","0.030534","0.007634","0.038168","7.230371","-0.946265","6.035278","-0.135181","0.075366","-0.346924","0.177051","-0.011963","-0.334961"
"C","1617445312.846816","7","15","42","37","46","25","0.901367","-0.108826","-0.40332","-0.114319","0.030534","0.007634","0.038168","7.24353","-0.98335","6.05083","-0.12561","0.034692","-0.328979","0.159106","-0.046655","-0.312231"
"C","1617445312.8369715","7","15","43","36","42","25","0.901184","-0.109009","-0.403381","-0.115112","0.022901","0.007634","0.038168","7.237549","-0.996509","6.074756","-0.132788","0.017944","-0.302661","0.131592","-0.053833","-0.297876"
"C","1617445312.826884","7","16","42","37","45","22","0.901062","-0.109131","-0.403442","-0.115906","0.015267","0","0.038168","7.232764","-0.998901","6.099878","-0.139966","0.010767","-0.276343","0.10647","-0.052637","-0.285913"
"C","1617445312.817006","7","15","41","35","45","26","0.900879","-0.109131","-0.403564","-0.116638","0.015267","0.007634","0.038168","7.236352","-0.985742","6.110644","-0.13877","0.017944","-0.263184","0.099292","-0.04187","-0.276343"
