"Alphabet","timestamp","user_id","flex_1","flex_2","flex_3","flex_4","flex_5","Qw","Qx","Qy","Qz","GYRx","GYRy","GYRz","ACCx","ACCy","ACCz","ACCx_body","ACCy_body","ACCz_body","ACCx_world","ACCy_world","ACCz_world"
"D","1617445394.712209","7","33","6","52","51","28","0.825989","-0.194275","-0.518738","-0.104614","-0.015267","-0.007634","0","8.460156","-2.021729","3.66543","-0.336157","0.059814","-0.120825","-0.026318","-0.007178","-0.360083"
"D","1617445394.7020838","7","33","5","52","50","31","0.82605","-0.194092","-0.518677","-0.104553","-0.015267","-0.007634","-0.007634","8.443408","-2.033691","3.703711","-0.351709","0.045459","-0.08374","-0.069385","-0.004785","-0.356494"
"D","1617445394.6914687","7","32","4","53","52","31","0.826172","-0.19397","-0.518616","-0.104431","-0.015267","-0.015267","-0.007634","8.417089","-2.043262","3.721655","-0.376831","0.035889","-0.069385","-0.095703","-0.007178","-0.372046"
"D","1617445394.6821034","7","33","5","52","48","33","0.826294","-0.193787","-0.518494","-0.10437","-0.015267","-0.015267","-0.007634","8.38479","-2.058814","3.725244","-0.407935","0.017944","-0.069385","-0.11604","-0.025122","-0.395972"
"D","1617445394.672109","7","33","5","53","52","31","0.826355","-0.193604","-0.518372","-0.104248","-0.015267","-0.007634","-0.007634","8.369238","-2.068384","3.737207","-0.421094","0.007178","-0.059814","-0.133984","-0.029907","-0.401953"
"D","1617445394.6619985","7","32","5","55","51","31","0.826416","-0.193481","-0.518372","-0.104126","-0.015267","-0.007634","-0.007634","8.375219","-2.074365","3.757544","-0.415112","0.001196","-0.040674","-0.14834","-0.027515","-0.387598"
"D","1617445394.6512432","7","33","6","53","54","33","0.826477","-0.193298","-0.518494","-0.103943","-0.015267","0","-0.007634","8.407519","-2.068384","3.776685","-0.385205","0.005981","-0.021533","-0.149536","-0.014355","-0.354102"
"D","1617445394.641332","7","32","7","53","53","32","0.826416","-0.193054","-0.518677","-0.103882","-0.015267","0.007634","0","8.433838","-2.032495","3.787451","-0.360083","0.038281","-0.00957","-0.136377","0.019141","-0.333765"
"D","1617445394.632048","7","31","8","54","52","33","0.826355","-0.192871","-0.51886","-0.10376","-0.015267","0.007634","0","8.441015","-1.976269","3.776685","-0.354102","0.092114","-0.017944","-0.10647","0.0646","-0.343335"
"D","1617445394.6219203","7","32","6","56","53","30","0.826233","-0.192627","-0.519043","-0.103699","-0.015267","0.007634","0","8.441015","-1.91167","3.753955","-0.355298","0.151929","-0.037085","-0.069385","0.111255","-0.364868"
"D","1617445394.611577","7","31","7","54","48","36","0.826172","-0.192505","-0.519287","-0.103638","-0.007634","0.007634","0","8.436231","-1.862622","3.730029","-0.362476","0.198584","-0.057422","-0.038281","0.144751","-0.388794"
"D","1617445394.6013165","7","31","5","53","54","32","0.826111","-0.192505","-0.519409","-0.103577","0","0","0","8.430249","-1.835107","3.686963","-0.369653","0.227295","-0.098096","0.001196","0.153125","-0.417505"
"D","1617445394.591952","7","34","7","53","48","32","0.825989","-0.192566","-0.519531","-0.103638","0.007634","0","0","8.419482","-1.838696","3.648682","-0.381616","0.22251","-0.133984","0.023926","0.132788","-0.440234"
"D","1617445394.5814629","7","32","6","53","52","32","0.825928","-0.192749","-0.519531","-0.103699","0.007634","-0.007634","-0.007634","8.399145","-1.839893","3.615185","-0.401953","0.223706","-0.165088","0.04187","0.119629","-0.471338"
"D","1617445394.5721123","7","31","5","54","51","33","0.825928","-0.192993","-0.51947","-0.10376","0.007634","-0.007634","-0.007634","8.372828","-1.8375","3.585278","-0.428271","0.229687","-0.194995","0.056226","0.111255","-0.507227"
"D","1617445394.562121","7","32","6","54","53","30","0.825928","-0.193237","-0.519348","-0.10376","0.007634","-0.007634","-0.015267","8.357275","-1.826733","3.574512","-0.442627","0.244043","-0.205762","0.0646","0.119629","-0.527563"
"D","1617445394.5521371","7","29","4","54","57","30","0.825989","-0.19342","-0.519226","-0.103638","0","-0.007634","-0.015267","8.353686","-1.819556","3.582886","-0.44502","0.256006","-0.19978","0.062207","0.132788","-0.529956"
"D","1617445394.5420284","7","31","5","52","56","33","0.82605","-0.193604","-0.519104","-0.103516","0","-0.007634","-0.015267","8.35249","-1.830322","3.59126","-0.443823","0.250024","-0.192603","0.055029","0.129199","-0.525171"
"D","1617445394.5320294","7","33","8","53","53","35","0.826111","-0.193787","-0.518982","-0.103394","0","-0.007634","-0.015267","8.35249","-1.865015","3.609204","-0.442627","0.220117","-0.175854","0.029907","0.110059","-0.512012"
"D","1617445394.5219798","7","31","6","53","52","33","0.826111","-0.194031","-0.51886","-0.103271","0","-0.007634","-0.015267","8.345312","-1.920044","3.609204","-0.448608","0.171069","-0.175854","0.00957","0.0646","-0.50603"
"D","1617445394.512028","7","32","7","53","52","31","0.826111","-0.194275","-0.518738","-0.10321","0.007634","-0.007634","-0.015267","8.333349","-1.991821","3.59126","-0.458179","0.104077","-0.193799","-0.003589","-0.002393","-0.507227"
"D","1617445394.5021362","7","29","5","52","56","31","0.826172","-0.194519","-0.518616","-0.103149","0.007634","-0.015267","-0.015267","8.314209","-2.070776","3.55896","-0.476123","0.029907","-0.227295","-0.011963","-0.084937","-0.520386"
"D","1617445394.492117","7","31","3","53","52","29","0.826233","-0.194702","-0.518494","-0.103088","0","-0.007634","-0.007634","8.309423","-2.130591","3.527856","-0.479712","-0.025122","-0.259595","-0.008374","-0.14834","-0.525171"
"D","1617445394.4821646","7","32","5","54","52","32","0.826233","-0.194763","-0.518433","-0.103088","0","-0.007634","-0.007634","8.333349","-2.174854","3.515893","-0.45459","-0.068188","-0.271558","-0.003589","-0.191406","-0.497656"
"D","1617445394.472039","7","34","4","53","52","29","0.826294","-0.194763","-0.518372","-0.103088","0","0","-0.007634","8.368042","-2.19519","3.518286","-0.419897","-0.087329","-0.271558","0.003589","-0.208154","-0.461768"
"D","1617445394.4620802","7","34","6","52","52","33","0.826294","-0.194702","-0.518372","-0.103149","-0.007634","0","0","8.399145","-2.197583","3.524268","-0.388794","-0.092114","-0.265576","0.010767","-0.208154","-0.430664"
"D","1617445394.4522302","7","29","5","53","52","31","0.826294","-0.194519","-0.518433","-0.103271","-0.007634","0","0.007634","8.432642","-2.170068","3.544605","-0.356494","-0.068188","-0.245239","0.016748","-0.177051","-0.399561"
"D","1617445394.4420714","7","32","6","52","48","33","0.826233","-0.194275","-0.518494","-0.103455","-0.007634","0","0.015267","8.456568","-2.121021","3.569726","-0.333765","-0.025122","-0.220117","0.022729","-0.126807","-0.378027"
"D","1617445394.4322171","7","32","4","54","52","32","0.826233","-0.19397","-0.518616","-0.103699","-0.007634","0","0.015267","8.474512","-2.068384","3.592456","-0.318213","0.017944","-0.197388","0.027515","-0.077759","-0.364868"
"D","1617445394.4222114","7","31","7","52","53","31","0.826172","-0.193726","-0.518738","-0.103943","-0.007634","0","0.015267","8.480494","-2.012158","3.594849","-0.313428","0.066992","-0.194995","0.045459","-0.031104","-0.37085"
"D","1617445394.4121864","7","32","6","52","55","31","0.826172","-0.193542","-0.518799","-0.104248","0","-0.007634","0.015267","8.480494","-1.967896","3.59126","-0.31582","0.105273","-0.198584","0.062207","0","-0.381616"
"D","1617445394.4020078","7","31","7","60","51","31","0.826172","-0.19342","-0.518799","-0.104492","-0.007634","-0.007634","0.007634","8.488867","-1.929614","3.585278","-0.307446","0.13877","-0.205762","0.08374","0.027515","-0.384009"
"D","1617445394.3922136","7","29","6","53","54","31","0.826172","-0.193237","-0.518799","-0.104675","-0.007634","-0.007634","0.007634","8.494848","-1.896118","3.590064","-0.301465","0.16748","-0.202173","0.094507","0.056226","-0.384009"
"D","1617445394.3821154","7","31","4","51","52","29","0.826172","-0.193115","-0.518799","-0.104797","-0.007634","-0.007634","0","8.508008","-1.870996","3.598438","-0.289502","0.19021","-0.194995","0.102881","0.080151","-0.374438"
"D","1617445394.3720608","7","32","8","52","48","32","0.826233","-0.192993","-0.518738","-0.104797","-0.015267","-0.007634","0","8.52356","-1.850659","3.611597","-0.272754","0.208154","-0.183032","0.10647","0.101685","-0.358887"
"D","1617445394.3622496","7","32","5","54","52","32","0.826294","-0.192871","-0.518738","-0.104736","-0.015267","-0.007634","0","8.531934","-1.8375","3.628345","-0.26438","0.220117","-0.16748","0.101685","0.119629","-0.34812"
"D","1617445394.3520763","7","33","7","56","51","33","0.826355","-0.192749","-0.518677","-0.104614","-0.015267","-0.007634","-0.007634","8.535522","-1.835107","3.647485","-0.259595","0.22251","-0.150732","0.090918","0.129199","-0.337354"
"D","1617445394.3422296","7","33","4","53","56","31","0.826416","-0.192688","-0.518677","-0.104431","-0.015267","-0.007634","-0.007634","8.529541","-1.857837","3.652271","-0.265576","0.200977","-0.147144","0.077759","0.111255","-0.337354"
"D","1617445394.3322935","7","29","4","54","52","32","0.826477","-0.192749","-0.518616","-0.104248","-0.007634","-0.007634","-0.015267","8.53313","-1.898511","3.646289","-0.260791","0.163892","-0.154321","0.071777","0.07417","-0.327783"
"D","1617445394.322132","7","32","5","52","48","29","0.826538","-0.19281","-0.518555","-0.104004","-0.007634","-0.007634","-0.015267","8.522364","-1.937988","3.648682","-0.270361","0.128003","-0.151929","0.05144","0.043066","-0.327783"
"D","1617445394.3123062","7","33","6","52","53","31","0.826599","-0.192871","-0.518433","-0.10376","-0.007634","-0.007634","-0.022901","8.497241","-1.976269","3.6427","-0.294287","0.093311","-0.159106","0.034692","0.007178","-0.344531"
"D","1617445394.302232","7","33","5","53","54","32","0.826721","-0.192993","-0.518311","-0.103455","-0.007634","-0.007634","-0.022901","8.467334","-2.025317","3.634326","-0.321802","0.050244","-0.169873","0.014355","-0.035889","-0.364868"
"D","1617445394.2923331","7","31","7","53","51","32","0.826782","-0.193115","-0.518188","-0.103088","-0.015267","-0.007634","-0.022901","8.445801","-2.067188","3.617578","-0.340942","0.014355","-0.187817","0.007178","-0.076563","-0.381616"
"D","1617445394.282128","7","33","5","53","49","32","0.826843","-0.193115","-0.518127","-0.102722","-0.015267","0","-0.022901","8.433838","-2.097095","3.613989","-0.351709","-0.00957","-0.192603","-0.001196","-0.100488","-0.387598"
"D","1617445394.2723088","7","32","5","52","54","32","0.826904","-0.193115","-0.518127","-0.102417","-0.015267","0","-0.022901","8.413501","-2.119824","3.606812","-0.37085","-0.029907","-0.19978","-0.010767","-0.123218","-0.403149"
"D","1617445394.2621872","7","33","6","53","54","29","0.826965","-0.192993","-0.518127","-0.102051","-0.022901","0.007634","-0.015267","8.399145","-2.11145","3.594849","-0.384009","-0.019141","-0.212939","-0.002393","-0.119629","-0.42229"
"D","1617445394.252147","7","29","6","54","56","33","0.826965","-0.19281","-0.51825","-0.101746","-0.022901","0.007634","-0.015267","8.381201","-2.07915","3.588867","-0.403149","0.011963","-0.217725","0.003589","-0.093311","-0.447412"
"D","1617445394.2421236","7","32","8","52","50","30","0.826965","-0.192627","-0.518372","-0.10144","-0.022901","0.007634","-0.015267","8.366846","-2.03728","3.586475","-0.417505","0.053833","-0.218921","0.014355","-0.056226","-0.470142"
"D","1617445394.2323604","7","33","6","54","52","31","0.827026","-0.192444","-0.518433","-0.101196","-0.015267","0","-0.007634","8.356079","-1.998999","3.597241","-0.428271","0.092114","-0.208154","0.014355","-0.017944","-0.483301"
"D","1617445394.222211","7","31","6","34","52","32","0.826965","-0.192322","-0.518555","-0.101074","-0.007634","0","-0.007634","8.344116","-1.961914","3.613989","-0.441431","0.128003","-0.19021","0.007178","0.020337","-0.49646"
"D","1617445394.2122324","7","33","4","54","54","33","0.827026","-0.192322","-0.518555","-0.101074","0","-0.007634","0","8.318995","-1.922436","3.628345","-0.466553","0.16748","-0.175854","0","0.062207","-0.521582"
"D","1617445394.202181","7","32","5","51","51","32","0.827026","-0.192261","-0.518494","-0.101196","-0.007634","-0.015267","0","8.295069","-1.876978","3.643897","-0.490479","0.210547","-0.161499","-0.007178","0.10647","-0.546704"
"D","1617445394.1921985","7","32","5","52","52","29","0.827087","-0.1922","-0.518372","-0.101318","-0.007634","-0.015267","0","8.274732","-1.82793","3.666626","-0.509619","0.258398","-0.142358","-0.013159","0.156714","-0.567041"
"D","1617445394.1822655","7","28","3","52","52","31","0.827209","-0.192078","-0.51825","-0.101379","-0.015267","-0.015267","0","8.262769","-1.792041","3.679785","-0.520386","0.291895","-0.132788","-0.014355","0.191406","-0.579004"
"D","1617445394.1723018","7","34","7","52","52","32","0.827271","-0.191956","-0.518127","-0.101379","-0.015267","-0.015267","0","8.284302","-1.7729","3.689355","-0.497656","0.309839","-0.12561","-0.003589","0.211743","-0.559863"
"D","1617445394.1622603","7","31","5","53","51","30","0.827332","-0.191772","-0.518127","-0.101379","-0.015267","-0.015267","0","8.313013","-1.778882","3.68457","-0.468945","0.300269","-0.131592","0.00957","0.200977","-0.534741"
"D","1617445394.1522243","7","34","7","52","53","29","0.827393","-0.191711","-0.518066","-0.101318","-0.007634","-0.007634","0","8.338135","-1.806396","3.659448","-0.443823","0.272754","-0.159106","0.033496","0.165088","-0.516797"
"D","1617445394.142368","7","32","5","53","52","69","0.827454","-0.19165","-0.518005","-0.101257","-0.007634","-0.007634","0","8.366846","-1.850659","3.631934","-0.413916","0.228491","-0.187817","0.053833","0.114844","-0.491675"
"D","1617445394.1323054","7","32","5","54","55","31","0.827515","-0.19165","-0.517944","-0.101318","-0.007634","-0.007634","0","8.405127","-1.890137","3.629541","-0.375635","0.189014","-0.192603","0.059814","0.077759","-0.451001"
"D","1617445394.1222005","7","33","5","53","55","34","0.827515","-0.19165","-0.517883","-0.101379","-0.007634","-0.007634","0","8.438623","-1.92124","3.625952","-0.340942","0.15791","-0.196191","0.066992","0.049048","-0.415112"
"D","1617445394.1124048","7","29","7","57","55","30","0.827576","-0.191589","-0.517822","-0.101379","-0.007634","-0.007634","0","8.454175","-1.922436","3.628345","-0.325391","0.155518","-0.196191","0.072974","0.047852","-0.400757"
"D","1617445394.1022506","7","34","7","53","52","35","0.827637","-0.191528","-0.517761","-0.101379","-0.007634","-0.007634","0","8.454175","-1.915259","3.625952","-0.324194","0.162695","-0.19978","0.078955","0.052637","-0.401953"
"D","1617445394.0921285","7","32","6","53","52","31","0.827698","-0.191467","-0.5177","-0.101379","-0.007634","-0.007634","0","8.457764","-1.924829","3.606812","-0.320605","0.151929","-0.221313","0.094507","0.033496","-0.405542"
"D","1617445394.0824149","7","32","4","50","52","32","0.827759","-0.191406","-0.517639","-0.101318","-0.007634","0","-0.007634","8.473315","-1.958325","3.598438","-0.303857","0.118433","-0.230884","0.096899","0","-0.386401"
"D","1617445394.0724974","7","35","5","54","54","32","0.827759","-0.191406","-0.517578","-0.101196","-0.007634","0","-0.007634","8.49126","-2.006177","3.606812","-0.284717","0.071777","-0.223706","0.082544","-0.037085","-0.356494"
"D","1617445394.062262","7","31","4","54","54","33","0.82782","-0.191467","-0.517578","-0.101074","-0.007634","0","-0.007634","8.50083","-2.058814","3.629541","-0.275146","0.021533","-0.200977","0.049048","-0.072974","-0.328979"
"D","1617445394.0523794","7","31","3","51","52","31","0.82782","-0.191467","-0.517517","-0.100952","-0.007634","-0.007634","-0.015267","8.498438","-2.106665","3.652271","-0.276343","-0.023926","-0.179443","0.014355","-0.105273","-0.312231"
"D","1617445394.0421925","7","29","5","50","54","30","0.827942","-0.191528","-0.517456","-0.100769","-0.007634","-0.007634","-0.015267","8.490064","-2.146142","3.667822","-0.284717","-0.059814","-0.165088","-0.013159","-0.131592","-0.30625"
"D","1617445394.0322642","7","31","7","54","53","31","0.828003","-0.191467","-0.517334","-0.100586","-0.015267","-0.007634","-0.015267","8.469727","-2.159302","3.685767","-0.302661","-0.071777","-0.149536","-0.038281","-0.137573","-0.313428"
"D","1617445394.022919","7","32","5","53","52","32","0.828064","-0.191406","-0.517273","-0.100403","-0.015267","-0.007634","-0.015267","8.445801","-2.146142","3.695337","-0.325391","-0.057422","-0.141162","-0.049048","-0.120825","-0.333765"
"D","1617445394.0122886","7","33","4","54","54","33","0.828186","-0.191284","-0.517212","-0.100281","-0.015267","-0.007634","-0.015267","8.424268","-2.116235","3.683374","-0.346924","-0.027515","-0.156714","-0.035889","-0.101685","-0.364868"
"D","1617445394.0022376","7","35","5","54","54","31","0.828247","-0.191162","-0.517151","-0.100159","-0.015267","0","-0.007634","8.424268","-2.085132","3.690552","-0.345728","0.002393","-0.150732","-0.028711","-0.071777","-0.368457"
"D","1617445393.992279","7","34","7","56","55","33","0.828247","-0.19104","-0.517212","-0.100098","-0.007634","0","-0.007634","8.438623","-2.049243","3.706104","-0.331372","0.037085","-0.135181","-0.022729","-0.033496","-0.356494"
"D","1617445393.9823017","7","33","1","52","54","85","0.828247","-0.190979","-0.517273","-0.100037","0","0","-0.007634","8.439819","-2.014551","3.710889","-0.331372","0.070581","-0.129199","-0.015552","0","-0.361279"
"D","1617445393.9721525","7","32","7","52","52","28","0.828247","-0.190979","-0.517273","-0.100037","0","-0.007634","-0.007634","8.409912","-1.991821","3.706104","-0.361279","0.093311","-0.133984","-0.016748","0.016748","-0.394775"
"D","1617445393.9624405","7","33","5","56","51","30","0.828247","-0.19104","-0.517212","-0.100037","0","-0.007634","-0.007634","8.38479","-1.967896","3.695337","-0.385205","0.118433","-0.145947","-0.008374","0.033496","-0.427075"
"D","1617445393.9524035","7","31","6","54","52","29","0.828247","-0.191101","-0.517151","-0.100037","0","-0.007634","-0.007634","8.368042","-1.939185","3.703711","-0.400757","0.14834","-0.137573","-0.010767","0.063403","-0.443823"
"D","1617445393.9422202","7","31","4","50","51","34","0.828308","-0.191162","-0.51709","-0.100037","-0.007634","-0.015267","-0.007634","8.338135","-1.897314","3.704907","-0.430664","0.191406","-0.137573","-0.00957","0.101685","-0.479712"
"D","1617445393.9322884","7","31","8","53","50","29","0.828369","-0.191223","-0.516907","-0.099915","0","-0.015267","-0.015267","8.298657","-1.866211","3.691748","-0.467749","0.226099","-0.153125","0","0.12561","-0.526367"
"D","1617445393.9222207","7","32","6","53","48","33","0.828491","-0.191345","-0.516785","-0.099854","0","-0.015267","-0.015267","8.25918","-1.863818","3.661841","-0.50603","0.230884","-0.185425","0.00957","0.114844","-0.574219"
"D","1617445393.9124217","7","33","5","52","52","33","0.828552","-0.191528","-0.516541","-0.099792","0.007634","-0.015267","-0.015267","8.232862","-1.886548","3.641504","-0.529956","0.212939","-0.209351","0.010767","0.087329","-0.601733"
"D","1617445393.9023085","7","33","5","53","51","32","0.828613","-0.191772","-0.516357","-0.099731","0.007634","-0.007634","-0.007634","8.22688","-1.922436","3.628345","-0.533545","0.181836","-0.223706","0.00957","0.052637","-0.60293"
"D","1617445393.8923929","7","31","5","53","56","32","0.828674","-0.192017","-0.516235","-0.099792","0.007634","-0.015267","-0.007634","8.228076","-1.955933","3.624756","-0.531152","0.151929","-0.228491","0.003589","0.023926","-0.596948"
"D","1617445393.883254","7","29","5","54","54","31","0.828674","-0.192261","-0.516113","-0.099854","0.007634","-0.015267","-0.007634","8.21731","-1.977466","3.621167","-0.540723","0.133984","-0.233276","-0.002393","0.004785","-0.60293"
"D","1617445393.872905","7","31","4","54","52","31","0.828735","-0.192444","-0.51593","-0.099854","0","-0.015267","-0.007634","8.205347","-1.991821","3.617578","-0.551489","0.123218","-0.238062","-0.007178","-0.005981","-0.6125"
"D","1617445393.8631167","7","31","6","52","51","32","0.828857","-0.192566","-0.515747","-0.099915","0","-0.015267","-0.007634","8.201757","-2.004981","3.613989","-0.553882","0.112451","-0.245239","-0.005981","-0.019141","-0.614893"
"D","1617445393.853089","7","31","6","54","52","29","0.828918","-0.192627","-0.515564","-0.099976","0.007634","-0.015267","0","8.206543","-2.022925","3.613989","-0.546704","0.095703","-0.248828","-0.007178","-0.035889","-0.606519"
"D","1617445393.8429472","7","34","3","52","53","32","0.828979","-0.192749","-0.515381","-0.100159","0.007634","-0.015267","0","8.214917","-2.040869","3.60083","-0.537134","0.078955","-0.26438","0.002393","-0.057422","-0.600537"
"D","1617445393.832438","7","27","7","52","48","30","0.829041","-0.192871","-0.515198","-0.100403","0.015267","-0.015267","0.007634","8.224487","-2.071973","3.587671","-0.526367","0.047852","-0.279932","0.008374","-0.092114","-0.58977"
"D","1617445393.8230853","7","29","4","52","52","28","0.829102","-0.192932","-0.515015","-0.100769","0.015267","-0.015267","0.007634","8.249609","-2.092309","3.579297","-0.500049","0.025122","-0.291895","0.021533","-0.11604","-0.567041"
"D","1617445393.8131003","7","29","4","51","52","33","0.829102","-0.192993","-0.514893","-0.101196","0.007634","-0.015267","0.015267","8.285498","-2.093506","3.602026","-0.46416","0.020337","-0.271558","0.019141","-0.110059","-0.525171"
"D","1617445393.802966","7","32","4","52","52","31","0.829102","-0.192932","-0.514771","-0.101562","0.007634","-0.007634","0.015267","8.315405","-2.071973","3.637915","-0.433057","0.038281","-0.238062","0.013159","-0.078955","-0.488086"
"D","1617445393.7923083","7","29","7","50","48","28","0.829102","-0.19281","-0.514771","-0.101929","0","-0.007634","0.015267","8.338135","-2.03728","3.670215","-0.411523","0.066992","-0.206958","0.007178","-0.038281","-0.462964"
"D","1617445393.7828977","7","28","7","53","56","33","0.829102","-0.192688","-0.514771","-0.102295","0","-0.007634","0.015267","8.356079","-2.004981","3.704907","-0.394775","0.093311","-0.173462","-0.001196","0","-0.440234"
"D","1617445393.7730758","7","33","5","53","52","31","0.829102","-0.192505","-0.514832","-0.1026","0","0","0.015267","8.378809","-1.984644","3.714478","-0.374438","0.107666","-0.163892","0.004785","0.016748","-0.42229"
"D","1617445393.762936","7","31","5","46","53","31","0.829041","-0.192383","-0.514893","-0.102905","0","0","0.015267","8.396753","-1.959522","3.721655","-0.35769","0.128003","-0.156714","0.013159","0.038281","-0.407935"
"D","1617445393.753078","7","29","5","52","53","32","0.828918","-0.192322","-0.515015","-0.10321","0","0","0.015267","8.414698","-1.940381","3.700122","-0.340942","0.142358","-0.175854","0.04187","0.044263","-0.404346"
"D","1617445393.7429163","7","31","7","56","50","29","0.828857","-0.1922","-0.515137","-0.103516","0","0","0.015267","8.435034","-1.923633","3.68457","-0.322998","0.153125","-0.19021","0.065796","0.049048","-0.395972"
"D","1617445393.733082","7","29","4","52","57","26","0.828735","-0.192139","-0.51532","-0.103699","-0.007634","0.007634","0.007634","8.454175","-1.905689","3.663037","-0.30625","0.16748","-0.208154","0.093311","0.053833","-0.391187"
"D","1617445393.723091","7","31","5","53","52","35","0.828613","-0.192017","-0.515442","-0.103821","-0.007634","0.007634","0.007634","8.473315","-1.893726","3.641504","-0.288306","0.175854","-0.227295","0.120825","0.053833","-0.384009"
"D","1617445393.7130692","7","31","7","54","54","37","0.828491","-0.191956","-0.515686","-0.103882","-0.007634","0.015267","0.007634","8.509204","-1.891333","3.641504","-0.25481","0.174658","-0.223706","0.132788","0.056226","-0.352905"
"D","1617445393.7032216","7","33","7","51","50","33","0.828369","-0.191895","-0.51593","-0.103882","-0.007634","0.015267","0","8.535522","-1.906885","3.653467","-0.230884","0.15791","-0.206958","0.123218","0.047852","-0.320605"
"D","1617445393.693085","7","31","5","49","50","31","0.828308","-0.191833","-0.516113","-0.103821","-0.007634","0.015267","0","8.548681","-1.927222","3.671411","-0.220117","0.136377","-0.186621","0.104077","0.038281","-0.299072"
"D","1617445393.6829886","7","33","5","54","50","30","0.828247","-0.191772","-0.516235","-0.10376","-0.015267","0.007634","0","8.553467","-1.939185","3.715674","-0.216528","0.123218","-0.139966","0.062207","0.045459","-0.27395"
"D","1617445393.6731608","7","33","4","55","51","35","0.828247","-0.19165","-0.516296","-0.103638","-0.015267","0","-0.007634","8.535522","-1.939185","3.761133","-0.234473","0.123218","-0.094507","0.017944","0.0646","-0.272754"
"D","1617445393.6630745","7","33","5","52","54","27","0.828308","-0.191467","-0.516296","-0.103455","-0.022901","-0.007634","-0.007634","8.509204","-1.924829","3.803003","-0.260791","0.136377","-0.053833","-0.021533","0.093311","-0.282324"
"D","1617445393.6530988","7","29","7","53","27","28","0.82843","-0.191345","-0.516174","-0.103271","-0.015267","-0.015267","-0.007634","8.484082","-1.918848","3.843677","-0.283521","0.142358","-0.015552","-0.061011","0.113647","-0.289502"
"D","1617445393.643009","7","32","8","52","52","29","0.828552","-0.191284","-0.516052","-0.103149","-0.007634","-0.015267","-0.007634","8.461352","-1.937988","3.877173","-0.305054","0.124414","0.013159","-0.100488","0.110059","-0.293091"
"D","1617445393.6330247","7","33","5","53","51","31","0.828613","-0.191406","-0.515869","-0.103149","0.007634","-0.015267","-0.007634","8.427856","-1.977466","3.883154","-0.336157","0.087329","0.016748","-0.130396","0.076563","-0.312231"
"D","1617445393.6230185","7","29","5","53","56","39","0.828613","-0.191589","-0.515747","-0.10321","0.015267","-0.015267","-0.007634","8.418286","-2.025317","3.87478","-0.344531","0.04187","0.007178","-0.143555","0.031104","-0.313428"
"D","1617445393.613198","7","31","8","54","54","30","0.828613","-0.191772","-0.515625","-0.103394","0.015267","-0.015267","-0.007634","8.417089","-2.039673","3.872388","-0.344531","0.029907","0.004785","-0.145947","0.019141","-0.312231"
"D","1617445393.6032343","7","32","5","54","53","31","0.828674","-0.191956","-0.515503","-0.103516","0.007634","-0.015267","-0.007634","8.400342","-2.028906","3.872388","-0.361279","0.04187","0.002393","-0.147144","0.028711","-0.330176"
"D","1617445393.5930784","7","33","3","52","51","33","0.828674","-0.192078","-0.515442","-0.103638","0","-0.015267","-0.007634","8.393164","-2.001392","3.872388","-0.368457","0.070581","0.002393","-0.139966","0.055029","-0.343335"
"D","1617445393.5831614","7","31","8","56","53","32","0.828735","-0.192139","-0.51532","-0.103699","0","-0.015267","-0.007634","8.38479","-1.964307","3.858032","-0.375635","0.108862","-0.013159","-0.11604","0.082544","-0.363672"
"D","1617445393.5730524","7","29","5","50","52","31","0.828796","-0.1922","-0.515198","-0.103821","0","-0.022901","0","8.369238","-1.930811","3.822144","-0.38999","0.142358","-0.05144","-0.078955","0.095703","-0.398364"
"D","1617445393.563104","7","31","6","51","52","30","0.828857","-0.192261","-0.515015","-0.103943","0.007634","-0.022901","0","8.347705","-1.904492","3.788647","-0.410327","0.168677","-0.087329","-0.050244","0.104077","-0.436646"
"D","1617445393.553058","7","31","5","51","52","30","0.828918","-0.192383","-0.514771","-0.104126","0.015267","-0.015267","0","8.333349","-1.884155","3.768311","-0.42229","0.19021","-0.111255","-0.027515","0.113647","-0.460571"
"D","1617445393.543085","7","32","5","61","53","32","0.828979","-0.192566","-0.514587","-0.10437","0.015267","-0.015267","0","8.323779","-1.878174","3.762329","-0.430664","0.197388","-0.119629","-0.021533","0.11604","-0.47373"
"D","1617445393.5331707","7","30","4","52","53","31","0.829041","-0.19281","-0.514404","-0.104553","0.015267","-0.015267","0","8.302246","-1.8698","3.761133","-0.451001","0.208154","-0.123218","-0.023926","0.123218","-0.495264"
"D","1617445393.5231006","7","31","4","50","52","31","0.829041","-0.192993","-0.514282","-0.104675","0.007634","-0.007634","-0.007634","8.285498","-1.865015","3.759937","-0.466553","0.215332","-0.12561","-0.026318","0.129199","-0.512012"
"D","1617445393.513272","7","31","5","53","71","35","0.829041","-0.193237","-0.51416","-0.104675","0.007634","-0.007634","-0.007634","8.293872","-1.875781","3.761133","-0.456982","0.208154","-0.124414","-0.026318","0.123218","-0.501245"
"D","1617445393.5032525","7","31","1","50","52","32","0.828979","-0.193481","-0.51416","-0.104614","0","0","-0.015267","8.309423","-1.905689","3.744385","-0.440234","0.183032","-0.13877","-0.016748","0.094507","-0.48689"
"D","1617445393.49311","7","31","5","53","52","30","0.828918","-0.193665","-0.514282","-0.104431","-0.007634","0.007634","-0.015267","8.328565","-1.935596","3.714478","-0.42229","0.15791","-0.166284","0.003589","0.059814","-0.476123"
"D","1617445393.483377","7","29","5","51","54","33","0.828796","-0.193726","-0.514465","-0.104248","-0.015267","0.015267","-0.015267","8.360865","-1.958325","3.670215","-0.391187","0.136377","-0.205762","0.04187","0.023926","-0.459375"
"D","1617445393.4731972","7","32","4","54","51","32","0.828735","-0.193726","-0.514709","-0.103943","-0.015267","0.022901","-0.015267","8.394361","-1.973877","3.629541","-0.360083","0.123218","-0.242847","0.081348","-0.002393","-0.443823"
"D","1617445393.4632783","7","31","3","54","54","33","0.828552","-0.193665","-0.515015","-0.103577","-0.022901","0.022901","-0.015267","8.419482","-1.989429","3.602026","-0.336157","0.110059","-0.263184","0.104077","-0.021533","-0.427075"
"D","1617445393.4531238","7","31","5","53","53","39","0.828369","-0.193604","-0.515381","-0.10321","-0.022901","0.030534","-0.015267","8.449389","-2.007373","3.580493","-0.309839","0.093311","-0.277539","0.120825","-0.043066","-0.405542"
"D","1617445393.4431498","7","31","4","49","54","33","0.828186","-0.193604","-0.515808","-0.102783","-0.015267","0.038168","-0.015267","8.484082","-2.031299","3.573315","-0.278735","0.071777","-0.276343","0.126807","-0.061011","-0.372046"
"D","1617445393.4331295","7","32","6","54","51","31","0.827942","-0.193604","-0.516235","-0.102417","-0.015267","0.030534","-0.015267","8.486475","-2.054028","3.579297","-0.278735","0.050244","-0.261987","0.107666","-0.07417","-0.362476"
"D","1617445393.4233778","7","20","6","53","55","33","0.827759","-0.193665","-0.516663","-0.102051","-0.007634","0.022901","-0.015267","8.472119","-2.076758","3.590064","-0.29668","0.031104","-0.242847","0.076563","-0.08374","-0.366064"
"D","1617445393.4131887","7","29","5","56","56","35","0.827576","-0.193726","-0.516968","-0.101746","-0.007634","0.022901","-0.015267","8.441015","-2.093506","3.593652","-0.330176","0.016748","-0.23208","0.047852","-0.093311","-0.388794"
"D","1617445393.4030497","7","33","4","53","54","31","0.827393","-0.193848","-0.517212","-0.101562","0","0.022901","-0.015267","8.413501","-2.093506","3.587671","-0.358887","0.020337","-0.23208","0.037085","-0.090918","-0.415112"
"D","1617445393.3931582","7","32","3","53","54","30","0.827209","-0.193909","-0.517517","-0.101379","-0.007634","0.022901","-0.015267","8.401538","-2.077954","3.596045","-0.373242","0.037085","-0.216528","0.023926","-0.070581","-0.425879"
"D","1617445393.3830712","7","29","5","52","46","29","0.827026","-0.194031","-0.517761","-0.101196","0","0.022901","-0.015267","8.401538","-2.06001","3.606812","-0.375635","0.057422","-0.19978","0.016748","-0.045459","-0.425879"
"D","1617445393.37314","7","31","-9","50","52","31","0.826843","-0.194153","-0.518066","-0.101013","0","0.022901","-0.015267","8.399145","-2.052832","3.621167","-0.38042","0.066992","-0.178247","0.001196","-0.027515","-0.423486"
"D","1617445393.363249","7","29","4","54","51","29","0.82666","-0.194275","-0.518372","-0.10083","0","0.022901","-0.007634","8.388379","-2.050439","3.631934","-0.393579","0.071777","-0.160303","-0.015552","-0.016748","-0.429468"
"D","1617445393.3532658","7","32","5","52","52","29","0.826477","-0.194458","-0.518616","-0.100769","0.007634","0.015267","-0.007634","8.363256","-2.044458","3.635522","-0.421094","0.080151","-0.150732","-0.0323","-0.005981","-0.452197"
"D","1617445393.3431425","7","29","3","50","51","33","0.826294","-0.194641","-0.51886","-0.100647","0.007634","0.015267","-0.007634","8.333349","-2.039673","3.641504","-0.453394","0.088525","-0.13877","-0.053833","0.003589","-0.478516"
"D","1617445393.3334","7","33","4","53","50","32","0.826111","-0.194824","-0.519043","-0.100647","0.007634","0.007634","-0.007634","8.298657","-2.020532","3.640308","-0.489282","0.110059","-0.133984","-0.0646","0.023926","-0.513208"
"D","1617445393.3233006","7","15","8","54","52","31","0.825989","-0.195068","-0.519165","-0.100586","0.007634","0","-0.007634","8.260376","-2.003784","3.627148","-0.52876","0.130396","-0.143555","-0.066992","0.037085","-0.557471"
"D","1617445393.313186","7","32","4","56","53","31","0.825928","-0.195251","-0.519287","-0.100586","0.007634","0","-0.007634","8.242432","-2.000195","3.599634","-0.5479","0.136377","-0.16748","-0.053833","0.031104","-0.584985"
"D","1617445393.3033087","7","28","4","52","51","29","0.825806","-0.195496","-0.519287","-0.100647","0.015267","0","-0.007634","8.248413","-2.009766","3.575708","-0.541919","0.129199","-0.189014","-0.035889","0.015552","-0.586182"
"D","1617445393.293089","7","32","7","54","56","31","0.825684","-0.195801","-0.519348","-0.10083","0.015267","0","0","8.263965","-2.020532","3.541016","-0.527563","0.120825","-0.220117","-0.007178","-0.003589","-0.583789"
"D","1617445393.283305","7","25","5","51","50","32","0.825562","-0.196045","-0.519409","-0.101074","0.015267","0","0.007634","8.28789","-2.024121","3.513501","-0.504834","0.118433","-0.245239","0.021533","-0.016748","-0.571826"
"D","1617445393.2733102","7","32","7","56","54","31","0.8255","-0.196167","-0.51947","-0.101318","0.007634","0","0.007634","8.328565","-2.003784","3.508716","-0.465356","0.137573","-0.247632","0.047852","0","-0.541919"
"D","1617445393.2631152","7","32","5","53","53","30","0.825439","-0.196167","-0.51947","-0.101624","0.007634","0","0.007634","8.364453","-1.972681","3.520679","-0.429468","0.166284","-0.235669","0.0646","0.0323","-0.512012"
"D","1617445393.2531796","7","33","5","52","52","31","0.825378","-0.196167","-0.519531","-0.101868","0","-0.007634","0.007634","8.394361","-1.936792","3.533838","-0.401953","0.198584","-0.221313","0.077759","0.069385","-0.488086"
"D","1617445393.2430987","7","33","5","52","54","36","0.825378","-0.196167","-0.519531","-0.102112","0.007634","-0.007634","0.015267","8.427856","-1.915259","3.560156","-0.368457","0.217725","-0.194995","0.077759","0.099292","-0.452197"
"D","1617445393.23322","7","31","7","52","52","31","0.825317","-0.196228","-0.51947","-0.102356","0.007634","-0.015267","0.007634","8.452978","-1.915259","3.582886","-0.343335","0.216528","-0.172266","0.070581","0.108862","-0.421094"
"D","1617445393.2233143","7","33","6","54","52","33","0.825378","-0.196289","-0.519348","-0.102661","0.007634","-0.015267","0.007634","8.472119","-1.934399","3.602026","-0.324194","0.194995","-0.155518","0.056226","0.096899","-0.392383"
"D","1617445390.6963875","7","29","4","53","52","29","0.827454","-0.18811","-0.521973","-0.086792","0","-0.007634","0","8.405127","-2.044458","3.652271","-0.379224","0.117236","-0.113647","-0.0323","0.040674","-0.409131"
"D","1617445390.686236","7","29","5","52","55","32","0.827454","-0.18811","-0.521912","-0.086792","0","-0.007634","0","8.407519","-2.051636","3.647485","-0.376831","0.111255","-0.119629","-0.027515","0.033496","-0.407935"
"D","1617445390.676234","7","28","5","52","54","30","0.827454","-0.18811","-0.521851","-0.086853","-0.007634","-0.007634","0","8.414698","-2.057617","3.640308","-0.368457","0.104077","-0.126807","-0.020337","0.023926","-0.401953"
"D","1617445390.6661203","7","32","7","53","54","33","0.827454","-0.18811","-0.521851","-0.086853","-0.007634","-0.007634","0","8.419482","-2.054028","3.621167","-0.363672","0.107666","-0.145947","-0.001196","0.020337","-0.405542"
"D","1617445390.6568463","7","31","5","53","52","35","0.827515","-0.18811","-0.521851","-0.086853","-0.007634","0","-0.007634","8.425464","-2.049243","3.598438","-0.35769","0.112451","-0.169873","0.021533","0.015552","-0.410327"
"D","1617445390.6469662","7","33","3","54","51","31","0.827454","-0.188049","-0.521912","-0.086792","-0.007634","0.007634","-0.007634","8.439819","-2.034888","3.596045","-0.343335","0.126807","-0.171069","0.033496","0.028711","-0.400757"
"D","1617445390.636356","7","31","5","54","54","32","0.827393","-0.188049","-0.522034","-0.086731","-0.007634","0.007634","0","8.450586","-2.022925","3.599634","-0.333765","0.13877","-0.165088","0.037085","0.04187","-0.392383"
"D","1617445390.62684","7","30","4","52","53","31","0.827271","-0.18811","-0.522217","-0.086731","0","0.007634","0","8.445801","-2.01814","3.59126","-0.340942","0.143555","-0.169873","0.039478","0.044263","-0.401953"
"D","1617445390.616273","7","33","8","53","16","34","0.827209","-0.18811","-0.522339","-0.08667","0","0.007634","0","8.443408","-2.008569","3.59126","-0.344531","0.153125","-0.16748","0.039478","0.053833","-0.406738"
"D","1617445390.606914","7","31","5","53","49","27","0.827087","-0.188171","-0.522461","-0.08667","0","0","-0.007634","8.420679","-2.002588","3.580493","-0.368457","0.160303","-0.174658","0.037085","0.056226","-0.43186"
"D","1617445390.5968702","7","32","4","52","52","33","0.827087","-0.188232","-0.522522","-0.086609","-0.007634","0","-0.007634","8.396753","-1.997803","3.569726","-0.392383","0.166284","-0.184229","0.037085","0.056226","-0.458179"
"D","1617445390.586902","7","29","6","53","53","33","0.827026","-0.188232","-0.522583","-0.086609","-0.007634","0","-0.007634","8.383594","-1.984644","3.555371","-0.406738","0.179443","-0.197388","0.046655","0.062207","-0.479712"
"D","1617445390.5768943","7","31","4","50","48","32","0.827026","-0.188293","-0.522583","-0.086487","-0.007634","0","-0.007634","8.375219","-1.979858","3.544605","-0.413916","0.185425","-0.206958","0.052637","0.063403","-0.490479"
"D","1617445390.5661583","7","31","7","52","54","33","0.826965","-0.188354","-0.522644","-0.086426","0","0.007634","-0.007634","8.391968","-1.991821","3.535034","-0.398364","0.174658","-0.215332","0.063403","0.05144","-0.477319"
"D","1617445390.556941","7","32","5","53","49","34","0.826904","-0.188416","-0.522766","-0.086365","0","0.007634","-0.007634","8.411108","-2.015747","3.52666","-0.38042","0.151929","-0.220117","0.066992","0.028711","-0.458179"
"D","1617445390.5468242","7","32","7","54","54","29","0.826843","-0.188538","-0.522888","-0.086304","0","0.007634","-0.007634","8.427856","-2.040869","3.524268","-0.364868","0.129199","-0.220117","0.066992","0.00957","-0.439038"
"D","1617445390.5369256","7","33","7","52","54","33","0.826721","-0.18866","-0.52301","-0.086243","0","0.007634","-0.007634","8.431445","-2.06001","3.532642","-0.361279","0.112451","-0.208154","0.052637","0","-0.428271"
"D","1617445390.5268831","7","32","3","53","52","32","0.82666","-0.188721","-0.523071","-0.086182","0","0","-0.007634","8.418286","-2.061206","3.531445","-0.374438","0.112451","-0.206958","0.045459","0","-0.439038"
"D","1617445390.516951","7","32","5","54","53","27","0.826599","-0.188782","-0.523071","-0.086182","-0.007634","0","-0.007634","8.402735","-2.055225","3.525464","-0.38999","0.119629","-0.211743","0.045459","0.002393","-0.456982"
"D","1617445390.5070229","7","35","7","52","53","31","0.82666","-0.188782","-0.523071","-0.086182","-0.007634","-0.007634","-0.007634","8.394361","-2.043262","3.524268","-0.399561","0.131592","-0.214136","0.047852","0.011963","-0.468945"
"D","1617445390.4970424","7","33","6","52","55","31","0.82666","-0.188782","-0.52301","-0.086121","-0.007634","-0.007634","-0.007634","8.370435","-2.033691","3.527856","-0.42229","0.141162","-0.211743","0.038281","0.020337","-0.490479"
"D","1617445390.486879","7","33","5","52","54","33","0.826721","-0.188843","-0.522949","-0.08606","-0.007634","-0.007634","-0.007634","8.359668","-2.036084","3.535034","-0.43186","0.141162","-0.205762","0.029907","0.021533","-0.49646"
"D","1617445390.4769835","7","32","3","54","50","31","0.826782","-0.188904","-0.522827","-0.085999","0","-0.007634","-0.007634","8.365649","-2.058814","3.536231","-0.424683","0.120825","-0.205762","0.025122","0.003589","-0.485693"
"D","1617445390.467037","7","32","4","53","52","30","0.826782","-0.188965","-0.522827","-0.085938","0","0","-0.007634","8.389575","-2.087524","3.546997","-0.400757","0.093311","-0.194995","0.017944","-0.014355","-0.45459"
"D","1617445390.456858","7","33","5","54","54","37","0.826782","-0.189087","-0.522827","-0.085876","0","-0.007634","-0.007634","8.406323","-2.127002","3.548193","-0.384009","0.056226","-0.193799","0.010767","-0.047852","-0.430664"
"D","1617445390.4470313","7","35","6","52","51","34","0.826782","-0.189209","-0.522705","-0.085876","0","-0.007634","-0.007634","8.412305","-2.154517","3.544605","-0.375635","0.031104","-0.197388","0.00957","-0.071777","-0.418701"
"D","1617445390.4370155","7","31","7","53","54","32","0.826843","-0.189209","-0.522644","-0.085876","0","-0.007634","-0.007634","8.402735","-2.15332","3.544605","-0.385205","0.0323","-0.19978","0.007178","-0.071777","-0.428271"
"D","1617445390.4268758","7","31","8","52","48","28","0.826904","-0.189209","-0.522583","-0.085938","-0.007634","-0.007634","-0.007634","8.387182","-2.130591","3.541016","-0.400757","0.055029","-0.204565","0.011963","-0.053833","-0.449805"
"D","1617445390.4168465","7","31","5","52","47","32","0.826904","-0.189087","-0.522583","-0.085938","-0.007634","0","-0.007634","8.395556","-2.095898","3.554175","-0.392383","0.087329","-0.191406","0.015552","-0.017944","-0.443823"
"D","1617445390.4068716","7","31","5","52","52","31","0.826904","-0.189026","-0.522583","-0.085876","-0.007634","0","0","8.401538","-2.068384","3.574512","-0.385205","0.114844","-0.171069","0.011963","0.014355","-0.435449"
"D","1617445390.39693","7","29","4","52","54","29","0.826843","-0.189026","-0.522705","-0.085876","0","0.007634","0","8.420679","-2.067188","3.592456","-0.368457","0.11604","-0.151929","0.003589","0.023926","-0.413916"
"D","1617445390.3869784","7","29","4","53","51","32","0.826721","-0.189087","-0.522888","-0.085876","0.007634","0","0","8.433838","-2.080347","3.587671","-0.356494","0.102881","-0.151929","0.004785","0.011963","-0.399561"
"D","1617445390.3770049","7","33","3","52","54","28","0.82666","-0.189209","-0.522949","-0.085938","0.007634","0","0","8.437427","-2.109058","3.557764","-0.354102","0.075366","-0.18064","0.020337","-0.022729","-0.403149"
"D","1617445390.3670387","7","32","6","53","52","31","0.826599","-0.189331","-0.52301","-0.08606","0","0","0","8.451782","-2.115039","3.535034","-0.340942","0.069385","-0.200977","0.040674","-0.035889","-0.397168"
"D","1617445390.357001","7","29","7","53","53","30","0.826538","-0.18927","-0.523071","-0.086121","-0.007634","0","0","8.463745","-2.094702","3.512305","-0.328979","0.088525","-0.22251","0.070581","-0.026318","-0.399561"
"D","1617445390.3468962","7","33","1","52","52","31","0.826477","-0.189148","-0.523193","-0.08606","-0.015267","0","0","8.468531","-2.061206","3.483594","-0.325391","0.119629","-0.248828","0.105273","-0.008374","-0.41272"
"D","1617445390.336859","7","32","4","54","53","31","0.826477","-0.189026","-0.523254","-0.085938","-0.015267","0.007634","-0.007634","8.474512","-2.034888","3.466846","-0.319409","0.144751","-0.265576","0.130396","0.007178","-0.419897"
"D","1617445390.32695","7","29","7","54","57","32","0.826416","-0.188904","-0.523376","-0.085754","-0.015267","0.015267","-0.007634","8.490064","-2.040869","3.464453","-0.303857","0.13877","-0.265576","0.135181","0.002393","-0.404346"
"D","1617445390.3170173","7","32","6","54","51","31","0.826355","-0.188904","-0.52356","-0.085571","0","0.015267","-0.007634","8.515185","-2.080347","3.477612","-0.281128","0.100488","-0.250024","0.118433","-0.023926","-0.369653"
"D","1617445390.3069706","7","32","4","58","16","33","0.826294","-0.189026","-0.523682","-0.085449","0.007634","0","-0.007634","8.53313","-2.113843","3.500342","-0.26438","0.069385","-0.223706","0.093311","-0.040674","-0.337354"
"D","1617445390.2971375","7","29","4","52","54","33","0.826233","-0.189148","-0.523621","-0.085449","0.007634","-0.007634","-0.007634","8.497241","-2.131787","3.51709","-0.299072","0.053833","-0.206958","0.059814","-0.050244","-0.358887"
"D","1617445390.2869782","7","33","7","51","51","29","0.826355","-0.189331","-0.523499","-0.08551","0.007634","-0.015267","-0.007634","8.460156","-2.125806","3.523071","-0.334961","0.062207","-0.203369","0.043066","-0.043066","-0.391187"
"D","1617445390.2770636","7","29","3","50","54","32","0.826477","-0.189453","-0.523254","-0.085571","0","-0.022901","-0.007634","8.423071","-2.105469","3.519482","-0.37085","0.084937","-0.210547","0.040674","-0.027515","-0.43186"
"D","1617445390.2669003","7","34","8","54","52","32","0.826599","-0.189453","-0.52301","-0.085632","0","-0.015267","-0.007634","8.385986","-2.071973","3.507519","-0.404346","0.118433","-0.227295","0.05144","-0.005981","-0.474927"
"D","1617445390.2572412","7","33","4","52","52","32","0.826721","-0.189453","-0.522766","-0.085693","-0.007634","-0.015267","-0.007634","8.372828","-2.026514","3.515893","-0.415112","0.165088","-0.223706","0.059814","0.037085","-0.494067"
"D","1617445390.2468405","7","32","7","52","50","35","0.826782","-0.189331","-0.522705","-0.085632","-0.015267","-0.007634","-0.007634","8.374023","-1.988232","3.520679","-0.413916","0.202173","-0.220117","0.069385","0.071777","-0.500049"
"D","1617445390.237069","7","33","5","53","49","33","0.826843","-0.18927","-0.522644","-0.085571","-0.015267","0","-0.007634","8.385986","-1.960718","3.539819","-0.400757","0.229687","-0.203369","0.070581","0.105273","-0.488086"
"D","1617445390.226933","7","32","8","53","53","32","0.826904","-0.189209","-0.522583","-0.085449","-0.015267","-0.007634","-0.007634","8.391968","-1.954736","3.560156","-0.393579","0.235669","-0.184229","0.059814","0.118433","-0.474927"
"D","1617445390.2244852","7","32","5","56","51","28","0.826965","-0.189209","-0.522522","-0.085266","-0.007634","-0.007634","-0.007634","8.38479","-1.967896","3.56853","-0.399561","0.224902","-0.177051","0.047852","0.111255","-0.476123"
"D","1617445390.2231746","7","32","4","57","54","31","0.827026","-0.18927","-0.522461","-0.085144","0","-0.007634","-0.015267","8.380005","-1.991821","3.572119","-0.404346","0.203369","-0.174658","0.035889","0.092114","-0.47373"
"D","1617445390.1970232","7","31","3","54","48","33","0.827087","-0.189392","-0.522278","-0.085022","0","-0.007634","-0.015267","8.362061","-2.031299","3.566138","-0.419897","0.16748","-0.183032","0.023926","0.055029","-0.483301"
"D","1617445390.1869843","7","34","5","54","50","29","0.827148","-0.189636","-0.522156","-0.084961","0","-0.007634","-0.015267","8.332153","-2.06958","3.564941","-0.448608","0.135181","-0.185425","0.002393","0.022729","-0.502441"
"D","1617445390.1769884","7","29","5","51","55","31","0.827209","-0.189819","-0.522034","-0.0849","0","-0.007634","-0.015267","8.303442","-2.088721","3.564941","-0.476123","0.119629","-0.186621","-0.013159","0.005981","-0.523975"
"D","1617445390.1671555","7","32","6","53","54","31","0.827209","-0.18988","-0.521973","-0.084717","-0.007634","0","-0.015267","8.293872","-2.089917","3.594849","-0.483301","0.120825","-0.15791","-0.040674","0.017944","-0.520386"
"D","1617445390.1571522","7","33","5","53","53","31","0.827209","-0.189819","-0.522034","-0.084534","-0.015267","0","-0.015267","8.295069","-2.087524","3.625952","-0.483301","0.124414","-0.12561","-0.065796","0.034692","-0.508423"
"D","1617445390.1469877","7","33","6","54","51","32","0.827209","-0.189819","-0.522034","-0.08429","-0.015267","0","-0.007634","8.286695","-2.093506","3.623559","-0.490479","0.120825","-0.128003","-0.068188","0.029907","-0.515601"
"D","1617445390.1372497","7","29","6","52","51","32","0.827209","-0.189819","-0.522095","-0.084167","-0.007634","0","-0.007634","8.283106","-2.119824","3.609204","-0.494067","0.095703","-0.141162","-0.066992","0.001196","-0.517993"
"D","1617445390.127237","7","26","6","52","51","31","0.827209","-0.18988","-0.522095","-0.084106","0","0","-0.007634","8.290283","-2.154517","3.590064","-0.48689","0.063403","-0.160303","-0.059814","-0.034692","-0.510815"
"D","1617445390.117066","7","32","5","49","55","31","0.827148","-0.189941","-0.522217","-0.084045","0","0.007634","-0.007634","8.314209","-2.18562","3.576904","-0.46416","0.0323","-0.171069","-0.050244","-0.065796","-0.488086"
"D","1617445390.1073124","7","28","7","53","48","31","0.827087","-0.190002","-0.522278","-0.084106","0","0","0","8.344116","-2.197583","3.585278","-0.435449","0.021533","-0.160303","-0.050244","-0.070581","-0.455786"
"D","1617445390.0971348","7","30","4","55","51","31","0.827026","-0.190002","-0.5224","-0.084106","-0.007634","0","0","8.353686","-2.186816","3.609204","-0.427075","0.031104","-0.133984","-0.065796","-0.050244","-0.440234"
"D","1617445390.0871332","7","31","3","52","54","31","0.827026","-0.18988","-0.5224","-0.084106","-0.015267","-0.007634","0","8.348902","-2.160498","3.641504","-0.43186","0.056226","-0.102881","-0.084937","-0.015552","-0.437842"
"D","1617445390.0770788","7","32","6","54","50","31","0.827026","-0.189697","-0.522461","-0.084106","-0.007634","-0.007634","0","8.338135","-2.137769","3.655859","-0.442627","0.075366","-0.088525","-0.094507","0.005981","-0.447412"
"D","1617445390.067293","7","32","7","51","52","31","0.827026","-0.189575","-0.522522","-0.084167","-0.007634","0","0","8.348902","-2.13418","3.653467","-0.433057","0.076563","-0.090918","-0.088525","0.007178","-0.439038"
"D","1617445390.057129","7","32","5","49","53","31","0.826965","-0.189514","-0.522583","-0.084229","0","0","0","8.372828","-2.148535","3.6427","-0.410327","0.059814","-0.099292","-0.076563","-0.008374","-0.418701"
"D","1617445390.0469942","7","32","6","54","53","32","0.826904","-0.189514","-0.522644","-0.084351","0.007634","0","0","8.395556","-2.170068","3.621167","-0.387598","0.037085","-0.119629","-0.057422","-0.035889","-0.400757"
"D","1617445390.037239","7","32","4","53","51","30","0.826782","-0.189636","-0.522766","-0.084534","0.007634","0","0","8.433838","-2.190405","3.594849","-0.351709","0.015552","-0.142358","-0.029907","-0.063403","-0.372046"
"D","1617445390.027232","7","29","5","53","51","29","0.826721","-0.189758","-0.522827","-0.084717","0.015267","0","0.007634","8.449389","-2.19519","3.55896","-0.337354","0.010767","-0.177051","0.002393","-0.080151","-0.372046"
"D","1617445390.0170152","7","31","6","52","51","30","0.82666","-0.189819","-0.522888","-0.085022","0.007634","-0.007634","0.007634","8.463745","-2.191602","3.523071","-0.324194","0.011963","-0.211743","0.037085","-0.092114","-0.373242"
"D","1617445390.007162","7","32","5","53","55","29","0.826599","-0.189819","-0.522888","-0.085327","0","-0.007634","0.007634","8.472119","-2.150928","3.501538","-0.31582","0.049048","-0.23208","0.070581","-0.065796","-0.381616"
"D","1617445389.9971178","7","31","6","53","52","32","0.826599","-0.189758","-0.522827","-0.085571","0","-0.007634","0.007634","8.462549","-2.082739","3.478809","-0.325391","0.113647","-0.257202","0.108862","-0.017944","-0.415112"
"D","1617445389.9870105","7","32","5","53","56","31","0.82666","-0.189575","-0.522827","-0.085754","-0.007634","-0.007634","0.007634","8.45896","-2.015747","3.458472","-0.330176","0.177051","-0.278735","0.147144","0.029907","-0.441431"
"D","1617445389.9772508","7","33","7","50","52","32","0.82666","-0.189392","-0.522827","-0.085815","-0.007634","0","0.007634","8.480494","-1.964307","3.456079","-0.308643","0.224902","-0.282324","0.175854","0.07417","-0.434253"
"D","1617445389.9672518","7","33","7","53","52","31","0.82666","-0.189331","-0.522888","-0.085876","0","0","0.007634","8.494848","-1.945166","3.450098","-0.295483","0.24165","-0.288306","0.191406","0.087329","-0.428271"
"D","1617445389.9570024","7","32","6","49","52","28","0.82666","-0.189331","-0.522888","-0.085938","0","0","0","8.492456","-1.959522","3.426172","-0.297876","0.227295","-0.312231","0.205762","0.0646","-0.436646"
"D","1617445389.9473035","7","29","4","52","52","30","0.826599","-0.189453","-0.522949","-0.08606","0.007634","0","0","8.493652","-2.000195","3.424976","-0.297876","0.186621","-0.311035","0.191406","0.027515","-0.427075"
"D","1617445389.937355","7","33","6","53","52","32","0.826538","-0.189636","-0.522888","-0.086121","0.007634","0","-0.007634","8.478101","-2.040869","3.424976","-0.312231","0.14834","-0.309839","0.171069","-0.005981","-0.430664"
"D","1617445389.927131","7","31","4","52","50","31","0.826538","-0.189758","-0.522827","-0.086121","0","-0.007634","-0.007634","8.445801","-2.07915","3.426172","-0.343335","0.111255","-0.308643","0.143555","-0.04187","-0.449805"
"D","1617445389.9178045","7","29","1","51","71","31","0.82666","-0.18988","-0.522644","-0.08606","-0.007634","-0.015267","-0.015267","8.405127","-2.11145","3.426172","-0.382812","0.082544","-0.312231","0.119629","-0.071777","-0.480908"
"D","1617445389.9078882","7","31","5","52","51","33","0.826782","-0.189819","-0.522461","-0.085876","-0.015267","-0.007634","-0.015267","8.383594","-2.127002","3.439331","-0.401953","0.069385","-0.302661","0.098096","-0.081348","-0.490479"
"D","1617445389.897802","7","31","5","54","55","31","0.826965","-0.189697","-0.522339","-0.085632","-0.022901","-0.007634","-0.015267","8.370435","-2.135376","3.450098","-0.413916","0.062207","-0.29668","0.084937","-0.086133","-0.497656"
"D","1617445389.8878057","7","29","6","51","54","33","0.827087","-0.189575","-0.522217","-0.085327","-0.022901","0","-0.015267","8.364453","-2.14375","3.470435","-0.417505","0.055029","-0.279932","0.066992","-0.086133","-0.492871"
"D","1617445389.8777962","7","30","5","52","52","30","0.827148","-0.189392","-0.522217","-0.085022","-0.015267","0","-0.015267","8.381201","-2.164087","3.507519","-0.399561","0.035889","-0.244043","0.038281","-0.087329","-0.459375"
"D","1617445389.867813","7","31","5","52","51","29","0.827148","-0.18927","-0.522278","-0.084778","-0.015267","0.007634","-0.007634","8.38479","-2.196387","3.52666","-0.395972","0.003589","-0.223706","0.011963","-0.108862","-0.440234"
"D","1617445389.8571315","7","31","5","52","52","30","0.827148","-0.189209","-0.522339","-0.084656","-0.007634","0","-0.007634","8.377612","-2.220313","3.542212","-0.404346","-0.019141","-0.208154","-0.010767","-0.123218","-0.436646"
"D","1617445389.84787","7","32","5","52","52","30","0.827148","-0.189026","-0.5224","-0.084656","-0.015267","0","0","8.362061","-2.215527","3.55896","-0.419897","-0.016748","-0.191406","-0.029907","-0.11604","-0.44502"
"D","1617445389.837211","7","32","6","51","52","33","0.827209","-0.188782","-0.5224","-0.084656","-0.022901","-0.007634","0","8.344116","-2.160498","3.580493","-0.437842","0.0323","-0.171069","-0.038281","-0.063403","-0.46416"
"D","1617445389.8271272","7","33","5","54","52","32","0.827332","-0.188354","-0.5224","-0.084656","-0.030534","-0.007634","0.007634","8.322583","-2.074365","3.596045","-0.460571","0.112451","-0.159106","-0.031104","0.011963","-0.498853"
"D","1617445389.8172405","7","28","8","53","51","31","0.827454","-0.187805","-0.5224","-0.084656","-0.038168","-0.007634","0.007634","8.328565","-1.971484","3.606812","-0.45459","0.206958","-0.153125","-0.002393","0.101685","-0.512012"
"D","1617445389.8070662","7","32","7","53","53","32","0.827576","-0.187256","-0.5224","-0.084595","-0.030534","-0.007634","0.015267","8.358472","-1.885352","3.624756","-0.424683","0.284717","-0.13877","0.023926","0.18064","-0.49646"
"D","1617445389.7977674","7","32","5","52","51","32","0.827637","-0.186768","-0.522461","-0.084534","-0.022901","-0.007634","0.015267","8.389575","-1.835107","3.659448","-0.394775","0.327783","-0.10647","0.023926","0.235669","-0.466553"
"D","1617445389.7879837","7","29","4","54","50","31","0.827759","-0.186462","-0.5224","-0.084595","-0.007634","-0.015267","0.015267","8.405127","-1.819556","3.695337","-0.379224","0.33855","-0.07417","0.007178","0.259595","-0.442627"
"D","1617445389.7771585","7","33","4","49","54","33","0.82782","-0.186401","-0.522278","-0.084778","0","-0.015267","0.015267","8.412305","-1.839893","3.724048","-0.37085","0.31582","-0.047852","-0.016748","0.250024","-0.419897"
"D","1617445389.767797","7","34","5","49","51","5","0.827942","-0.186401","-0.522095","-0.085022","0.007634","-0.022901","0.007634","8.412305","-1.862622","3.751563","-0.369653","0.291895","-0.025122","-0.043066","0.236865","-0.404346"
"D","1617445389.7578166","7","32","4","52","55","37","0.828003","-0.186462","-0.521851","-0.085266","0","-0.030534","0.007634","8.395556","-1.868603","3.787451","-0.384009","0.284717","0.005981","-0.077759","0.24165","-0.403149"
"D","1617445389.747836","7","32","5","55","50","33","0.828186","-0.186462","-0.521545","-0.085449","0","-0.030534","0","8.369238","-1.856641","3.811377","-0.407935","0.295483","0.023926","-0.100488","0.258398","-0.419897"
"D","1617445389.7380228","7","31","4","53","54","31","0.828308","-0.186462","-0.521301","-0.085571","-0.007634","-0.022901","0","8.359668","-1.849463","3.825732","-0.416309","0.302661","0.033496","-0.108862","0.267969","-0.425879"
"D","1617445389.7279863","7","33","6","53","51","29","0.82843","-0.186523","-0.521118","-0.085571","-0.007634","-0.015267","-0.007634","8.364453","-1.857837","3.820947","-0.409131","0.29668","0.025122","-0.101685","0.259595","-0.421094"
"D","1617445389.717795","7","33","5","53","56","33","0.828491","-0.186584","-0.521057","-0.085449","-0.007634","-0.007634","-0.007634","8.388379","-1.891333","3.804199","-0.385205","0.265576","0.007178","-0.086133","0.224902","-0.399561"
"D","1617445389.7078652","7","32","4","60","52","33","0.82843","-0.186768","-0.521057","-0.085388","0","0","-0.007634","8.424268","-1.937988","3.773096","-0.34812","0.22251","-0.020337","-0.062207","0.177051","-0.368457"
"D","1617445389.697808","7","32","6","50","52","29","0.828308","-0.186951","-0.52124","-0.085266","0","0.015267","-0.007634","8.457764","-1.984644","3.733618","-0.31582","0.178247","-0.056226","-0.0323","0.123218","-0.343335"
"D","1617445389.687908","7","32","5","52","51","29","0.828125","-0.187134","-0.521545","-0.085144","0","0.022901","-0.007634","8.481689","-2.043262","3.686963","-0.295483","0.123218","-0.095703","-0.008374","0.058618","-0.327783"
"D","1617445389.6778486","7","31","4","53","55","29","0.82782","-0.187317","-0.521912","-0.084961","0","0.022901","-0.007634","8.502027","-2.095898","3.628345","-0.277539","0.07417","-0.144751","0.022729","-0.004785","-0.320605"
"D","1617445389.6678576","7","32","7","54","51","29","0.827576","-0.187439","-0.522278","-0.084778","0","0.030534","-0.015267","8.519971","-2.121021","3.560156","-0.261987","0.05144","-0.204565","0.071777","-0.047852","-0.324194"
"D","1617445389.657904","7","30","5","51","52","31","0.827332","-0.187561","-0.522705","-0.084595","-0.007634","0.022901","-0.015267","8.513989","-2.138965","3.500342","-0.272754","0.034692","-0.25481","0.104077","-0.084937","-0.349316"
"D","1617445389.6480742","7","32","4","54","51","29","0.827087","-0.187683","-0.523071","-0.084412","-0.007634","0.022901","-0.007634","8.505615","-2.136572","3.438135","-0.283521","0.039478","-0.308643","0.145947","-0.102881","-0.38042"
"D","1617445389.6379335","7","33","4","54","55","31","0.826843","-0.187683","-0.523438","-0.08429","-0.007634","0.030534","-0.007634","8.525952","-2.140161","3.377124","-0.266772","0.035889","-0.361279","0.196191","-0.12561","-0.384009"
"D","1617445389.6279905","7","28","5","52","48","33","0.826599","-0.187744","-0.523804","-0.084167","-0.007634","0.030534","-0.007634","8.571411","-2.13418","3.349609","-0.223706","0.043066","-0.38042","0.233276","-0.124414","-0.354102"
"D","1617445389.617815","7","33","5","52","52","31","0.826355","-0.187744","-0.524231","-0.084045","-0.007634","0.022901","0","8.608496","-2.131787","3.33645","-0.191406","0.045459","-0.385205","0.252417","-0.122021","-0.327783"
"D","1617445389.6079977","7","31","6","54","50","29","0.826172","-0.187744","-0.524475","-0.083984","0","0.015267","-0.007634","8.603711","-2.135376","3.313721","-0.197388","0.040674","-0.403149","0.263184","-0.133984","-0.33855"
"D","1617445389.5978837","7","33","1","50","51","31","0.826111","-0.187744","-0.524658","-0.083923","0","0.007634","-0.007634","8.590551","-2.152124","3.312524","-0.212939","0.023926","-0.400757","0.250024","-0.149536","-0.34812"
"D","1617445389.5879812","7","28","5","50","48","28","0.826111","-0.187866","-0.524658","-0.083862","0.007634","0","-0.007634","8.573804","-2.16648","3.323291","-0.229687","0.011963","-0.38999","0.229687","-0.156714","-0.356494"
"D","1617445389.5779283","7","31","5","53","53","31","0.826172","-0.187988","-0.524536","-0.083862","0.007634","-0.015267","-0.015267","8.540308","-2.183228","3.352002","-0.261987","-0.001196","-0.362476","0.187817","-0.160303","-0.372046"
"D","1617445389.56805","7","32","5","52","51","32","0.826294","-0.188232","-0.52417","-0.083923","0.015267","-0.030534","-0.015267","8.484082","-2.193994","3.403442","-0.314624","-0.007178","-0.31582","0.123218","-0.150732","-0.400757"
"D","1617445389.558077","7","31","7","54","57","31","0.826599","-0.188416","-0.523621","-0.084106","0.015267","-0.045802","-0.015267","8.406323","-2.193994","3.468042","-0.387598","-0.003589","-0.261987","0.046655","-0.130396","-0.446216"
"D","1617445389.5480423","7","29","4","52","52","32","0.826965","-0.18866","-0.522949","-0.08429","0.015267","-0.053435","-0.015267","8.322583","-2.168872","3.538623","-0.46416","0.023926","-0.203369","-0.025122","-0.086133","-0.498853"
"D","1617445389.537917","7","32","1","51","54","30","0.827393","-0.188843","-0.522095","-0.084534","0.015267","-0.061069","-0.007634","8.240039","-2.135376","3.628345","-0.539526","0.061011","-0.129199","-0.108862","-0.026318","-0.545508"
"D","1617445389.527779","7","28","7","53","50","32","0.82782","-0.188965","-0.521301","-0.084778","0.007634","-0.053435","-0.007634","8.18501","-2.113843","3.714478","-0.586182","0.084937","-0.058618","-0.18064","0.020337","-0.565845"
"D","1617445389.5178645","7","33","4","52","51","31","0.828247","-0.189148","-0.52063","-0.085022","0.007634","-0.053435","-0.007634","8.161084","-2.103076","3.799414","-0.605322","0.099292","0.011963","-0.244043","0.061011","-0.558667"
"D","1617445389.5079496","7","31","7","52","51","32","0.828552","-0.189331","-0.52002","-0.085266","0.007634","-0.045802","-0.007634","8.14314","-2.118628","3.838892","-0.617285","0.086133","0.040674","-0.278735","0.059814","-0.555078"
"D","1617445389.497902","7","29","5","50","51","31","0.828735","-0.189514","-0.519592","-0.085388","0.007634","-0.030534","-0.007634","8.161084","-2.156909","3.854443","-0.595752","0.05144","0.049048","-0.288306","0.033496","-0.523975"
"D","1617445389.4879837","7","31","3","52","50","28","0.828857","-0.189758","-0.519348","-0.08551","0.007634","-0.022901","-0.007634","8.198169","-2.205957","3.836499","-0.556274","0.005981","0.027515","-0.267969","-0.013159","-0.48689"
"D","1617445389.477774","7","32","8","54","50","29","0.828857","-0.18988","-0.519287","-0.085571","0","-0.015267","-0.007634","8.224487","-2.243042","3.785058","-0.529956","-0.028711","-0.022729","-0.227295","-0.0646","-0.474927"
"D","1617445389.4678814","7","32","3","50","56","29","0.828796","-0.18988","-0.519348","-0.08551","-0.015267","0","-0.007634","8.25918","-2.256201","3.7073","-0.495264","-0.04187","-0.099292","-0.151929","-0.105273","-0.471338"
"D","1617445389.45804","7","32","4","52","46","31","0.828735","-0.189697","-0.519592","-0.085327","-0.022901","0.015267","-0.007634","8.314209","-2.246631","3.624756","-0.442627","-0.033496","-0.178247","-0.059814","-0.126807","-0.456982"
"D","1617445389.4480827","7","31","5","52","53","31","0.828552","-0.189392","-0.519958","-0.085022","-0.030534","0.030534","-0.007634","8.381201","-2.204761","3.552979","-0.378027","0.003589","-0.244043","0.034692","-0.11604","-0.433057"
"D","1617445389.4379108","7","31","6","53","50","31","0.828369","-0.189026","-0.520508","-0.084656","-0.038168","0.038168","-0.007634","8.426661","-2.152124","3.491968","-0.337354","0.052637","-0.29668","0.113647","-0.089722","-0.428271"
"D","1617445389.4280422","7","32","4","59","48","35","0.828125","-0.188538","-0.521118","-0.08429","-0.038168","0.045802","0","8.461352","-2.093506","3.450098","-0.307446","0.105273","-0.330176","0.173462","-0.052637","-0.425879"
"D","1617445389.4178522","7","29","5","52","52","31","0.82782","-0.18811","-0.52179","-0.083923","-0.038168","0.045802","0","8.479297","-2.024121","3.423779","-0.295483","0.168677","-0.345728","0.212939","0","-0.434253"
"D","1617445389.408085","7","32","5","52","48","32","0.827576","-0.187683","-0.5224","-0.083557","-0.038168","0.045802","0","8.479297","-1.960718","3.421387","-0.301465","0.227295","-0.33855","0.224902","0.055029","-0.449805"
"D","1617445389.397897","7","33","3","50","56","33","0.827271","-0.187317","-0.523071","-0.083252","-0.030534","0.045802","0","8.488867","-1.910474","3.427368","-0.297876","0.272754","-0.321802","0.228491","0.104077","-0.449805"
"D","1617445389.3880477","7","31","7","54","48","32","0.827026","-0.187012","-0.523621","-0.082825","-0.030534","0.038168","-0.007634","8.50083","-1.87937","3.430957","-0.289502","0.301465","-0.308643","0.230884","0.136377","-0.443823"
"D","1617445389.3780625","7","34","10","50","51","32","0.826843","-0.186829","-0.524109","-0.082458","-0.022901","0.030534","-0.007634","8.508008","-1.862622","3.440527","-0.287109","0.317017","-0.291895","0.223706","0.15791","-0.439038"
"D","1617445389.3678234","7","28","6","52","50","29","0.82666","-0.186768","-0.524353","-0.082092","-0.015267","0.015267","-0.015267","8.494848","-1.861426","3.456079","-0.301465","0.320605","-0.270361","0.19978","0.168677","-0.443823"
"D","1617445389.3580604","7","31","7","50","51","31","0.82666","-0.186768","-0.524536","-0.081726","-0.015267","0.007634","-0.015267","8.480494","-1.857837","3.464453","-0.317017","0.327783","-0.259595","0.186621","0.178247","-0.455786"
"D","1617445389.348189","7","29","7","53","54","30","0.82666","-0.186707","-0.524536","-0.081482","-0.015267","0","-0.007634","8.468531","-1.854248","3.500342","-0.327783","0.332568","-0.223706","0.153125","0.196191","-0.453394"
"D","1617445389.3379564","7","32","4","51","51","31","0.82666","-0.186707","-0.524536","-0.081177","-0.015267","0","-0.007634","8.474512","-1.845874","3.541016","-0.320605","0.344531","-0.181836","0.12561","0.223706","-0.433057"
"D","1617445389.328102","7","28","5","52","50","29","0.826721","-0.186707","-0.524536","-0.080994","-0.007634","0","-0.007634","8.481689","-1.851856","3.582886","-0.313428","0.339746","-0.141162","0.093311","0.235669","-0.410327"
"D","1617445389.3179064","7","32","4","52","51","31","0.826721","-0.186768","-0.524536","-0.080811","-0.007634","0","-0.007634","8.492456","-1.873389","3.627148","-0.302661","0.321802","-0.095703","0.053833","0.238062","-0.379224"
"D","1617445389.3082194","7","29","4","52","53","31","0.82666","-0.186951","-0.524536","-0.080627","-0.007634","0","-0.007634","8.508008","-1.897314","3.664233","-0.285913","0.302661","-0.057422","0.022729","0.236865","-0.345728"
"D","1617445389.2979972","7","31","5","53","50","29","0.82666","-0.187073","-0.524597","-0.080444","-0.007634","0","-0.015267","8.502027","-1.936792","3.669019","-0.291895","0.266772","-0.05144","0.002393","0.205762","-0.340942"
"D","1617445389.287988","7","33","4","52","53","29","0.82666","-0.187256","-0.524597","-0.0802","-0.007634","-0.007634","-0.015267","8.498438","-1.975073","3.652271","-0.295483","0.233276","-0.066992","0.003589","0.168677","-0.342139"
"D","1617445389.2781014","7","29","4","54","56","36","0.82666","-0.187378","-0.524536","-0.079834","-0.007634","-0.007634","-0.022901","8.490064","-2.034888","3.606812","-0.301465","0.179443","-0.111255","0.020337","0.100488","-0.352905"
"D","1617445389.2679274","7","32","5","53","48","35","0.82666","-0.187622","-0.524536","-0.079529","-0.007634","0","-0.022901","8.498438","-2.116235","3.538623","-0.291895","0.105273","-0.178247","0.056226","0.007178","-0.352905"
"D","1617445389.2582483","7","32","6","53","51","31","0.826599","-0.187866","-0.524536","-0.079163","-0.007634","0","-0.030534","8.517578","-2.207153","3.474023","-0.271558","0.021533","-0.240454","0.088525","-0.092114","-0.33855"
"D","1617445389.2481067","7","28","6","52","48","34","0.826599","-0.18811","-0.524536","-0.078735","-0.007634","0.007634","-0.030534","8.551074","-2.288501","3.44292","-0.236865","-0.050244","-0.270361","0.105273","-0.16748","-0.302661"
"D","1617445389.2380197","7","27","5","51","53","33","0.826599","-0.188354","-0.524536","-0.078369","0","0.007634","-0.030534","8.578588","-2.359082","3.438135","-0.208154","-0.112451","-0.27395","0.100488","-0.224902","-0.26438"
"D","1617445389.227976","7","28","3","49","50","31","0.826538","-0.188538","-0.524536","-0.078003","0","0.007634","-0.030534","8.579785","-2.410522","3.458472","-0.205762","-0.15791","-0.251221","0.068188","-0.257202","-0.242847"
"D","1617445389.2182298","7","32","4","49","51","31","0.826599","-0.188721","-0.524475","-0.077759","0","-0.007634","-0.022901","8.559448","-2.446411","3.485986","-0.224902","-0.187817","-0.223706","0.027515","-0.275146","-0.242847"
"D","1617445389.2079325","7","31","5","54","54","29","0.82666","-0.188904","-0.524292","-0.077576","0.007634","-0.015267","-0.022901","8.513989","-2.471533","3.513501","-0.267969","-0.206958","-0.198584","-0.017944","-0.285913","-0.266772"
"D","1617445388.8888648","7","29","5","53","50","29","0.828796","-0.188965","-0.521057","-0.076843","-0.022901","0","0.007634","8.274732","-2.161694","3.604419","-0.47373","0.122021","-0.173462","-0.026318","0.00957","-0.517993"
"D","1617445388.8782098","7","29","5","53","54","30","0.828796","-0.188599","-0.52124","-0.076843","-0.022901","0","0.015267","8.307032","-2.128198","3.579297","-0.443823","0.149536","-0.198584","0.016748","0.027515","-0.507227"
"D","1617445388.868796","7","32","6","54","52","33","0.828735","-0.188171","-0.521362","-0.076843","-0.015267","0.007634","0.015267","8.34292","-2.110254","3.546997","-0.407935","0.160303","-0.229687","0.062207","0.028711","-0.489282"
"D","1617445388.858831","7","32","6","54","51","4","0.828735","-0.187866","-0.521545","-0.076965","-0.015267","0.007634","0.015267","8.387182","-2.099487","3.539819","-0.367261","0.165088","-0.236865","0.087329","0.033496","-0.456982"
"D","1617445388.8488717","7","31","5","52","51","31","0.828674","-0.187622","-0.521729","-0.077148","-0.007634","0","0.015267","8.425464","-2.086328","3.551782","-0.331372","0.171069","-0.22251","0.093311","0.046655","-0.421094"
"D","1617445388.838756","7","32","3","54","48","31","0.828613","-0.187439","-0.52179","-0.077332","-0.007634","0","0.015267","8.445801","-2.076758","3.561352","-0.312231","0.175854","-0.212939","0.095703","0.056226","-0.400757"
"D","1617445388.8290105","7","32","7","51","52","31","0.828613","-0.187256","-0.521851","-0.077576","-0.007634","-0.007634","0.015267","8.448194","-2.074365","3.576904","-0.311035","0.172266","-0.197388","0.082544","0.059814","-0.392383"
"D","1617445388.818849","7","30","7","51","52","32","0.828674","-0.187073","-0.52179","-0.077759","-0.007634","-0.015267","0.015267","8.438623","-2.071973","3.60083","-0.320605","0.171069","-0.175854","0.059814","0.065796","-0.392383"
"D","1617445388.8087103","7","32","5","50","50","32","0.828735","-0.186951","-0.521667","-0.077942","-0.007634","-0.015267","0.007634","8.433838","-2.082739","3.628345","-0.324194","0.156714","-0.151929","0.033496","0.062207","-0.384009"
"D","1617445388.7990043","7","32","4","51","48","34","0.828857","-0.186768","-0.521545","-0.078125","-0.007634","-0.007634","0.007634","8.449389","-2.110254","3.651074","-0.308643","0.124414","-0.132788","0.013159","0.04187","-0.355298"
"D","1617445388.7890005","7","31","5","54","52","30","0.828857","-0.186646","-0.521545","-0.078247","-0.007634","-0.007634","0.007634","8.467334","-2.146142","3.670215","-0.290698","0.086133","-0.114844","-0.004785","0.014355","-0.322998"
"D","1617445388.7789986","7","33","10","51","55","27","0.828918","-0.186584","-0.521484","-0.078308","0","-0.007634","0.007634","8.474512","-2.192798","3.657056","-0.283521","0.037085","-0.130396","-0.004785","-0.034692","-0.312231"
"D","1617445388.7690306","7","32","6","53","52","31","0.828918","-0.186523","-0.521484","-0.078491","0","-0.007634","0.007634","8.484082","-2.25022","3.636719","-0.275146","-0.021533","-0.150732","-0.002393","-0.095703","-0.299072"
"D","1617445388.7588544","7","29","4","50","48","32","0.828918","-0.186462","-0.521484","-0.078613","0","0","0.007634","8.499634","-2.294482","3.624756","-0.259595","-0.068188","-0.162695","-0.001196","-0.142358","-0.278735"
"D","1617445388.7489457","7","29","7","54","52","29","0.828918","-0.186401","-0.521545","-0.078796","-0.007634","0","0.007634","8.510401","-2.310034","3.609204","-0.250024","-0.086133","-0.178247","0.00957","-0.163892","-0.272754"
"D","1617445388.738956","7","28","5","50","51","29","0.828857","-0.186218","-0.521606","-0.078918","-0.007634","0","0.007634","8.515185","-2.29209","3.603223","-0.246436","-0.072974","-0.184229","0.020337","-0.154321","-0.27395"
"D","1617445388.7290208","7","29","3","50","51","32","0.828857","-0.185974","-0.521667","-0.079041","-0.015267","0","0","8.505615","-2.255005","3.578101","-0.257202","-0.04187","-0.209351","0.046655","-0.136377","-0.300269"
"D","1617445388.7189622","7","31","4","53","48","30","0.828918","-0.18573","-0.521729","-0.079102","-0.015267","0","0","8.49126","-2.220313","3.545801","-0.272754","-0.010767","-0.242847","0.077759","-0.120825","-0.334961"
"D","1617445388.7090664","7","31","4","51","48","41","0.828918","-0.185547","-0.52179","-0.079102","-0.007634","0","0.007634","8.484082","-2.191602","3.515893","-0.279932","0.013159","-0.272754","0.107666","-0.111255","-0.35769"
"D","1617445388.6988618","7","32","5","53","55","36","0.828918","-0.185364","-0.52179","-0.079163","-0.007634","0","0.007634","8.492456","-2.182031","3.507519","-0.271558","0.019141","-0.282324","0.120825","-0.108862","-0.355298"
"D","1617445388.688931","7","30","6","54","51","31","0.828918","-0.185303","-0.52179","-0.079285","0","-0.007634","0.007634","8.484082","-2.179639","3.513501","-0.281128","0.019141","-0.276343","0.112451","-0.10647","-0.362476"
"D","1617445388.6788168","7","29","4","50","50","30","0.828979","-0.185242","-0.521729","-0.079468","0","-0.015267","0","8.456568","-2.165283","3.530249","-0.308643","0.031104","-0.261987","0.092114","-0.092114","-0.384009"
"D","1617445388.6689744","7","32","4","52","52","35","0.829102","-0.185181","-0.521423","-0.079712","0","-0.030534","0","8.397949","-2.135376","3.574512","-0.363672","0.058618","-0.223706","0.044263","-0.055029","-0.424683"
"D","1617445388.6589124","7","33","5","54","52","32","0.829407","-0.18512","-0.520996","-0.079834","-0.007634","-0.038168","-0.007634","8.318995","-2.081543","3.625952","-0.439038","0.112451","-0.181836","-0.005981","0.004785","-0.488086"
"D","1617445388.6489806","7","29","5","52","48","32","0.829712","-0.185059","-0.520508","-0.079895","-0.007634","-0.045802","-0.007634","8.267553","-2.048047","3.696533","-0.48689","0.145947","-0.120825","-0.068188","0.057422","-0.514404"
"D","1617445388.6390474","7","34","3","57","50","27","0.830078","-0.184998","-0.519897","-0.079956","-0.007634","-0.045802","-0.007634","8.230469","-2.030102","3.763525","-0.516797","0.163892","-0.066992","-0.120825","0.093311","-0.523975"
"D","1617445388.6290152","7","30","5","52","51","31","0.830444","-0.184998","-0.519348","-0.080078","-0.007634","-0.045802","-0.007634","8.187403","-2.025317","3.812573","-0.555078","0.169873","-0.029907","-0.16748","0.111255","-0.544312"
"D","1617445388.6188576","7","33","7","52","55","33","0.830811","-0.184998","-0.518799","-0.080139","-0.007634","-0.045802","-0.007634","8.158691","-2.042065","3.852051","-0.579004","0.155518","-0.001196","-0.208154","0.107666","-0.551489"
"D","1617445388.6088948","7","31","3","50","50","32","0.831116","-0.184998","-0.518311","-0.0802","-0.007634","-0.045802","-0.007634","8.135962","-2.077954","3.861621","-0.596948","0.120825","-0.002393","-0.227295","0.07417","-0.559863"
"D","1617445388.5989192","7","29","3","50","52","29","0.83136","-0.184998","-0.517822","-0.0802","-0.007634","-0.038168","-0.007634","8.119214","-2.107861","3.859229","-0.608911","0.092114","-0.013159","-0.233276","0.043066","-0.567041"
"D","1617445388.588823","7","31","4","50","55","35","0.831665","-0.184998","-0.517456","-0.0802","-0.007634","-0.030534","-0.007634","8.125196","-2.130591","3.854443","-0.599341","0.070581","-0.026318","-0.224902","0.019141","-0.559863"
"D","1617445388.5789404","7","31","5","52","54","31","0.831787","-0.184875","-0.517212","-0.080139","-0.015267","-0.022901","-0.007634","8.163477","-2.121021","3.864014","-0.558667","0.080151","-0.021533","-0.208154","0.0323","-0.522778"
"D","1617445388.5690713","7","33","4","50","53","31","0.831909","-0.184692","-0.51709","-0.080139","-0.015267","-0.015267","0","8.205347","-2.097095","3.85564","-0.515601","0.101685","-0.034692","-0.171069","0.049048","-0.495264"
"D","1617445388.558946","7","36","1","52","51","33","0.832031","-0.184509","-0.517029","-0.080078","-0.015267","-0.015267","0","8.223291","-2.051636","3.846069","-0.497656","0.144751","-0.046655","-0.13877","0.086133","-0.492871"
"D","1617445388.5493264","7","31","7","54","51","33","0.832092","-0.184204","-0.516907","-0.080139","-0.022901","-0.015267","0.007634","8.230469","-1.969092","3.83291","-0.488086","0.22251","-0.063403","-0.095703","0.151929","-0.508423"
"D","1617445388.5388634","7","32","7","54","52","30","0.832214","-0.183899","-0.516907","-0.0802","-0.015267","-0.007634","0.007634","8.247217","-1.884155","3.82334","-0.472534","0.302661","-0.076563","-0.05144","0.221313","-0.517993"
"D","1617445388.528761","7","32","6","54","53","32","0.832214","-0.183594","-0.516968","-0.080322","-0.015267","0","0.015267","8.279516","-1.793237","3.812573","-0.441431","0.386401","-0.087329","-0.001196","0.295483","-0.513208"
"D","1617445388.5189598","7","31","9","54","52","34","0.832153","-0.18335","-0.517151","-0.080444","-0.015267","0.007634","0.015267","8.321386","-1.713086","3.789844","-0.401953","0.461768","-0.108862","0.057422","0.358887","-0.502441"
"D","1617445388.5089571","7","32","4","53","55","33","0.83197","-0.183105","-0.517456","-0.080566","-0.015267","0.015267","0.015267","8.376416","-1.636523","3.759937","-0.350513","0.531152","-0.133984","0.124414","0.416309","-0.482104"
"D","1617445388.499023","7","31","5","54","51","31","0.831787","-0.182922","-0.517883","-0.080627","-0.015267","0.022901","0.015267","8.431445","-1.564746","3.704907","-0.300269","0.598145","-0.181836","0.209351","0.462964","-0.471338"
"D","1617445388.4888551","7","33","5","53","55","31","0.831482","-0.1828","-0.518311","-0.080566","-0.015267","0.030534","0.007634","8.496045","-1.524072","3.625952","-0.239258","0.636426","-0.252417","0.307446","0.47373","-0.453394"
"D","1617445388.4789395","7","32","5","56","55","35","0.831177","-0.1828","-0.518921","-0.080383","-0.015267","0.045802","0.007634","8.589355","-1.516895","3.529053","-0.151929","0.642407","-0.337354","0.419897","0.451001","-0.409131"
"D","1617445388.4690444","7","32","5","52","52","33","0.830811","-0.1828","-0.519592","-0.080139","-0.022901","0.045802","0","8.70061","-1.526465","3.422583","-0.046655","0.634033","-0.430664","0.543115","0.413916","-0.350513"
"D","1617445388.458891","7","32","6","53","53","35","0.830383","-0.1828","-0.520264","-0.079651","-0.022901","0.053435","-0.007634","8.790332","-1.547998","3.312524","0.037085","0.614893","-0.526367","0.653174","0.363672","-0.308643"
"D","1617445388.449068","7","31","9","54","55","31","0.830078","-0.1828","-0.520874","-0.079102","-0.030534","0.053435","-0.015267","8.858521","-1.586279","3.195288","0.100488","0.5802","-0.631641","0.758447","0.295483","-0.284717"
"D","1617445388.4388795","7","29","8","53","48","29","0.829834","-0.1828","-0.521362","-0.078369","-0.038168","0.045802","-0.030534","8.918335","-1.630542","3.117529","0.156714","0.540723","-0.699829","0.827832","0.236865","-0.251221"
"D","1617445388.428983","7","33","7","51","55","32","0.829651","-0.1828","-0.52179","-0.077454","-0.038168","0.045802","-0.038168","8.960205","-1.690356","3.058911","0.197388","0.489282","-0.748877","0.870898","0.174658","-0.22251"
"D","1617445388.4190643","7","32","4","53","51","27","0.82959","-0.1828","-0.522034","-0.076416","-0.030534","0.038168","-0.038168","8.984131","-1.777686","3.05293","0.221313","0.41272","-0.750073","0.857739","0.10647","-0.185425"
"D","1617445388.4090626","7","28","5","52","52","32","0.829529","-0.182983","-0.522156","-0.075378","-0.022901","0.030534","-0.045802","8.976954","-1.891333","3.082837","0.216528","0.312231","-0.715381","0.794336","0.027515","-0.153125"
"D","1617445388.3988512","7","31","3","52","51","30","0.829651","-0.183289","-0.522095","-0.074402","-0.015267","0.015267","-0.053435","8.933887","-2.025317","3.131885","0.175854","0.193799","-0.666333","0.697437","-0.063403","-0.144751"
"D","1617445388.3890483","7","28","3","52","50","32","0.829773","-0.183777","-0.52179","-0.073547","0","0","-0.053435","8.860913","-2.171265","3.204858","0.108862","0.0646","-0.595752","0.568237","-0.159106","-0.14834"
"D","1617445388.3792114","7","33","7","53","52","32","0.830017","-0.184265","-0.521362","-0.072815","0","-0.007634","-0.061069","8.768799","-2.294482","3.319702","0.023926","-0.040674","-0.48689","0.405542","-0.221313","-0.15791"
"D","1617445388.3690531","7","31","7","61","54","35","0.830261","-0.184753","-0.520874","-0.072144","0.007634","-0.022901","-0.053435","8.659937","-2.380615","3.447705","-0.076563","-0.110059","-0.364868","0.236865","-0.245239","-0.184229"
"D","1617445388.3589723","7","32","5","53","54","32","0.830627","-0.185303","-0.520203","-0.071594","0.007634","-0.038168","-0.053435","8.509204","-2.441626","3.554175","-0.218921","-0.154321","-0.267969","0.077759","-0.259595","-0.263184"
"D","1617445388.3492684","7","36","7","54","56","37","0.831055","-0.18573","-0.519409","-0.071228","0.007634","-0.045802","-0.045802","8.369238","-2.489478","3.659448","-0.350513","-0.189014","-0.175854","-0.069385","-0.266772","-0.336157"
"D","1617445388.3397264","7","33","8","56","54","33","0.831421","-0.186096","-0.518677","-0.070923","0.007634","-0.045802","-0.038168","8.261572","-2.512207","3.750366","-0.448608","-0.19978","-0.096899","-0.183032","-0.253613","-0.388794"
"D","1617445388.3292418","7","32","5","52","53","32","0.831787","-0.18634","-0.518066","-0.07074","0","-0.038168","-0.030534","8.19458","-2.508618","3.825732","-0.509619","-0.187817","-0.0323","-0.261987","-0.22251","-0.419897"
"D","1617445388.3197496","7","29","6","53","53","32","0.832092","-0.18634","-0.517578","-0.070557","-0.015267","-0.030534","-0.022901","8.127588","-2.476318","3.878369","-0.57063","-0.151929","0.00957","-0.313428","-0.178247","-0.466553"
"D","1617445388.3092928","7","31","4","53","51","32","0.832397","-0.186218","-0.517212","-0.070312","-0.022901","-0.030534","-0.022901","8.073755","-2.424878","3.913062","-0.620874","-0.099292","0.034692","-0.342139","-0.124414","-0.513208"
"D","1617445388.2997131","7","32","5","53","51","32","0.832581","-0.186096","-0.516968","-0.070007","-0.022901","-0.022901","-0.022901","8.031885","-2.379419","3.928613","-0.659155","-0.05144","0.045459","-0.354102","-0.078955","-0.553882"
"D","1617445388.2897463","7","32","5","53","53","31","0.832764","-0.185974","-0.516724","-0.069702","-0.022901","-0.015267","-0.022901","8.012744","-2.371045","3.92981","-0.674707","-0.040674","0.040674","-0.354102","-0.072974","-0.571826"
"D","1617445388.2790618","7","31","8","54","53","33","0.832886","-0.185852","-0.516602","-0.069336","-0.015267","-0.015267","-0.022901","8.031885","-2.394971","3.946558","-0.653174","-0.062207","0.055029","-0.362476","-0.086133","-0.541919"
"D","1617445388.269783","7","31","6","52","52","31","0.833008","-0.185852","-0.516541","-0.069031","-0.015267","-0.015267","-0.022901","8.03667","-2.433252","3.942969","-0.647192","-0.096899","0.049048","-0.366064","-0.119629","-0.529956"
"D","1617445388.2598355","7","33","6","54","55","36","0.833008","-0.185852","-0.516479","-0.068726","-0.007634","-0.015267","-0.022901","8.037867","-2.469141","3.942969","-0.6448","-0.130396","0.049048","-0.374438","-0.150732","-0.520386"
"D","1617445388.2490337","7","32","4","52","52","33","0.833069","-0.185913","-0.516418","-0.068481","-0.007634","-0.015267","-0.022901","8.030688","-2.502637","3.923828","-0.650781","-0.159106","0.028711","-0.369653","-0.185425","-0.526367"
"D","1617445388.2398686","7","32","7","52","55","32","0.833191","-0.185974","-0.516296","-0.068298","-0.007634","-0.015267","-0.022901","8.022314","-2.513403","3.911865","-0.657959","-0.16748","0.013159","-0.362476","-0.19978","-0.537134"
"D","1617445388.229937","7","32","4","52","52","33","0.833252","-0.186035","-0.516174","-0.068115","-0.007634","-0.015267","-0.022901","8.021118","-2.501441","3.899902","-0.656763","-0.151929","0","-0.346924","-0.191406","-0.544312"
"D","1617445388.2199802","7","29","7","56","55","35","0.833313","-0.185974","-0.516052","-0.067993","-0.007634","-0.015267","-0.015267","8.019922","-2.452393","3.880762","-0.655566","-0.101685","-0.020337","-0.313428","-0.151929","-0.563452"
"D","1617445388.2098627","7","29","6","54","54","33","0.833374","-0.185852","-0.516052","-0.067871","-0.015267","-0.007634","-0.015267","8.025904","-2.379419","3.861621","-0.649585","-0.029907","-0.040674","-0.272754","-0.093311","-0.583789"
"D","1617445388.1998167","7","32","7","53","52","33","0.833374","-0.18573","-0.516113","-0.06781","-0.015267","-0.007634","-0.007634","8.041455","-2.304053","3.840088","-0.635229","0.043066","-0.062207","-0.224902","-0.033496","-0.596948"
"D","1617445388.189735","7","32","4","50","52","33","0.833374","-0.185608","-0.516174","-0.067749","-0.007634","0","0","8.064184","-2.223901","3.810181","-0.6125","0.122021","-0.092114","-0.166284","0.028711","-0.607715"
"D","1617445388.1790702","7","32","5","53","54","32","0.833313","-0.185486","-0.516296","-0.06781","-0.007634","0","0","8.103662","-2.150928","3.79104","-0.575415","0.191406","-0.108862","-0.113647","0.089722","-0.598145"
"D","1617445388.169335","7","31","6","53","51","31","0.833252","-0.185425","-0.516418","-0.06781","0","0","0","8.151514","-2.095898","3.788647","-0.52876","0.245239","-0.110059","-0.07417","0.142358","-0.57063"
"D","1617445388.1598053","7","33","5","56","51","31","0.833191","-0.185486","-0.516541","-0.067871","0","0","0","8.195776","-2.058814","3.808984","-0.485693","0.282324","-0.087329","-0.062207","0.189014","-0.532349"
"D","1617445388.1497052","7","27","6","52","53","32","0.83313","-0.185547","-0.516602","-0.067932","0","0","-0.007634","8.22688","-2.028906","3.828125","-0.455786","0.312231","-0.065796","-0.057422","0.226099","-0.503638"
"D","1617445388.1399205","7","31","8","50","53","33","0.833069","-0.185669","-0.516602","-0.067871","0","-0.007634","-0.007634","8.262769","-2.024121","3.83291","-0.418701","0.319409","-0.059814","-0.043066","0.238062","-0.470142"
"D","1617445388.1297688","7","31","7","54","54","28","0.833069","-0.185852","-0.516602","-0.067749","0","-0.007634","-0.015267","8.295069","-2.045654","3.822144","-0.386401","0.302661","-0.069385","-0.026318","0.221313","-0.441431"
"D","1617445388.1197577","7","31","3","54","51","33","0.833069","-0.186035","-0.516602","-0.067566","0","-0.007634","-0.015267","8.328565","-2.092309","3.801807","-0.352905","0.260791","-0.088525","-0.007178","0.178247","-0.410327"
"D","1617445388.109763","7","33","5","52","51","31","0.833008","-0.18634","-0.516541","-0.067322","0","0","-0.022901","8.340528","-2.147339","3.770703","-0.33855","0.212939","-0.118433","0.008374","0.123218","-0.397168"
"D","1617445388.0997016","7","33","6","53","54","33","0.833008","-0.186646","-0.516541","-0.067017","0","0","-0.022901","8.344116","-2.196387","3.7396","-0.333765","0.172266","-0.14834","0.022729","0.07417","-0.395972"
"D","1617445388.0897343","7","32","1","31","51","33","0.832947","-0.186829","-0.516541","-0.066711","-0.007634","0.007634","-0.022901","8.345312","-2.226294","3.720459","-0.331372","0.14834","-0.165088","0.031104","0.046655","-0.394775"
"D","1617445388.079913","7","29","5","54","52","32","0.832886","-0.187012","-0.516663","-0.066345","-0.007634","0.015267","-0.022901","8.350098","-2.243042","3.708496","-0.326587","0.137573","-0.173462","0.037085","0.033496","-0.391187"
"D","1617445388.0697324","7","31","4","50","54","29","0.832764","-0.187073","-0.516846","-0.06604","-0.007634","0.015267","-0.022901","8.35249","-2.256201","3.696533","-0.325391","0.128003","-0.18064","0.040674","0.021533","-0.38999"
"D","1617445388.059881","7","28","3","54","52","32","0.832642","-0.187195","-0.51709","-0.065674","-0.007634","0.015267","-0.015267","8.362061","-2.281323","3.675","-0.317017","0.107666","-0.197388","0.052637","-0.002393","-0.384009"
"D","1617445388.0497","7","29","3","53","52","32","0.83252","-0.187317","-0.517273","-0.065369","-0.007634","0.015267","-0.015267","8.368042","-2.308838","3.6427","-0.312231","0.084937","-0.224902","0.070581","-0.033496","-0.385205"
"D","1617445388.039888","7","33","6","51","52","31","0.832397","-0.187439","-0.517456","-0.065125","0","0.007634","-0.015267","8.375219","-2.34353","3.60083","-0.30625","0.053833","-0.261987","0.095703","-0.075366","-0.387598"
"D","1617445388.0297472","7","35","6","51","51","29","0.832275","-0.187622","-0.517578","-0.06488","0","0.007634","-0.015267","8.374023","-2.37583","3.550586","-0.307446","0.026318","-0.308643","0.12561","-0.118433","-0.399561"
"D","1617445388.0198247","7","31","5","54","53","35","0.832214","-0.187805","-0.517639","-0.064697","0","0","-0.015267","8.359668","-2.406934","3.506323","-0.321802","0","-0.349316","0.144751","-0.160303","-0.42229"
"D","1617445388.0098555","7","29","4","52","52","31","0.832214","-0.187927","-0.517578","-0.064575","0","0","-0.015267","8.34292","-2.430859","3.48479","-0.337354","-0.020337","-0.37085","0.149536","-0.187817","-0.439038"
"D","1617445387.9998505","7","32","5","51","52","31","0.832275","-0.188049","-0.517517","-0.064514","0","0","-0.015267","8.326172","-2.428467","3.502734","-0.352905","-0.014355","-0.354102","0.130396","-0.178247","-0.447412"
"D","1617445387.9897852","7","32","5","52","54","32","0.832336","-0.188049","-0.517456","-0.064453","-0.007634","-0.007634","-0.007634","8.293872","-2.411719","3.54939","-0.385205","0.001196","-0.309839","0.08374","-0.149536","-0.462964"
"D","1617445387.9800143","7","29","5","51","51","30","0.832458","-0.187927","-0.517273","-0.064392","-0.007634","-0.015267","-0.007634","8.247217","-2.378223","3.615185","-0.429468","0.034692","-0.247632","0.021533","-0.099292","-0.485693"
"D","1617445387.9699736","7","33","1","40","51","33","0.832581","-0.187866","-0.51709","-0.064331","-0.007634","-0.015267","-0.007634","8.201757","-2.345923","3.686963","-0.472534","0.066992","-0.179443","-0.045459","-0.046655","-0.504834"
"D","1617445387.959762","7","31","4","52","56","33","0.832764","-0.187744","-0.516846","-0.06427","-0.007634","-0.022901","-0.007634","8.167066","-2.327979","3.755151","-0.504834","0.084937","-0.117236","-0.10647","-0.00957","-0.513208"
"D","1617445387.9500492","7","31","8","50","54","31","0.832947","-0.187744","-0.516541","-0.06427","0","-0.030534","-0.007634","8.118017","-2.33396","3.814966","-0.550293","0.080151","-0.063403","-0.174658","0.001196","-0.531152"
"D","1617445387.9397564","7","31","4","51","52","32","0.83313","-0.187866","-0.516174","-0.064331","0.007634","-0.038168","-0.007634","8.061792","-2.368652","3.830518","-0.60293","0.047852","-0.055029","-0.215332","-0.028711","-0.565845"
"D","1617445387.9297774","7","31","5","54","57","19","0.833313","-0.18811","-0.515808","-0.064453","0.007634","-0.038168","-0.007634","8.035474","-2.420093","3.819751","-0.625659","0","-0.071777","-0.227295","-0.081348","-0.581396"
"D","1617445387.9199066","7","31","3","52","48","30","0.833496","-0.188171","-0.515442","-0.064697","0","-0.030534","0","8.0594","-2.436841","3.808984","-0.599341","-0.015552","-0.088525","-0.205762","-0.099292","-0.559863"
"D","1617445387.9098568","7","29","4","52","50","31","0.833618","-0.188171","-0.515259","-0.06488","-0.007634","-0.022901","0","8.102466","-2.415308","3.799414","-0.555078","0.003589","-0.102881","-0.168677","-0.082544","-0.531152"
"D","1617445387.899851","7","31","5","54","54","44","0.83374","-0.187927","-0.515137","-0.065002","-0.015267","-0.015267","0","8.144336","-2.359082","3.782666","-0.512012","0.055029","-0.123218","-0.11604","-0.039478","-0.514404"
"D","1617445387.8898938","7","33","4","54","52","32","0.833801","-0.187622","-0.515137","-0.065063","-0.015267","-0.007634","0.007634","8.183813","-2.316016","3.755151","-0.47373","0.092114","-0.153125","-0.062207","-0.013159","-0.501245"
"D","1617445387.879988","7","32","6","50","53","32","0.833801","-0.187378","-0.515198","-0.065063","-0.015267","0","0.007634","8.220899","-2.296875","3.720459","-0.436646","0.107666","-0.187817","-0.010767","-0.008374","-0.48689"
"D","1617445387.8698192","7","28","5","52","51","28","0.83374","-0.187195","-0.51532","-0.065186","-0.007634","0.007634","0.007634","8.262769","-2.294482","3.703711","-0.397168","0.105273","-0.203369","0.017944","-0.013159","-0.456982"
"D","1617445387.8599102","7","29","4","53","53","29","0.833679","-0.187012","-0.515503","-0.065308","-0.007634","0.007634","0.007634","8.307032","-2.28252","3.68457","-0.355298","0.112451","-0.221313","0.055029","-0.00957","-0.429468"
"D","1617445387.8498116","7","32","6","51","52","31","0.833557","-0.18689","-0.515747","-0.06543","-0.007634","0.007634","0.007634","8.326172","-2.271753","3.677392","-0.33855","0.119629","-0.223706","0.066992","-0.002393","-0.417505"
"D","1617445387.839821","7","31","5","52","56","29","0.833496","-0.186829","-0.515869","-0.065613","-0.007634","0","0.007634","8.314209","-2.252612","3.648682","-0.352905","0.135181","-0.251221","0.088525","0","-0.44502"
"D","1617445387.8300474","7","32","5","52","20","32","0.833435","-0.186646","-0.51593","-0.065735","-0.007634","0","0.007634","8.317798","-2.21792","3.631934","-0.350513","0.165088","-0.266772","0.111255","0.021533","-0.455786"
"D","1617445387.8199816","7","31","5","53","56","36","0.833496","-0.186462","-0.515991","-0.065857","-0.015267","0","0.007634","8.336939","-2.174854","3.631934","-0.332568","0.204565","-0.267969","0.132788","0.058618","-0.449805"
"D","1617445387.8098235","7","31","8","48","55","31","0.833496","-0.186157","-0.515991","-0.065979","-0.015267","0","0.007634","8.340528","-2.118628","3.646289","-0.328979","0.25481","-0.25481","0.13877","0.111255","-0.453394"
"D","1617445387.800043","7","33","3","52","50","31","0.833557","-0.185913","-0.516052","-0.06604","-0.015267","0","0.007634","8.341723","-2.054028","3.671411","-0.328979","0.314624","-0.230884","0.136377","0.175854","-0.458179"
"D","1617445387.7899482","7","28","5","52","52","29","0.833618","-0.185669","-0.516052","-0.066101","-0.007634","0","0.007634","8.348902","-2.025317","3.703711","-0.322998","0.33855","-0.200977","0.120825","0.209351","-0.447412"
"D","1617445387.7798042","7","7","5","52","51","30","0.833618","-0.185608","-0.515991","-0.066162","0","-0.007634","0.007634","8.353686","-2.031299","3.737207","-0.317017","0.331372","-0.168677","0.094507","0.215332","-0.427075"
"D","1617445387.7700222","7","28","5","52","57","31","0.833618","-0.18573","-0.51593","-0.066223","0.007634","-0.007634","0","8.341723","-2.054028","3.757544","-0.328979","0.309839","-0.14834","0.065796","0.202173","-0.424683"
"D","1617445387.760162","7","28","5","50","52","30","0.833679","-0.185974","-0.515747","-0.066345","0.015267","-0.015267","0","8.307032","-2.103076","3.761133","-0.361279","0.26438","-0.147144","0.035889","0.15791","-0.441431"
"D","1617445387.7497938","7","29","5","51","48","29","0.833679","-0.18634","-0.515564","-0.066467","0.015267","-0.022901","-0.007634","8.274732","-2.155713","3.755151","-0.392383","0.216528","-0.153125","0.011963","0.108862","-0.459375"
"D","1617445387.7401557","7","31","8","38","53","29","0.833801","-0.186707","-0.515259","-0.06665","0.015267","-0.022901","-0.007634","8.241236","-2.197583","3.732422","-0.42229","0.179443","-0.18064","0.010767","0.062207","-0.488086"
"D","1617445387.7299123","7","33","1","51","52","29","0.833862","-0.186951","-0.515015","-0.066772","0.007634","-0.022901","-0.007634","8.205347","-2.213135","3.706104","-0.455786","0.16748","-0.209351","0.015552","0.037085","-0.526367"
"D","1617445387.7200828","7","29","7","53","51","32","0.834045","-0.187012","-0.514709","-0.066895","0","-0.015267","0","8.193384","-2.209546","3.690552","-0.465356","0.172266","-0.230884","0.029907","0.0323","-0.544312"
"D","1617445387.7099154","7","33","6","51","50","31","0.834167","-0.186951","-0.514526","-0.066956","-0.015267","-0.015267","0","8.20415","-2.188013","3.708496","-0.453394","0.192603","-0.216528","0.028711","0.057422","-0.533545"
"D","1617445387.7001383","7","37","7","51","52","31","0.834229","-0.186829","-0.514404","-0.066895","-0.015267","-0.007634","0","8.212524","-2.16648","3.721655","-0.442627","0.212939","-0.206958","0.0323","0.081348","-0.525171"
"D","1617445387.6900396","7","31","5","53","54","31","0.834351","-0.186707","-0.514343","-0.066772","-0.015267","-0.007634","0","8.207739","-2.164087","3.755151","-0.447412","0.215332","-0.175854","0.004785","0.094507","-0.517993"
"D","1617445387.679885","7","29","5","54","52","29","0.834473","-0.186584","-0.514221","-0.06665","-0.015267","-0.007634","-0.007634","8.198169","-2.178442","3.787451","-0.455786","0.200977","-0.147144","-0.026318","0.092114","-0.509619"
"D","1617445387.6701236","7","30","5","52","51","27","0.834534","-0.186584","-0.514099","-0.066528","-0.007634","-0.015267","-0.007634","8.188599","-2.223901","3.835303","-0.462964","0.156714","-0.101685","-0.081348","0.068188","-0.48689"
"D","1617445387.6600835","7","31","5","54","49","31","0.834656","-0.186707","-0.513855","-0.066467","0","-0.022901","-0.015267","8.157495","-2.286108","3.879565","-0.491675","0.098096","-0.061011","-0.145947","0.026318","-0.482104"
"D","1617445387.6498852","7","29","4","50","55","33","0.834778","-0.186951","-0.513611","-0.066406","0.007634","-0.022901","-0.015267","8.113233","-2.356689","3.898706","-0.533545","0.033496","-0.045459","-0.198584","-0.028711","-0.49646"
"D","1617445387.640136","7","28","5","51","57","36","0.8349","-0.187195","-0.513306","-0.066406","0.007634","-0.022901","-0.015267","8.0917","-2.414111","3.91665","-0.551489","-0.017944","-0.031104","-0.234473","-0.072974","-0.494067"
"D","1617445387.6300998","7","32","7","53","53","32","0.834961","-0.187317","-0.513184","-0.066406","0","-0.007634","-0.015267","8.098877","-2.42727","3.932202","-0.543115","-0.028711","-0.017944","-0.245239","-0.076563","-0.478516"
"D","1617445387.620109","7","29","3","52","53","36","0.8349","-0.187317","-0.513245","-0.066345","-0.015267","0.007634","-0.007634","8.135962","-2.406934","3.94895","-0.50603","-0.008374","0","-0.236865","-0.047852","-0.443823"
"D","1617445387.6100037","7","31","8","53","50","33","0.834778","-0.187134","-0.513611","-0.066162","-0.022901","0.030534","-0.007634","8.193384","-2.368652","3.94895","-0.452197","0.026318","0.004785","-0.204565","-0.010767","-0.403149"
"D","1617445387.5999606","7","31","5","53","56","31","0.834473","-0.186829","-0.514221","-0.065918","-0.030534","0.045802","0","8.274732","-2.327979","3.932202","-0.376831","0.062207","0","-0.154321","0.026318","-0.346924"
"D","1617445387.5898895","7","30","7","55","51","33","0.834045","-0.186462","-0.515076","-0.065613","-0.030534","0.053435","0","8.334546","-2.283716","3.884351","-0.324194","0.101685","-0.033496","-0.089722","0.053833","-0.324194"
"D","1617445387.580071","7","31","4","53","52","31","0.833557","-0.186096","-0.516052","-0.065308","-0.030534","0.061069","0","8.390772","-2.25022","3.829321","-0.277539","0.129199","-0.071777","-0.027515","0.068188","-0.305054"
"D","1617445387.570029","7","33","5","53","52","35","0.833069","-0.185852","-0.516968","-0.065002","-0.022901","0.061069","0.007634","8.442212","-2.238257","3.762329","-0.235669","0.137573","-0.122021","0.034692","0.061011","-0.289502"
"D","1617445387.5600543","7","29","5","52","51","29","0.832581","-0.185547","-0.517883","-0.064758","-0.022901","0.053435","0.007634","8.464941","-2.228687","3.706104","-0.221313","0.141162","-0.161499","0.076563","0.050244","-0.293091"
"D","1617445387.549904","7","31","3","53","42","32","0.832214","-0.185364","-0.518555","-0.064575","-0.015267","0.038168","0","8.470922","-2.222705","3.676196","-0.221313","0.143555","-0.179443","0.092114","0.045459","-0.301465"
"D","1617445387.5400631","7","32","4","50","53","33","0.831848","-0.185242","-0.519165","-0.064331","-0.007634","0.038168","0","8.470922","-2.222705","3.669019","-0.226099","0.142358","-0.174658","0.086133","0.045459","-0.302661"
"D","1617445387.5299728","7","29","5","52","55","35","0.831604","-0.185242","-0.519653","-0.064148","-0.007634","0.030534","-0.007634","8.466138","-2.244238","3.669019","-0.235669","0.120825","-0.165088","0.068188","0.028711","-0.302661"
"D","1617445387.519921","7","33","5","52","52","33","0.831299","-0.185364","-0.52002","-0.064026","0","0.030534","-0.007634","8.462549","-2.284912","3.672607","-0.242847","0.082544","-0.151929","0.04187","-0.001196","-0.294287"
"D","1617445387.5102682","7","31","7","50","53","32","0.831055","-0.185547","-0.520447","-0.063904","0.007634","0.030534","-0.007634","8.449389","-2.305249","3.678589","-0.259595","0.0646","-0.137573","0.017944","-0.014355","-0.299072"
"D","1617445387.5008311","7","31","6","51","50","29","0.83075","-0.18573","-0.520813","-0.063843","0.007634","0.030534","-0.007634","8.433838","-2.312427","3.683374","-0.278735","0.059814","-0.123218","-0.003589","-0.014355","-0.309839"
"D","1617445387.4899387","7","27","4","52","50","31","0.830505","-0.185913","-0.52124","-0.063782","0.007634","0.030534","-0.007634","8.419482","-2.308838","3.690552","-0.29668","0.065796","-0.10647","-0.022729","-0.004785","-0.320605"
"D","1617445387.4807243","7","32","6","54","51","29","0.8302","-0.186035","-0.521606","-0.063721","0","0.022901","-0.007634","8.393164","-2.290894","3.683374","-0.326587","0.08374","-0.105273","-0.0323","0.008374","-0.350513"
"D","1617445387.4699876","7","32","6","52","52","29","0.829956","-0.186157","-0.521973","-0.063538","-0.007634","0.022901","-0.007634","8.366846","-2.247827","3.682178","-0.355298","0.129199","-0.098096","-0.037085","0.050244","-0.385205"
"D","1617445387.4600985","7","33","7","50","51","33","0.829773","-0.186218","-0.522278","-0.063416","0","0.022901","-0.007634","8.341723","-2.226294","3.663037","-0.382812","0.151929","-0.110059","-0.0323","0.0646","-0.419897"
"D","1617445387.450101","7","29","5","51","53","32","0.829529","-0.186401","-0.522644","-0.063232","0","0.022901","-0.015267","8.330957","-2.234668","3.628345","-0.397168","0.147144","-0.136377","-0.016748","0.047852","-0.441431"
"D","1617445387.4398918","7","29","33","53","50","31","0.829224","-0.186707","-0.52301","-0.063049","0.015267","0.022901","-0.015267","8.31062","-2.26936","3.587671","-0.419897","0.118433","-0.16748","-0.00957","0.007178","-0.466553"
"D","1617445387.4307144","7","32","5","52","52","31","0.828979","-0.187134","-0.523254","-0.062927","0.022901","0.015267","-0.015267","8.279516","-2.318408","3.529053","-0.452197","0.076563","-0.217725","0.004785","-0.052637","-0.504834"
"D","1617445387.420004","7","31","6","53","52","31","0.828735","-0.187622","-0.523499","-0.062927","0.022901","0.015267","-0.015267","8.240039","-2.350708","3.471631","-0.494067","0.050244","-0.266772","0.020337","-0.099292","-0.553882"
"D","1617445387.4100378","7","31","4","52","52","35","0.828491","-0.18811","-0.523682","-0.062927","0.022901","0.015267","-0.015267","8.212524","-2.350708","3.429761","-0.522778","0.057422","-0.300269","0.038281","-0.108862","-0.593359"
"D","1617445387.3998768","7","29","6","52","51","33","0.828308","-0.188538","-0.523865","-0.062988","0.022901","0.015267","-0.007634","8.202954","-2.347119","3.386694","-0.533545","0.066992","-0.337354","0.068188","-0.114844","-0.619678"
"D","1617445387.0008235","7","33","7","51","52","30","0.824707","-0.188232","-0.529541","-0.063232","0.015267","-0.015267","-0.022901","8.469727","-2.198779","3.411816","-0.322998","0.186621","-0.197388","0.084937","0.065796","-0.407935"
"D","1617445386.9909022","7","31","5","56","52","31","0.824768","-0.188721","-0.529236","-0.063171","0.022901","-0.022901","-0.022901","8.406323","-2.243042","3.411816","-0.381616","0.151929","-0.198584","0.049048","0.027515","-0.452197"
"D","1617445386.9807992","7","29","4","50","52","31","0.82489","-0.18927","-0.528931","-0.063171","0.022901","-0.022901","-0.022901","8.354883","-2.295679","3.414209","-0.430664","0.108862","-0.19978","0.015552","-0.016748","-0.485693"
"D","1617445386.970845","7","32","5","53","51","32","0.825012","-0.189758","-0.528564","-0.063171","0.022901","-0.022901","-0.022901","8.31062","-2.335156","3.402246","-0.471338","0.077759","-0.215332","0.001196","-0.055029","-0.520386"
"D","1617445386.9610794","7","27","7","53","50","28","0.825073","-0.190186","-0.528259","-0.063232","0.015267","-0.022901","-0.015267","8.269946","-2.36626","3.381909","-0.508423","0.053833","-0.239258","-0.001196","-0.089722","-0.556274"
"D","1617445386.9508984","7","29","5","52","51","28","0.825195","-0.19043","-0.528015","-0.063232","0.007634","-0.015267","-0.015267","8.231665","-2.384204","3.371143","-0.544312","0.040674","-0.253613","-0.008374","-0.111255","-0.590967"
"D","1617445386.9410255","7","29","3","50","45","28","0.825317","-0.190552","-0.527771","-0.063232","-0.007634","-0.015267","-0.007634","8.21731","-2.387793","3.363965","-0.555078","0.039478","-0.26438","-0.004785","-0.117236","-0.604126"
"D","1617445386.931069","7","28","5","57","53","29","0.825378","-0.190491","-0.527649","-0.063171","-0.007634","-0.007634","-0.007634","8.216113","-2.372241","3.365161","-0.555078","0.055029","-0.265576","0","-0.104077","-0.607715"
"D","1617445386.9208426","7","28","7","52","53","31","0.825439","-0.190369","-0.527649","-0.063171","-0.015267","0","-0.007634","8.201757","-2.336353","3.374732","-0.569434","0.089722","-0.257202","-0.002393","-0.069385","-0.626855"
"D","1617445386.910795","7","31","1","54","52","31","0.825439","-0.190247","-0.527649","-0.06311","-0.007634","0","0","8.190991","-2.316016","3.395068","-0.5802","0.108862","-0.236865","-0.017944","-0.045459","-0.634033"
"D","1617445386.9009182","7","29","3","51","52","31","0.825439","-0.190125","-0.527771","-0.063049","-0.007634","0","0","8.182617","-2.304053","3.411816","-0.58977","0.119629","-0.220117","-0.033496","-0.029907","-0.638818"
"D","1617445386.8909044","7","30","7","53","51","31","0.825378","-0.190063","-0.527893","-0.06311","0","0","0","8.158691","-2.298071","3.424976","-0.616089","0.123218","-0.204565","-0.056226","-0.022729","-0.656763"
"D","1617445386.8810098","7","31","5","54","52","32","0.825317","-0.190002","-0.527954","-0.063232","-0.007634","0","0","8.134766","-2.272949","3.457275","-0.640015","0.145947","-0.171069","-0.088525","0.007178","-0.672314"
"D","1617445386.8709545","7","25","5","49","49","30","0.825256","-0.18988","-0.528076","-0.063232","-0.007634","0","0","8.121607","-2.249023","3.471631","-0.65437","0.16748","-0.155518","-0.100488","0.031104","-0.684277"
"D","1617445386.8611512","7","31","4","52","48","31","0.825195","-0.189819","-0.528198","-0.063232","-0.007634","0","0","8.109644","-2.253808","3.446509","-0.667529","0.161499","-0.178247","-0.088525","0.015552","-0.703418"
"D","1617445386.8509488","7","29","5","50","50","28","0.825195","-0.189758","-0.52832","-0.063171","-0.015267","0.007634","0","8.119214","-2.268164","3.415405","-0.660352","0.145947","-0.208154","-0.0646","-0.007178","-0.703418"
"D","1617445386.8409057","7","32","4","52","48","30","0.825073","-0.189636","-0.528503","-0.06311","-0.015267","0.015267","0","8.190991","-2.288501","3.40105","-0.58977","0.124414","-0.218921","-0.031104","-0.025122","-0.638818"
"D","1617445386.830985","7","28","4","50","52","30","0.82489","-0.189453","-0.52887","-0.062988","-0.022901","0.022901","0","8.277124","-2.294482","3.398657","-0.507227","0.114844","-0.215332","-0.001196","-0.023926","-0.562256"
"D","1617445386.8208275","7","32","3","52","53","32","0.824707","-0.189209","-0.529236","-0.062805","-0.022901","0.022901","0","8.324976","-2.288501","3.380713","-0.461768","0.118433","-0.227295","0.028711","-0.021533","-0.526367"
"D","1617445386.8109329","7","33","5","52","50","31","0.824585","-0.188904","-0.529602","-0.062561","-0.022901","0.022901","0","8.368042","-2.272949","3.363965","-0.42229","0.130396","-0.239258","0.059814","-0.010767","-0.497656"
"D","1617445386.8009677","7","32","5","54","54","12","0.824463","-0.188599","-0.529968","-0.062439","-0.022901","0.015267","0","8.406323","-2.258594","3.337646","-0.387598","0.139966","-0.260791","0.096899","-0.005981","-0.477319"
"D","1617445386.790873","7","31","0","51","53","31","0.824341","-0.188293","-0.530273","-0.062317","-0.022901","0.015267","0.007634","8.448194","-2.255005","3.322095","-0.349316","0.13877","-0.271558","0.122021","-0.007178","-0.446216"
"D","1617445386.7808754","7","33","8","54","52","32","0.824219","-0.188049","-0.530518","-0.062256","-0.015267","0.007634","0.007634","8.476904","-2.257397","3.31731","-0.321802","0.132788","-0.272754","0.133984","-0.010767","-0.421094"
"D","1617445386.7712452","7","33","5","54","55","28","0.824219","-0.187866","-0.530579","-0.062256","-0.007634","0","0.007634","8.472119","-2.262183","3.313721","-0.327783","0.124414","-0.276343","0.131592","-0.020337","-0.425879"
"D","1617445386.7611935","7","29","5","52","54","31","0.824219","-0.187683","-0.530579","-0.062317","-0.007634","-0.015267","0.007634","8.457764","-2.25979","3.295776","-0.342139","0.123218","-0.295483","0.141162","-0.029907","-0.44502"
"D","1617445386.7508862","7","29","0","49","50","26","0.824402","-0.1875","-0.530396","-0.0625","-0.015267","-0.015267","0.007634","8.439819","-2.25022","3.279028","-0.360083","0.129199","-0.318213","0.154321","-0.034692","-0.471338"
"D","1617445386.7409248","7","32","5","52","54","30","0.824524","-0.187195","-0.530212","-0.062622","-0.015267","-0.015267","0.007634","8.436231","-2.226294","3.273047","-0.361279","0.147144","-0.328979","0.168677","-0.021533","-0.480908"
"D","1617445386.7309456","7","29","5","54","52","29","0.824707","-0.186829","-0.53009","-0.062744","-0.022901","-0.007634","0.015267","8.457764","-2.188013","3.298169","-0.339746","0.179443","-0.309839","0.171069","0.016748","-0.461768"
"D","1617445386.720923","7","32","3","52","54","33","0.82489","-0.186401","-0.529968","-0.062866","-0.022901","-0.007634","0.015267","8.490064","-2.131787","3.355591","-0.307446","0.228491","-0.258398","0.155518","0.084937","-0.425879"
"D","1617445386.7110083","7","29","5","51","52","31","0.825012","-0.185913","-0.529907","-0.062927","-0.022901","-0.007634","0.015267","8.496045","-2.085132","3.413013","-0.301465","0.266772","-0.204565","0.124414","0.141162","-0.409131"
"D","1617445386.7009144","7","27","4","53","53","31","0.825195","-0.185486","-0.529846","-0.062988","-0.022901","-0.015267","0.015267","8.497241","-2.071973","3.459668","-0.300269","0.272754","-0.163892","0.092114","0.162695","-0.394775"
"D","1617445386.69092","7","33","5","53","52","31","0.825317","-0.185181","-0.529724","-0.06311","-0.015267","-0.015267","0.015267","8.499634","-2.07915","3.495557","-0.297876","0.260791","-0.131592","0.061011","0.163892","-0.378027"
"D","1617445386.681135","7","32","4","50","50","29","0.825439","-0.184998","-0.529541","-0.063232","-0.015267","-0.015267","0.007634","8.499634","-2.093506","3.532642","-0.29668","0.242847","-0.099292","0.028711","0.159106","-0.360083"
"D","1617445386.6710508","7","33","5","52","51","32","0.825562","-0.184814","-0.529419","-0.063354","-0.015267","-0.022901","0.007634","8.488867","-2.100684","3.575708","-0.30625","0.23208","-0.061011","-0.00957","0.162695","-0.351709"
"D","1617445386.6610632","7","29","5","52","53","32","0.825745","-0.184631","-0.529175","-0.063354","-0.015267","-0.022901","0","8.460156","-2.105469","3.60083","-0.332568","0.224902","-0.04187","-0.039478","0.161499","-0.367261"
"D","1617445386.6510794","7","32","4","50","48","30","0.825928","-0.184448","-0.528992","-0.063293","-0.022901","-0.015267","0","8.444605","-2.105469","3.615185","-0.346924","0.223706","-0.0323","-0.055029","0.162695","-0.375635"
"D","1617445386.6411042","7","28","4","51","51","30","0.82605","-0.184265","-0.528931","-0.063171","-0.015267","-0.007634","-0.007634","8.444605","-2.11145","3.631934","-0.346924","0.216528","-0.019141","-0.068188","0.161499","-0.369653"
"D","1617445386.6309052","7","33","5","53","51","31","0.82605","-0.184204","-0.528931","-0.062988","-0.015267","0","-0.007634","8.444605","-2.130591","3.631934","-0.345728","0.198584","-0.019141","-0.072974","0.144751","-0.363672"
"D","1617445386.621225","7","29","4","54","48","28","0.825989","-0.184265","-0.528992","-0.062744","-0.007634","0","-0.015267","8.449389","-2.171265","3.6104","-0.340942","0.160303","-0.038281","-0.066992","0.101685","-0.35769"
"D","1617445386.610987","7","31","8","52","54","31","0.825928","-0.184387","-0.529114","-0.062622","0","0.007634","-0.007634","8.445801","-2.22749","3.570923","-0.345728","0.107666","-0.075366","-0.052637","0.039478","-0.363672"
"D","1617445386.6009247","7","29","4","52","51","32","0.825745","-0.184631","-0.529297","-0.0625","0.007634","0.007634","-0.007634","8.448194","-2.283716","3.545801","-0.343335","0.055029","-0.094507","-0.050244","-0.015552","-0.355298"
"D","1617445386.5912266","7","32","5","50","54","35","0.825562","-0.184875","-0.52948","-0.0625","0.007634","0.007634","-0.007634","8.439819","-2.313623","3.520679","-0.354102","0.028711","-0.113647","-0.046655","-0.047852","-0.366064"
"D","1617445386.581803","7","28","4","53","54","32","0.825439","-0.184998","-0.529602","-0.062439","0","0.007634","-0.007634","8.407519","-2.326782","3.487183","-0.386401","0.017944","-0.143555","-0.038281","-0.071777","-0.403149"
"D","1617445386.571813","7","32","4","52","54","31","0.825378","-0.185059","-0.529724","-0.062317","-0.007634","0","-0.007634","8.364453","-2.316016","3.450098","-0.430664","0.029907","-0.178247","-0.023926","-0.077759","-0.459375"
"D","1617445386.5616798","7","33","-1","51","52","31","0.825317","-0.184998","-0.529846","-0.062195","-0.015267","0.007634","-0.007634","8.353686","-2.289697","3.421387","-0.442627","0.056226","-0.204565","0","-0.0646","-0.485693"
"D","1617445386.551886","7","29","4","52","51","33","0.825256","-0.184875","-0.529968","-0.062073","-0.015267","0.007634","-0.007634","8.376416","-2.264575","3.404639","-0.419897","0.080151","-0.218921","0.028711","-0.045459","-0.476123"
"D","1617445386.541748","7","31","3","52","52","32","0.825195","-0.184753","-0.530151","-0.062012","-0.007634","0.015267","0","8.420679","-2.239453","3.423779","-0.378027","0.104077","-0.197388","0.035889","-0.011963","-0.436646"
"D","1617445386.531081","7","29","5","52","51","29","0.825073","-0.184692","-0.530396","-0.061951","-0.007634","0.007634","0","8.443408","-2.219116","3.446509","-0.35769","0.123218","-0.171069","0.028711","0.016748","-0.41272"
"D","1617445386.5217848","7","31","7","50","50","30","0.824951","-0.184631","-0.530518","-0.062012","0","0.007634","0","8.45896","-2.214331","3.470435","-0.343335","0.12561","-0.143555","0.011963","0.029907","-0.391187"
"D","1617445386.5110438","7","29","1","52","51","27","0.82489","-0.184692","-0.53064","-0.062073","0","0","0","8.466138","-2.216724","3.477612","-0.337354","0.123218","-0.133984","0.005981","0.0323","-0.381616"
"D","1617445386.5017471","7","29","5","52","44","29","0.824829","-0.184753","-0.530701","-0.062195","0","0","0","8.461352","-2.216724","3.474023","-0.343335","0.122021","-0.136377","0.004785","0.029907","-0.387598"
"D","1617445386.4917402","7","29","3","52","52","32","0.824768","-0.184753","-0.530762","-0.062317","0","0","0","8.464941","-2.205957","3.463257","-0.339746","0.131592","-0.144751","0.016748","0.035889","-0.388794"
"D","1617445386.481726","7","31","3","49","52","30","0.824707","-0.184753","-0.530884","-0.062439","-0.007634","0","0","8.488867","-2.184424","3.45249","-0.318213","0.151929","-0.154321","0.039478","0.052637","-0.378027"
"D","1617445386.4718018","7","32","4","52","53","32","0.824646","-0.184692","-0.531006","-0.0625","-0.007634","0","0","8.519971","-2.147339","3.438135","-0.288306","0.186621","-0.166284","0.072974","0.08374","-0.363672"
"D","1617445386.4617307","7","29","4","52","51","32","0.824585","-0.18457","-0.531128","-0.0625","-0.007634","0","0","8.55586","-2.10188","3.414209","-0.253613","0.229687","-0.189014","0.120825","0.118433","-0.351709"
"D","1617445386.45183","7","31","5","52","38","29","0.824524","-0.184448","-0.53125","-0.0625","-0.007634","0","0","8.589355","-2.070776","3.387891","-0.221313","0.258398","-0.212939","0.163892","0.13877","-0.33855"
"D","1617445386.4416945","7","31","8","56","52","31","0.824524","-0.184387","-0.53125","-0.0625","-0.007634","0","0","8.59773","-2.048047","3.366357","-0.212939","0.279932","-0.234473","0.192603","0.151929","-0.343335"
"D","1617445386.4318533","7","33","4","52","55","33","0.824524","-0.184387","-0.53125","-0.0625","0","0.007634","0","8.598926","-2.034888","3.362769","-0.211743","0.293091","-0.238062","0.19978","0.162695","-0.346924"
"D","1617445386.421743","7","32","5","53","52","29","0.824463","-0.184448","-0.531311","-0.062439","0","0.007634","0","8.619263","-2.043262","3.391479","-0.191406","0.285913","-0.208154","0.18064","0.168677","-0.31582"
"D","1617445386.4118323","7","28","3","50","48","30","0.824402","-0.18457","-0.531372","-0.062378","0","0","-0.007634","8.613281","-2.062402","3.408227","-0.197388","0.269165","-0.189014","0.156714","0.159106","-0.309839"
"D","1617445386.401735","7","28","5","51","51","30","0.824402","-0.184814","-0.531311","-0.062195","0","-0.007634","-0.015267","8.575","-2.097095","3.411816","-0.234473","0.240454","-0.184229","0.128003","0.131592","-0.334961"
"D","1617445386.391708","7","33","6","53","52","31","0.824463","-0.18512","-0.531189","-0.061951","0","-0.007634","-0.022901","8.535522","-2.135376","3.415405","-0.272754","0.210547","-0.181836","0.100488","0.100488","-0.361279"
"D","1617445386.3817115","7","31","7","54","54","32","0.824524","-0.185425","-0.531067","-0.061646","0","-0.007634","-0.030534","8.497241","-2.182031","3.411816","-0.308643","0.172266","-0.186621","0.077759","0.059814","-0.386401"
"D","1617445386.3719065","7","31","4","50","50","29","0.824585","-0.18573","-0.530884","-0.06134","0","-0.007634","-0.030534","8.478101","-2.238257","3.411816","-0.324194","0.124414","-0.187817","0.057422","0.013159","-0.38999"
"D","1617445386.3617952","7","29","4","53","51","32","0.824585","-0.186035","-0.530762","-0.060913","-0.007634","0","-0.030534","8.463745","-2.28252","3.416602","-0.336157","0.089722","-0.183032","0.038281","-0.016748","-0.38999"
"D","1617445386.3516722","7","29","5","54","52","31","0.824585","-0.186218","-0.530701","-0.060486","-0.007634","0","-0.030534","8.436231","-2.310034","3.415405","-0.361279","0.069385","-0.183032","0.021533","-0.038281","-0.407935"
"D","1617445386.3417296","7","33","0","48","48","30","0.824646","-0.186401","-0.530701","-0.060059","-0.015267","0.007634","-0.030534","8.401538","-2.330371","3.423779","-0.394775","0.057422","-0.174658","-0.002393","-0.050244","-0.43186"
