timestamp,user_id,flex_1,flex_2,flex_3,flex_4,flex_5,Qw,Qx,Qy,Qz,GYRx,GYRy,GYRz,ACCx,ACCy,ACCz,ACCx_body,ACCy_body,ACCz_body,ACCx_world,ACCy_world,ACCz_world,Alphabet
1616135306.2868986,1,38.0,-3.0,74.0,73.0,54.0,0.759766,0.224915,-0.609497,-0.026306,0.007634,-0.061069,0.068702,9.240137,3.93938,1.667627,0.278735,0.275146,0.139966,-0.124414,0.114844,0.379224,deaf
1616135306.2967703,1,39.0,-3.0,76.0,74.0,54.0,0.759094,0.224243,-0.610596,-0.025391,0.007634,-0.068702,0.068702,9.19707,3.771899,1.588672,0.223706,0.131592,0.081348,-0.050244,0.022729,0.265576,deaf
1616135306.306489,1,38.0,-1.0,76.0,76.0,55.0,0.758362,0.223694,-0.611755,-0.024414,0.022901,-0.068702,0.068702,9.138453,3.60083,1.48938,0.151929,-0.016748,0.004785,0.037085,-0.063403,0.132788,deaf
1616135306.3164823,1,40.0,-3.0,77.0,75.0,52.0,0.757568,0.223267,-0.612915,-0.023376,0.030534,-0.068702,0.061069,9.083423,3.440527,1.38291,0.084937,-0.154321,-0.076563,0.129199,-0.141162,0.00957,deaf
1616135306.326506,1,39.0,-3.0,76.0,74.0,55.0,0.756714,0.222961,-0.614075,-0.0224,0.038168,-0.068702,0.053435,9.02959,3.300561,1.284814,0.019141,-0.275146,-0.14834,0.209351,-0.206958,-0.104077,deaf
1616135306.3366804,1,39.0,-3.0,77.0,74.0,55.0,0.75592,0.222778,-0.615173,-0.021484,0.030534,-0.061069,0.045802,8.973364,3.198877,1.174756,-0.046655,-0.360083,-0.234473,0.295483,-0.236865,-0.206958,deaf
1616135306.3467245,1,38.0,-4.0,77.0,73.0,58.0,0.755188,0.222534,-0.616211,-0.020752,0.015267,-0.053435,0.038168,8.914746,3.103174,1.070679,-0.114844,-0.440234,-0.31582,0.375635,-0.261987,-0.308643,deaf
1616135306.3565743,1,39.0,-3.0,76.0,73.0,55.0,0.754578,0.222168,-0.617126,-0.020203,0.0,-0.045802,0.030534,8.851343,2.977563,0.963013,-0.186621,-0.551489,-0.404346,0.470142,-0.313428,-0.427075,deaf
1616135306.3666835,1,39.0,-2.0,75.0,74.0,54.0,0.754089,0.22168,-0.61792,-0.019775,-0.007634,-0.038168,0.022901,8.789136,2.853149,0.860132,-0.257202,-0.662744,-0.492871,0.564648,-0.366064,-0.543115,deaf
1616135306.3765085,1,37.0,-1.0,76.0,74.0,53.0,0.753723,0.221252,-0.61853,-0.019592,-0.015267,-0.022901,0.007634,8.735303,2.752661,0.776392,-0.317017,-0.752466,-0.564648,0.640015,-0.406738,-0.638818,deaf
1616135306.386833,1,38.0,-3.0,74.0,76.0,54.0,0.75354,0.220947,-0.618896,-0.019531,-0.022901,-0.007634,-0.007634,8.689844,2.686865,0.704614,-0.366064,-0.81228,-0.631641,0.707007,-0.425879,-0.714185,deaf
1616135306.3966513,1,36.0,-3.0,76.0,72.0,52.0,0.753479,0.220764,-0.619019,-0.019714,-0.022901,0.007634,-0.022901,8.643188,2.64021,0.651978,-0.41272,-0.858936,-0.681885,0.754858,-0.439038,-0.77998,deaf
1616135306.4065945,1,38.0,-3.0,76.0,74.0,55.0,0.75354,0.220764,-0.618896,-0.019958,-0.015267,0.022901,-0.038168,8.61687,2.652173,0.629248,-0.436646,-0.849365,-0.707007,0.77041,-0.415112,-0.80271,deaf
1616135306.416599,1,38.0,-23.0,76.0,74.0,56.0,0.753784,0.221008,-0.61853,-0.020325,-0.015267,0.038168,-0.053435,8.604907,2.708398,0.647192,-0.44502,-0.80271,-0.69624,0.745288,-0.373242,-0.79314,deaf
1616135306.4267151,1,37.0,0.0,77.0,74.0,55.0,0.754089,0.221436,-0.61792,-0.020874,-0.015267,0.045802,-0.061069,8.586963,2.800513,0.684277,-0.45459,-0.724951,-0.669922,0.698633,-0.307446,-0.772803,deaf
1616135306.436677,1,37.0,-3.0,76.0,74.0,57.0,0.754456,0.222046,-0.617249,-0.021484,-0.007634,0.045802,-0.068702,8.580981,2.935693,0.746484,-0.452197,-0.606519,-0.618481,0.620874,-0.216528,-0.721362,deaf
1616135306.446662,1,38.0,-4.0,77.0,74.0,55.0,0.754883,0.222778,-0.616455,-0.022217,-0.007634,0.045802,-0.076336,8.620459,3.068481,0.830225,-0.403149,-0.495264,-0.5479,0.53833,-0.151929,-0.628052,deaf
1616135306.4566622,1,38.0,-2.0,74.0,75.0,54.0,0.75531,0.223633,-0.615601,-0.022888,0.0,0.045802,-0.076336,8.680273,3.223999,0.925928,-0.332568,-0.362476,-0.465356,0.443823,-0.077759,-0.503638,deaf
1616135306.4667635,1,38.0,-2.0,74.0,73.0,56.0,0.755737,0.224609,-0.614746,-0.02356,0.007634,0.045802,-0.076336,8.75205,3.395068,1.016846,-0.250024,-0.215332,-0.387598,0.354102,0.004785,-0.363672,deaf
1616135306.4765365,1,38.0,-1.0,76.0,73.0,57.0,0.756165,0.225525,-0.613831,-0.024231,0.007634,0.045802,-0.076336,8.825025,3.569726,1.110156,-0.165088,-0.063403,-0.307446,0.263184,0.089722,-0.218921,deaf
1616135306.4863863,1,39.0,-3.0,74.0,75.0,57.0,0.756592,0.226379,-0.612915,-0.024902,0.0,0.045802,-0.068702,8.907568,3.72644,1.197485,-0.070581,0.069385,-0.234473,0.185425,0.156714,-0.072974,deaf
1616135306.4964554,1,38.0,-1.0,76.0,74.0,57.0,0.757019,0.227051,-0.612061,-0.025452,0.0,0.045802,-0.053435,8.978149,3.859229,1.275244,0.00957,0.184229,-0.169873,0.117236,0.214136,0.052637,deaf
1616135306.5064154,1,38.0,-2.0,74.0,73.0,56.0,0.757507,0.227661,-0.611328,-0.025879,0.0,0.038168,-0.045802,9.059497,3.988428,1.372144,0.098096,0.297876,-0.087329,0.034692,0.261987,0.187817,deaf
1616135306.5164914,1,38.0,-1.0,73.0,78.0,56.0,0.757874,0.228088,-0.610596,-0.026245,-0.007634,0.038168,-0.030534,9.148023,4.091309,1.461865,0.194995,0.388794,-0.00957,-0.033496,0.288306,0.322998,deaf
1616135306.5266745,1,38.0,-1.0,75.0,72.0,54.0,0.758301,0.228333,-0.610046,-0.026489,-0.007634,0.030534,-0.022901,9.232959,4.157104,1.55398,0.283521,0.446216,0.069385,-0.099292,0.285913,0.437842,deaf
1616135306.536472,1,38.0,0.0,76.0,76.0,53.0,0.758606,0.228516,-0.609558,-0.026611,0.0,0.022901,-0.007634,9.298755,4.204956,1.642505,0.354102,0.489282,0.14834,-0.165088,0.277539,0.531152,deaf
1616135306.5463803,1,38.0,-4.0,77.0,74.0,58.0,0.758789,0.228638,-0.609253,-0.02655,0.007634,0.007634,0.0,9.346606,4.249219,1.73103,0.404346,0.531152,0.230884,-0.239258,0.272754,0.605322,deaf
1616135306.5564322,1,38.0,0.0,77.0,75.0,55.0,0.75885,0.22876,-0.609192,-0.026428,0.007634,-0.007634,0.007634,9.407618,4.305444,1.821948,0.46416,0.587378,0.320605,-0.320605,0.275146,0.695044,deaf
1616135306.5664728,1,38.0,-13.0,74.0,74.0,56.0,0.758728,0.228882,-0.609314,-0.026245,0.015267,-0.022901,0.015267,9.499731,4.354492,1.91167,0.556274,0.636426,0.415112,-0.398364,0.259595,0.81228,deaf
1616135306.5763848,1,37.0,-2.0,76.0,74.0,55.0,0.758545,0.228821,-0.609558,-0.02594,0.015267,-0.030534,0.030534,9.566724,4.372437,1.978662,0.619678,0.660352,0.48689,-0.455786,0.239258,0.888843,deaf
1616135306.5866818,1,39.0,-2.0,76.0,74.0,57.0,0.75824,0.228699,-0.609985,-0.025513,0.015267,-0.045802,0.038168,9.607397,4.392774,2.020532,0.655566,0.687866,0.53833,-0.502441,0.235669,0.939087,deaf
1616135306.5963883,1,40.0,-2.0,76.0,74.0,56.0,0.757812,0.228394,-0.610657,-0.025024,0.007634,-0.061069,0.053435,9.655249,4.450195,2.062402,0.69624,0.757251,0.593359,-0.562256,0.269165,1.009668,deaf
1616135306.6063824,1,39.0,0.0,77.0,74.0,54.0,0.757385,0.227783,-0.61145,-0.024597,-0.007634,-0.068702,0.068702,9.736597,4.481299,2.076758,0.769214,0.805103,0.620874,-0.582593,0.281128,1.096997,deaf
1616135306.6166587,1,38.0,-1.0,74.0,75.0,55.0,0.756897,0.226807,-0.612427,-0.02417,-0.022901,-0.076336,0.083969,9.837085,4.478906,2.06001,0.858936,0.823047,0.619678,-0.565845,0.272754,1.184326,deaf
1616135306.6264148,1,38.0,-1.0,79.0,75.0,56.0,0.756348,0.225464,-0.613647,-0.023621,-0.038168,-0.083969,0.099237,9.954321,4.470532,2.026514,0.96062,0.843384,0.60293,-0.532349,0.267969,1.280029,deaf
1616135306.636418,1,39.0,-3.0,73.0,75.0,55.0,0.755798,0.223694,-0.614929,-0.023071,-0.053435,-0.083969,0.114504,10.070361,4.450195,1.996606,1.061108,0.857739,0.588574,-0.501245,0.259595,1.37334,deaf
1616135306.6464863,1,38.0,-2.0,76.0,74.0,55.0,0.75531,0.22168,-0.616333,-0.022461,-0.068702,-0.091603,0.129771,10.152905,4.416699,1.981055,1.125708,0.862524,0.588574,-0.490479,0.250024,1.433154,deaf
1616135306.6563911,1,39.0,-17.0,75.0,74.0,56.0,0.754822,0.21936,-0.617798,-0.021667,-0.076336,-0.091603,0.152672,10.209131,4.387988,1.981055,1.161597,0.879272,0.604126,-0.504834,0.256006,1.471436,deaf
1616135306.6665184,1,38.0,-2.0,76.0,73.0,53.0,0.754272,0.216858,-0.619324,-0.020813,-0.076336,-0.10687,0.167939,10.205542,4.386792,1.970288,1.137671,0.927124,0.610107,-0.531152,0.313428,1.464258,deaf
1616135306.6764147,1,38.0,-4.0,74.0,75.0,55.0,0.75354,0.214172,-0.621216,-0.019958,-0.083969,-0.122137,0.183206,10.167261,4.389184,1.957129,1.075464,0.982153,0.619678,-0.571826,0.387598,1.423584,deaf
1616135306.686417,1,38.0,-2.0,74.0,73.0,53.0,0.752563,0.211365,-0.623413,-0.018982,-0.083969,-0.152672,0.198473,10.175634,4.396362,1.923633,1.058716,1.045557,0.616089,-0.593359,0.460571,1.423584,deaf
1616135306.6964135,1,38.0,-3.0,76.0,73.0,57.0,0.751221,0.208496,-0.625977,-0.017883,-0.068702,-0.183206,0.21374,10.26416,4.420288,1.890137,1.119727,1.130493,0.62207,-0.6125,0.527563,1.503735,deaf
1616135306.7064054,1,39.0,-3.0,76.0,72.0,53.0,0.749634,0.205627,-0.628906,-0.016602,-0.061069,-0.198473,0.221374,10.399341,4.484888,1.856641,1.225,1.258496,0.636426,-0.642407,0.620874,1.640112,deaf
1616135306.7165186,1,38.0,-4.0,74.0,75.0,53.0,0.747803,0.202759,-0.631958,-0.015198,-0.053435,-0.21374,0.236641,10.523755,4.569824,1.804004,1.320703,1.409229,0.637622,-0.669922,0.742895,1.769312,deaf
1616135306.726549,1,38.0,0.0,75.0,74.0,54.0,0.745728,0.199829,-0.635376,-0.013611,-0.045802,-0.236641,0.259542,10.62544,4.695435,1.752563,1.391284,1.604224,0.648389,-0.724951,0.911572,1.88894,deaf
1616135306.736451,1,37.0,-1.0,74.0,72.0,55.0,0.743408,0.196777,-0.639099,-0.01178,-0.045802,-0.267176,0.290076,10.707983,4.821045,1.71189,1.440332,1.8052,0.675903,-0.803906,1.088623,1.988232,deaf
1616135306.7465358,1,39.0,-3.0,78.0,74.0,53.0,0.740845,0.193359,-0.643127,-0.009705,-0.045802,-0.290076,0.328244,10.768994,4.950244,1.69873,1.46665,2.019336,0.73811,-0.925928,1.278833,2.067188,deaf
1616135306.7563756,1,38.0,30.0,77.0,75.0,55.0,0.738098,0.18927,-0.647522,-0.007263,-0.068702,-0.305344,0.381679,10.77019,5.039966,1.699927,1.429565,2.209546,0.819458,-1.071875,1.463062,2.073169,deaf
1616135306.766434,1,35.0,-3.0,75.0,75.0,56.0,0.735229,0.184265,-0.652283,-0.004456,-0.091603,-0.328244,0.450382,10.673291,5.068677,1.681982,1.2896,2.355493,0.88645,-1.209448,1.641309,1.958325,deaf
1616135306.7764535,1,38.0,-1.0,74.0,73.0,55.0,0.732117,0.178162,-0.65741,-0.001282,-0.122137,-0.351145,0.519084,10.523755,5.029199,1.626953,1.094604,2.455981,0.919946,-1.307544,1.802808,1.76333,deaf
1616135306.7863443,1,38.0,-1.0,74.0,74.0,52.0,0.728821,0.170959,-0.662964,0.002258,-0.160305,-0.374046,0.580153,10.361059,4.911963,1.52168,0.882861,2.499048,0.90918,-1.345825,1.926025,1.525269,deaf
1616135306.7964847,1,36.0,-2.0,73.0,73.0,57.0,0.725281,0.16272,-0.668945,0.006042,-0.19084,-0.396947,0.633588,10.205542,4.694238,1.357788,0.675903,2.45957,0.846973,-1.305151,1.981055,1.260889,deaf
1616135306.8062785,1,38.0,0.0,77.0,70.0,53.0,0.721558,0.153564,-0.675049,0.010071,-0.221374,-0.40458,0.671756,10.046435,4.386792,1.167578,0.468945,2.347119,0.76084,-1.217822,1.965503,0.977368,deaf
1616135306.816293,1,40.0,-3.0,77.0,75.0,57.0,0.717651,0.14386,-0.681213,0.014343,-0.236641,-0.40458,0.70229,9.822729,4.01355,0.948657,0.19978,2.180835,0.649585,-1.089819,1.906885,0.623267,deaf
1616135306.826496,1,38.0,-5.0,82.0,76.0,57.0,0.713562,0.133667,-0.687439,0.018738,-0.251908,-0.412214,0.717557,9.570312,3.649878,0.707007,-0.092114,2.032495,0.519189,-0.939087,1.860229,0.253613,deaf
1616135306.8365748,1,38.0,-3.0,74.0,75.0,55.0,0.70929,0.123047,-0.693726,0.023132,-0.267176,-0.412214,0.732824,9.328662,3.288599,0.446216,-0.37085,1.891333,0.374438,-0.764429,1.8052,-0.094507,deaf
1616135306.8464265,1,38.0,-1.0,76.0,75.0,57.0,0.704773,0.112122,-0.699951,0.027405,-0.282443,-0.419847,0.740458,9.130078,2.920142,0.178247,-0.598145,1.746582,0.227295,-0.575415,1.725049,-0.385205,deaf
1616135306.8563445,1,38.0,-5.0,76.0,73.0,55.0,0.700134,0.100952,-0.706116,0.031677,-0.290076,-0.412214,0.740458,8.938672,2.518188,-0.098096,-0.813477,1.570728,0.07417,-0.366064,1.600635,-0.657959,deaf
1616135306.8664718,1,38.0,-2.0,74.0,73.0,55.0,0.695312,0.089722,-0.712158,0.036011,-0.282443,-0.40458,0.740458,8.68147,2.129395,-0.366064,-1.086231,1.409229,-0.066992,-0.166284,1.478613,-0.976172,deaf
1616135306.8764908,1,38.0,-1.0,76.0,72.0,53.0,0.690308,0.07843,-0.718079,0.040466,-0.282443,-0.412214,0.740458,8.362061,1.750171,-0.636426,-1.41521,1.258496,-0.208154,0.04187,1.353003,-1.338647,deaf
1616135306.8864295,1,38.0,-4.0,77.0,77.0,56.0,0.68512,0.0672,-0.723938,0.044861,-0.282443,-0.412214,0.740458,8.074951,1.396069,-0.894824,-1.704712,1.129297,-0.333765,0.238062,1.227393,-1.650879,deaf
1616135306.8963578,1,37.0,-2.0,76.0,75.0,57.0,0.67981,0.055908,-0.729553,0.049255,-0.282443,-0.396947,0.732824,7.818945,1.001294,-1.130493,-1.954736,0.96062,-0.435449,0.42229,1.041968,-1.914062,deaf
1616135306.9063828,1,39.0,-3.0,75.0,74.0,57.0,0.6745,0.044678,-0.734985,0.053772,-0.274809,-0.389313,0.725191,7.56294,0.553882,-1.403247,-2.199975,0.736914,-0.575415,0.65437,0.794336,-2.156909,deaf
1616135306.916359,1,38.0,-1.0,78.0,74.0,56.0,0.669128,0.033691,-0.740112,0.05835,-0.251908,-0.374046,0.694656,7.341626,0.052637,-1.71189,-2.403345,0.456982,-0.753662,0.930713,0.483301,-2.33396,deaf
1616135306.9265454,1,38.0,-4.0,77.0,74.0,54.0,0.663696,0.023254,-0.744995,0.062927,-0.229008,-0.351145,0.656489,7.174146,-0.439038,-2.040869,-2.545703,0.177051,-0.95105,1.216626,0.168677,-2.429663,deaf
1616135306.936018,1,37.0,-4.0,74.0,74.0,56.0,0.658508,0.013733,-0.749451,0.067322,-0.198473,-0.320611,0.603053,7.164575,-0.838599,-2.372241,-2.525366,-0.026318,-1.159204,1.478613,-0.059814,-2.350708,deaf
1616135306.9463427,1,38.0,-3.0,74.0,75.0,52.0,0.653931,0.005249,-0.753174,0.071167,-0.183206,-0.251908,0.519084,7.303345,-1.1604,-2.695239,-2.356689,-0.177051,-1.375732,1.71189,-0.218921,-2.119824,deaf
1616135306.9563627,1,39.0,0.0,77.0,73.0,57.0,0.650452,-0.002258,-0.75592,0.074158,-0.175573,-0.152672,0.435115,7.527051,-1.422388,-3.009863,-2.106665,-0.294287,-1.609009,1.933203,-0.325391,-1.806396,deaf
1616135306.966513,1,38.0,-1.0,77.0,76.0,53.0,0.64856,-0.008728,-0.757324,0.076111,-0.175573,-0.022901,0.335878,7.82373,-1.696338,-3.268262,-1.789648,-0.45459,-1.825537,2.117432,-0.459375,-1.428369,deaf
1616135306.9763384,1,38.0,-1.0,76.0,74.0,55.0,0.648438,-0.014404,-0.757202,0.077332,-0.167939,0.129771,0.251908,8.029492,-2.050439,-3.463257,-1.571924,-0.71897,-2.020532,2.293286,-0.702222,-1.144849,deaf
1616135306.9865315,1,38.0,-2.0,76.0,73.0,57.0,0.650146,-0.019287,-0.755554,0.078064,-0.152672,0.267176,0.183206,8.097681,-2.458374,-3.562549,-1.500147,-1.056323,-2.16648,2.441626,-1.037183,-1.008472,deaf
1616135306.996523,1,38.0,-3.0,74.0,73.0,50.0,0.653442,-0.023621,-0.752502,0.078674,-0.129771,0.381679,0.137405,7.817749,-2.924927,-3.599634,-1.782471,-1.461865,-2.289697,2.616284,-1.488184,-1.221411,deaf
1616135307.0064678,1,37.0,-4.0,73.0,74.0,56.0,0.656982,-0.027649,-0.749207,0.079712,-0.083969,0.389313,0.114504,6.893018,-3.552979,-3.685767,-2.710791,-2.025317,-2.469141,2.935693,-2.186816,-2.033691,deaf
1616135307.0158432,1,38.0,-1.0,78.0,75.0,55.0,0.659363,-0.030701,-0.746765,0.081665,0.0,0.259542,0.076336,5.886939,-4.19419,-3.502734,-3.714478,-2.601929,-2.354297,2.967993,-2.940479,-2.940479,deaf
1616135307.0256758,1,38.0,-4.0,76.0,73.0,55.0,0.660278,-0.03186,-0.745605,0.084351,0.099237,0.099237,0.007634,5.291186,-4.683472,-3.131885,-4.304248,-3.037378,-2.015747,2.731128,-3.502734,-3.47522,deaf
1616135307.035876,1,37.0,-5.0,73.0,73.0,51.0,0.660034,-0.030945,-0.745544,0.087219,0.175573,-0.022901,-0.061069,5.368945,-4.870093,-2.603125,-4.2229,-3.194092,-1.48938,2.228687,-3.686963,-3.417798,deaf
1616135307.046538,1,38.0,-5.0,74.0,74.0,54.0,0.659485,-0.028503,-0.745789,0.089844,0.206107,-0.061069,-0.10687,5.861816,-4.675097,-2.055225,-3.727637,-2.993115,-0.936694,1.631738,-3.448901,-3.026611,deaf
1616135307.0564444,1,37.0,-5.0,73.0,74.0,53.0,0.659241,-0.025513,-0.745911,0.091492,0.183206,-0.053435,-0.129771,6.437232,-4.159497,-1.496558,-3.154614,-2.49187,-0.378027,0.986938,-2.908179,-2.619873,deaf
1616135307.0656111,1,38.0,-6.0,78.0,75.0,52.0,0.659302,-0.022705,-0.74585,0.092224,0.122137,-0.038168,-0.129771,6.852344,-3.574512,-1.031201,-2.744287,-1.932007,0.081348,0.443823,-2.331567,-2.372241,deaf
1616135307.0757866,1,38.0,-2.0,76.0,73.0,56.0,0.659424,-0.020264,-0.74585,0.092163,0.076336,-0.038168,-0.137405,7.047339,-3.153418,-0.758447,-2.555274,-1.543213,0.351709,0.124414,-1.941577,-2.289697,deaf
1616135307.0864732,1,38.0,-5.0,74.0,73.0,55.0,0.65918,-0.017944,-0.746155,0.091858,0.076336,-0.061069,-0.152672,7.077246,-2.993115,-0.705811,-2.530151,-1.417603,0.411523,0.056226,-1.813574,-2.299268,deaf
1616135307.09631,1,38.0,-3.0,79.0,74.0,52.0,0.658386,-0.015137,-0.746887,0.091797,0.10687,-0.099237,-0.183206,6.980347,-3.013452,-0.830225,-2.629443,-1.473828,0.307446,0.189014,-1.861426,-2.381812,deaf
1616135307.106401,1,37.0,-4.0,76.0,73.0,57.0,0.656982,-0.011475,-0.748169,0.092041,0.167939,-0.145038,-0.221374,6.829614,-3.171362,-1.039575,-2.782568,-1.673608,0.133984,0.421094,-2.044458,-2.489478,deaf
1616135307.1158304,1,37.0,-4.0,74.0,74.0,55.0,0.654846,-0.006592,-0.75,0.092896,0.236641,-0.198473,-0.267176,6.677686,-3.354394,-1.282422,-2.935693,-1.903296,-0.056226,0.685474,-2.249023,-2.591162,deaf
1616135307.1257725,1,38.0,-5.0,77.0,74.0,53.0,0.651978,-0.000244,-0.75238,0.094238,0.320611,-0.259542,-0.312977,6.565234,-3.46206,-1.533643,-3.048145,-2.068384,-0.238062,0.942676,-2.373437,-2.664136,deaf
1616135307.135442,1,37.0,-5.0,75.0,73.0,52.0,0.648254,0.00769,-0.755371,0.095703,0.381679,-0.320611,-0.374046,6.55686,-3.395068,-1.825537,-3.054126,-2.075562,-0.440234,1.198682,-2.312427,-2.653369,deaf
1616135307.146392,1,37.0,-3.0,77.0,73.0,53.0,0.643982,0.01709,-0.758728,0.096619,0.40458,-0.358779,-0.450382,6.814063,-3.1594,-2.156909,-2.794531,-1.937988,-0.667529,1.416406,-2.062402,-2.396167,deaf
1616135307.1555586,1,39.0,-4.0,74.0,73.0,52.0,0.639771,0.027771,-0.761963,0.096375,0.396947,-0.343511,-0.541985,7.292578,-2.841187,-2.528955,-2.313623,-1.748975,-0.933105,1.610205,-1.729834,-1.92124,deaf
1616135307.1656637,1,39.0,-2.0,74.0,73.0,56.0,0.63623,0.039124,-0.764648,0.094849,0.366412,-0.274809,-0.618321,7.887134,-2.562451,-2.917749,-1.720264,-1.628149,-1.227393,1.800415,-1.458276,-1.319507,deaf
1616135307.1758237,1,38.0,-3.0,76.0,72.0,55.0,0.633728,0.050842,-0.766296,0.092468,0.343511,-0.175573,-0.671756,8.417089,-2.362671,-3.32688,-1.1927,-1.604224,-1.565942,2.046851,-1.291992,-0.763232,deaf
1616135307.185632,1,37.0,-3.0,74.0,72.0,53.0,0.632385,0.062805,-0.766907,0.089722,0.343511,-0.076336,-0.709924,8.705396,-2.204761,-3.743188,-0.910376,-1.634131,-1.937988,2.37583,-1.189111,-0.440234,deaf
1616135307.1957085,1,37.0,-4.0,76.0,74.0,52.0,0.631836,0.075256,-0.766479,0.087097,0.374046,0.007634,-0.740458,8.749659,-2.013355,-4.120019,-0.869702,-1.636523,-2.293286,2.725147,-1.063501,-0.362476,deaf
1616135307.208477,1,38.0,-1.0,76.0,74.0,61.0,0.631836,0.088257,-0.765381,0.084717,0.412214,0.053435,-0.755725,8.620459,-1.766919,-4.44541,-1.003687,-1.588672,-2.610303,3.056519,-0.882861,-0.467749,deaf
1616135307.2156065,1,38.0,-2.0,76.0,75.0,53.0,0.632019,0.101746,-0.763794,0.082703,0.450382,0.083969,-0.763359,8.391968,-1.439136,-4.693042,-1.233374,-1.460669,-2.855542,3.310132,-0.619678,-0.679492,deaf
1616135307.2255418,1,38.0,-3.0,75.0,75.0,54.0,0.632141,0.115723,-0.761841,0.080933,0.480916,0.091603,-0.763359,8.146729,-0.984546,-4.846167,-1.475024,-1.209448,-3.006274,3.432153,-0.240454,-0.911572,deaf
1616135307.2356725,1,39.0,-4.0,76.0,76.0,52.0,0.632263,0.130005,-0.759644,0.079224,0.48855,0.091603,-0.748092,8.041455,-0.406738,-4.883252,-1.57312,-0.837402,-3.040967,3.369946,0.220117,-1.008472,deaf
1616135307.2456634,1,38.0,0.0,78.0,75.0,56.0,0.632446,0.144043,-0.757141,0.077393,0.473282,0.10687,-0.725191,8.134766,0.263184,-4.807886,-1.469043,-0.373242,-2.964404,3.123511,0.710596,-0.905591,deaf
1616135307.2555304,1,22.0,-4.0,75.0,72.0,54.0,0.633118,0.157349,-0.754089,0.075317,0.427481,0.145038,-0.694656,8.461352,0.933105,-4.648779,-1.128101,0.093311,-2.816064,2.758643,1.128101,-0.569434,deaf
1616135307.2656054,1,38.0,-3.0,76.0,73.0,55.0,0.634827,0.169678,-0.750244,0.07312,0.374046,0.221374,-0.664122,8.911158,1.492969,-4.439429,-0.666333,0.455786,-2.642602,2.383008,1.391284,-0.118433,deaf
1616135307.275617,1,37.0,-3.0,77.0,72.0,55.0,0.637634,0.181152,-0.745361,0.071167,0.351145,0.320611,-0.633588,9.297559,1.819556,-4.239648,-0.270361,0.594556,-2.507422,2.136572,1.442725,0.252417,deaf
1616135307.2856226,1,37.0,-4.0,76.0,75.0,53.0,0.641418,0.1922,-0.739441,0.070068,0.381679,0.412214,-0.610687,9.478198,2.020532,-4.056616,-0.081348,0.619678,-2.415308,2.002588,1.428369,0.41272,deaf
1616135307.2957425,1,38.0,0.0,76.0,75.0,56.0,0.645691,0.203308,-0.732666,0.070007,0.435115,0.473282,-0.587786,9.500928,2.271753,-3.826929,-0.050244,0.703418,-2.294482,1.836304,1.485791,0.421094,deaf
1616135307.3056402,1,39.0,-4.0,76.0,76.0,57.0,0.650208,0.214966,-0.72522,0.071045,0.51145,0.51145,-0.564885,9.393262,2.579199,-3.56853,-0.147144,0.849365,-2.15332,1.630542,1.617383,0.317017,deaf
1616135307.3157651,1,38.0,1.0,78.0,76.0,56.0,0.654541,0.227173,-0.717346,0.073059,0.572519,0.519084,-0.534351,9.237744,3.081641,-3.249121,-0.289502,1.193897,-1.951147,1.275244,1.909277,0.205762,deaf
1616135307.3254397,1,39.0,-2.0,77.0,74.0,55.0,0.658813,0.23938,-0.709167,0.075684,0.603053,0.526718,-0.48855,9.198267,3.782666,-2.786157,-0.313428,1.742993,-1.60542,0.680689,2.276538,0.251221,deaf
1616135307.335723,1,37.0,-6.0,70.0,75.0,56.0,0.663147,0.250854,-0.700745,0.078674,0.580153,0.526718,-0.412214,9.212622,4.606909,-2.231079,-0.281128,2.426074,-1.172363,-0.063403,2.678491,0.393579,deaf
1616135307.3455937,1,38.0,-3.0,75.0,75.0,55.0,0.667603,0.261108,-0.692444,0.081726,0.526718,0.51145,-0.335878,9.273633,5.47063,-1.624561,-0.204565,3.162988,-0.690259,-0.885254,3.058911,0.6125,deaf
1616135307.3555207,1,38.0,-3.0,75.0,73.0,53.0,0.672119,0.269775,-0.684326,0.084656,0.458015,0.496183,-0.251908,9.389673,6.227881,-0.988135,-0.071777,3.808984,-0.181836,-1.684375,3.30415,0.885254,deaf
1616135307.365523,1,39.0,-4.0,76.0,73.0,53.0,0.676697,0.276672,-0.676636,0.087891,0.396947,0.48855,-0.152672,9.576294,6.832007,-0.384009,0.124414,4.326978,0.289502,-2.377026,3.422583,1.204663,deaf
1616135307.3755617,1,36.0,-2.0,75.0,72.0,55.0,0.681274,0.281982,-0.66925,0.091736,0.358779,0.48855,-0.053435,9.870581,7.255493,0.196191,0.427075,4.693042,0.733325,-2.951245,3.387891,1.597046,deaf
1616135307.3854623,1,38.0,-3.0,78.0,76.0,57.0,0.686035,0.285889,-0.661987,0.096741,0.358779,0.519084,0.038168,10.130176,7.358374,0.704614,0.68667,4.768408,1.095801,-3.299365,3.1594,1.876978,deaf
1616135307.3955038,1,37.0,-4.0,76.0,73.0,49.0,0.690552,0.289001,-0.654907,0.103394,0.40458,0.526718,0.129771,10.230664,7.280615,1.163989,0.77998,4.695435,1.406836,-3.541016,2.873486,1.954736,deaf
1616135307.405398,1,38.0,-6.0,76.0,74.0,54.0,0.694519,0.291748,-0.648132,0.11145,0.450382,0.503817,0.198473,10.267749,7.238745,1.661646,0.807495,4.682275,1.76333,-3.859229,2.618677,1.981055,deaf
1616135307.4154642,1,38.0,-5.0,77.0,73.0,56.0,0.698059,0.294128,-0.641663,0.120361,0.473282,0.473282,0.259542,10.282104,7.114331,2.180835,0.808691,4.60332,2.146142,-4.16189,2.290894,1.967896,deaf
1616135307.425556,1,38.0,-4.0,78.0,76.0,57.0,0.700989,0.295776,-0.635742,0.129944,0.458015,0.427481,0.328244,10.234253,6.863111,2.673706,0.745288,4.417895,2.509815,-4.391577,1.894922,1.865015,deaf
1616135307.43539,1,38.0,-6.0,76.0,75.0,53.0,0.703308,0.296265,-0.63092,0.139771,0.412214,0.366412,0.396947,10.132568,6.499438,3.098389,0.623267,4.142749,2.819653,-4.52915,1.470239,1.67959,deaf
1616135307.445431,1,37.0,-6.0,72.0,74.0,55.0,0.704956,0.295227,-0.627319,0.149353,0.328244,0.290076,0.458015,10.06438,5.974267,3.46206,0.532349,3.731225,3.082837,-4.532739,0.967798,1.490576,deaf
1616135307.4555566,1,38.0,-4.0,77.0,71.0,53.0,0.706238,0.292419,-0.625,0.158508,0.229008,0.229008,0.503817,9.981836,5.242139,3.721655,0.421094,3.135474,3.25271,-4.346118,0.393579,1.239355,deaf
1616135307.465471,1,37.0,-6.0,76.0,72.0,58.0,0.707031,0.288147,-0.62384,0.166931,0.129771,0.167939,0.519084,9.779663,4.219312,3.816162,0.191406,2.266968,3.270654,-3.887939,-0.272754,0.819458,deaf
1616135307.4755816,1,38.0,-6.0,74.0,74.0,47.0,0.707336,0.283508,-0.623657,0.174133,0.083969,0.099237,0.412214,9.348999,2.562451,3.785058,-0.26438,0.759644,3.183325,-2.991919,-1.348218,0.075366,deaf
1616135307.4854546,1,37.0,-5.0,76.0,74.0,57.0,0.70697,0.281189,-0.623474,0.179749,0.183206,0.022901,0.099237,8.908765,-0.077759,3.637915,-0.720166,-1.776489,3.007471,-1.386499,-3.179736,-0.821851,deaf
1616135307.4956253,1,36.0,-5.0,76.0,77.0,55.0,0.70575,0.283813,-0.622375,0.184448,0.419847,-0.022901,-0.244275,8.741284,-2.574414,3.411816,-0.893628,-4.249219,2.782568,0.313428,-4.945459,-1.425977,deaf
1616135307.50553,1,39.0,-6.0,75.0,73.0,57.0,0.703918,0.290527,-0.620056,0.188599,0.557252,-0.030534,-0.358779,8.854932,-3.545801,3.247925,-0.772803,-5.261279,2.637817,1.154419,-5.620166,-1.515698,deaf
1616135307.5157945,1,37.0,-5.0,77.0,73.0,52.0,0.702576,0.297913,-0.617126,0.19165,0.48855,-0.015267,-0.305344,8.963794,-2.884253,3.225195,-0.653174,-4.66792,2.629443,0.885254,-5.153613,-1.330273,deaf
1616135307.525493,1,37.0,-5.0,74.0,74.0,53.0,0.702515,0.302917,-0.614502,0.192383,0.21374,-0.007634,-0.206107,8.941065,-1.47981,3.282617,-0.661548,-3.332861,2.68208,0.025122,-4.182227,-1.113745,deaf
1616135307.5354843,1,38.0,-1.0,75.0,73.0,53.0,0.703796,0.303955,-0.61322,0.19043,-0.114504,-0.022901,-0.114504,8.878858,-0.330176,3.24314,-0.714185,-2.233472,2.623462,-0.65437,-3.318506,-0.966602,deaf
1616135307.545558,1,37.0,-5.0,76.0,73.0,56.0,0.705688,0.300842,-0.613586,0.18689,-0.358779,-0.030534,-0.022901,8.838183,0.160303,3.019433,-0.750073,-1.752563,2.372241,-0.811084,-2.784961,-0.91875,deaf
1616135307.5556664,1,37.0,-3.0,77.0,73.0,56.0,0.707642,0.295288,-0.615234,0.183044,-0.465649,-0.045802,0.038168,8.833399,0.187817,2.713184,-0.758447,-1.699927,2.040869,-0.631641,-2.522974,-0.929517,deaf
1616135307.5655515,1,38.0,-6.0,74.0,75.0,51.0,0.709351,0.289124,-0.617249,0.179443,-0.450382,-0.053435,0.045802,8.900391,0.014355,2.447608,-0.697437,-1.833911,1.75376,-0.352905,-2.445215,-0.904395,deaf
1616135307.5756593,1,36.0,-5.0,76.0,74.0,57.0,0.710693,0.28418,-0.618896,0.176392,-0.343511,-0.045802,-0.015267,8.99729,-0.229687,2.220313,-0.605322,-2.048047,1.509717,-0.046655,-2.467944,-0.863721,deaf
1616135307.5855596,1,38.0,-5.0,61.0,73.0,53.0,0.711609,0.281677,-0.619751,0.173767,-0.198473,-0.053435,-0.114504,9.072657,-0.369653,2.048047,-0.529956,-2.186816,1.330273,0.169873,-2.472729,-0.826636,deaf
1616135307.5955782,1,33.0,-4.0,78.0,74.0,55.0,0.711914,0.282104,-0.619873,0.171143,-0.053435,-0.076336,-0.221374,9.1229,-0.319409,1.935596,-0.472534,-2.17605,1.226196,0.245239,-2.404541,-0.785962,deaf
1616135307.6055207,1,37.0,-6.0,76.0,74.0,53.0,0.711792,0.284912,-0.619568,0.168152,0.038168,-0.114504,-0.305344,9.150415,-0.021533,1.885352,-0.43186,-1.95354,1.199878,0.137573,-2.213135,-0.722559,deaf
1616135307.6156197,1,38.0,-4.0,78.0,75.0,53.0,0.711182,0.289246,-0.619324,0.164429,0.068702,-0.167939,-0.358779,9.175537,0.47373,1.854248,-0.388794,-1.561157,1.210644,-0.095703,-1.91167,-0.623267,deaf
1616135307.6257184,1,40.0,-5.0,77.0,75.0,57.0,0.710205,0.293823,-0.619446,0.159851,0.030534,-0.21374,-0.366412,9.226977,0.99292,1.793237,-0.31582,-1.155615,1.205859,-0.321802,-1.594653,-0.488086,deaf
1616135307.6353571,1,38.0,-6.0,76.0,73.0,56.0,0.708984,0.297607,-0.6203,0.154724,-0.030534,-0.251908,-0.335878,9.321485,1.42478,1.665234,-0.19978,-0.829028,1.142456,-0.447412,-1.313525,-0.322998,deaf
1616135307.6454394,1,37.0,4.0,77.0,73.0,58.0,0.707703,0.300293,-0.621826,0.149231,-0.099237,-0.267176,-0.290076,9.462646,1.769312,1.46665,-0.040674,-0.576611,1.012061,-0.470142,-1.05752,-0.130396,deaf
1616135307.6555505,1,38.0,-5.0,76.0,75.0,53.0,0.706604,0.301941,-0.623596,0.143677,-0.160305,-0.236641,-0.259542,9.608594,1.994214,1.21543,0.120825,-0.430664,0.824243,-0.382812,-0.85415,0.043066,deaf
1616135307.6654816,1,38.0,-4.0,76.0,74.0,57.0,0.705933,0.302795,-0.625122,0.138306,-0.183206,-0.198473,-0.236641,9.689941,2.034888,0.917554,0.218921,-0.459375,0.574219,-0.155518,-0.741699,0.113647,deaf
1616135307.6755335,1,37.0,-5.0,76.0,73.0,52.0,0.705566,0.303406,-0.626343,0.133423,-0.167939,-0.145038,-0.229008,9.646875,1.945166,0.593359,0.191406,-0.6125,0.285913,0.151929,-0.684277,0.033496,deaf
1616135307.685333,1,37.0,-5.0,77.0,75.0,53.0,0.705261,0.304382,-0.627075,0.12915,-0.122137,-0.114504,-0.236641,9.488965,1.903296,0.30625,0.050244,-0.716577,0.028711,0.38999,-0.586182,-0.142358,deaf
1616135307.6955023,1,38.0,-4.0,76.0,75.0,57.0,0.705017,0.305969,-0.62738,0.125366,-0.076336,-0.091603,-0.236641,9.316699,1.984644,0.093311,-0.104077,-0.701025,-0.156714,0.500049,-0.433057,-0.295483,deaf
1616135307.7054093,1,37.0,-5.0,74.0,76.0,55.0,0.704773,0.307983,-0.627319,0.121765,-0.045802,-0.076336,-0.244275,9.134863,2.244238,-0.039478,-0.265576,-0.512012,-0.265576,0.451001,-0.186621,-0.404346,deaf
1616135307.7154806,1,39.0,-3.0,76.0,74.0,55.0,0.704651,0.310303,-0.627075,0.118103,-0.045802,-0.068702,-0.244275,8.938672,2.589966,-0.131592,-0.440234,-0.244043,-0.336157,0.325391,0.104077,-0.498853,deaf
1616135307.725489,1,38.0,-3.0,78.0,74.0,53.0,0.704468,0.312561,-0.626831,0.114197,-0.061069,-0.076336,-0.236641,8.786743,2.95603,-0.209351,-0.567041,0.043066,-0.392383,0.187817,0.392383,-0.534741,deaf
1616135307.7355893,1,38.0,-2.0,77.0,80.0,56.0,0.704346,0.314697,-0.626648,0.110046,-0.083969,-0.083969,-0.236641,8.707788,3.28501,-0.294287,-0.620874,0.291895,-0.455786,0.092114,0.640015,-0.508423,deaf
1616135307.7454145,1,37.0,-4.0,78.0,74.0,58.0,0.704285,0.316589,-0.626526,0.105774,-0.099237,-0.076336,-0.236641,8.708984,3.544605,-0.367261,-0.595752,0.472534,-0.508423,0.04187,0.808691,-0.424683,deaf
1616135307.7554655,1,38.0,-5.0,74.0,74.0,55.0,0.704468,0.318176,-0.626221,0.101562,-0.10687,-0.061069,-0.229008,8.775976,3.738403,-0.451001,-0.503638,0.590967,-0.5802,0.055029,0.921143,-0.294287,deaf
1616135307.7653987,1,38.0,-5.0,74.0,76.0,55.0,0.704834,0.319519,-0.625732,0.097412,-0.122137,-0.030534,-0.221374,8.829809,3.90708,-0.532349,-0.423486,0.68667,-0.655566,0.08374,1.019238,-0.181836,deaf
1616135307.7754254,1,37.0,-4.0,73.0,73.0,56.0,0.705627,0.32074,-0.624878,0.093506,-0.122137,0.007634,-0.21374,8.804688,4.021924,-0.593359,-0.424683,0.730933,-0.723755,0.119629,1.093408,-0.163892,deaf
1616135310.3415055,1,38.0,-2.0,74.0,74.0,57.0,0.715393,0.122742,-0.687195,0.030212,0.0,-0.015267,0.007634,9.455469,1.388892,0.236865,-0.252417,0.07417,-0.011963,-0.016748,0.105273,-0.239258,deaf
1616135310.351478,1,37.0,-3.0,76.0,75.0,56.0,0.715271,0.122681,-0.687378,0.030334,0.0,-0.015267,0.007634,9.447095,1.40564,0.24165,-0.261987,0.093311,-0.002393,-0.031104,0.123218,-0.246436,deaf
1616135310.361653,1,38.0,-3.0,76.0,74.0,55.0,0.715088,0.122559,-0.687561,0.030457,0.0,-0.022901,0.007634,9.461451,1.423584,0.253613,-0.247632,0.11604,0.013159,-0.050244,0.139966,-0.228491,deaf
1616135310.3717086,1,38.0,-1.0,74.0,74.0,55.0,0.714905,0.122375,-0.687683,0.030457,-0.007634,-0.015267,0.015267,9.488965,1.418799,0.263184,-0.218921,0.113647,0.026318,-0.061011,0.131592,-0.200977,deaf
1616135310.381716,1,37.0,-3.0,74.0,73.0,53.0,0.714905,0.12207,-0.687805,0.030518,-0.015267,-0.007634,0.015267,9.520068,1.391284,0.265576,-0.19021,0.092114,0.029907,-0.057422,0.105273,-0.174658,deaf
1616135310.3917038,1,39.0,-1.0,77.0,75.0,54.0,0.714905,0.121643,-0.687866,0.030579,-0.022901,-0.007634,0.022901,9.529638,1.357788,0.260791,-0.18064,0.0646,0.023926,-0.045459,0.078955,-0.169873,deaf
1616135310.4017837,1,40.0,-2.0,74.0,78.0,57.0,0.714966,0.121033,-0.687927,0.030579,-0.030534,0.0,0.022901,9.506909,1.321899,0.259595,-0.205762,0.037085,0.021533,-0.038281,0.056226,-0.197388,deaf
1616135310.411777,1,37.0,-1.0,74.0,74.0,55.0,0.715027,0.120361,-0.687927,0.030518,-0.038168,0.0,0.022901,9.465039,1.271655,0.272754,-0.247632,-0.003589,0.0323,-0.043066,0.019141,-0.244043,deaf
1616135310.4215531,1,39.0,-3.0,74.0,73.0,54.0,0.715088,0.119629,-0.688049,0.030518,-0.038168,-0.007634,0.022901,9.420776,1.221411,0.288306,-0.294287,-0.043066,0.046655,-0.05144,-0.015552,-0.295483,deaf
1616135310.4315724,1,37.0,-3.0,77.0,73.0,54.0,0.715027,0.118835,-0.688232,0.030518,-0.038168,-0.022901,0.022901,9.406421,1.178345,0.314624,-0.309839,-0.075366,0.075366,-0.072974,-0.05144,-0.314624,deaf
1616135310.4418163,1,38.0,-1.0,73.0,75.0,57.0,0.714905,0.118042,-0.688538,0.030457,-0.038168,-0.022901,0.022901,9.407618,1.126904,0.340942,-0.309839,-0.11604,0.105273,-0.093311,-0.096899,-0.319409,deaf
1616135310.4517045,1,38.0,-2.0,76.0,78.0,54.0,0.714722,0.11731,-0.688782,0.030396,-0.038168,-0.030534,0.022901,9.407618,1.077856,0.378027,-0.311035,-0.154321,0.145947,-0.12561,-0.143555,-0.324194,deaf
1616135310.461696,1,38.0,-3.0,77.0,74.0,53.0,0.714539,0.116638,-0.689148,0.030334,-0.038168,-0.038168,0.015267,9.396851,1.039575,0.411523,-0.322998,-0.183032,0.185425,-0.159106,-0.178247,-0.33855,deaf
1616135310.4716537,1,37.0,-1.0,76.0,74.0,56.0,0.714294,0.116089,-0.689514,0.030151,-0.030534,-0.038168,0.007634,9.411206,1.027612,0.455786,-0.309839,-0.189014,0.236865,-0.206958,-0.196191,-0.325391,deaf
1616135310.481729,1,38.0,-3.0,74.0,73.0,49.0,0.71405,0.115662,-0.68988,0.029968,-0.030534,-0.038168,0.0,9.447095,0.978564,0.500049,-0.275146,-0.234473,0.289502,-0.247632,-0.25481,-0.295483,deaf
1616135310.4918044,1,38.0,-3.0,77.0,77.0,55.0,0.713745,0.115356,-0.690186,0.029785,-0.015267,-0.038168,-0.007634,9.461451,0.916357,0.537134,-0.260791,-0.294287,0.333765,-0.278735,-0.322998,-0.287109,deaf
1616135310.5016446,1,38.0,-2.0,78.0,74.0,55.0,0.713501,0.115234,-0.690491,0.029663,-0.007634,-0.038168,-0.015267,9.442309,0.922339,0.562256,-0.279932,-0.287109,0.366064,-0.312231,-0.320605,-0.305054,deaf
1616135310.5117228,1,38.0,0.0,76.0,73.0,51.0,0.713135,0.115356,-0.690796,0.029419,-0.007634,-0.045802,-0.022901,9.457861,0.959424,0.642407,-0.263184,-0.253613,0.456982,-0.406738,-0.308643,-0.283521,deaf
1616135310.5217974,1,39.0,-2.0,78.0,76.0,56.0,0.71283,0.115479,-0.691162,0.029053,-0.007634,-0.053435,-0.030534,9.481787,0.952246,0.701025,-0.240454,-0.266772,0.525171,-0.470142,-0.337354,-0.261987,deaf
1616135310.531676,1,38.0,-2.0,74.0,74.0,56.0,0.712463,0.115601,-0.691528,0.028687,-0.007634,-0.061069,-0.030534,9.494946,0.974976,0.77998,-0.226099,-0.250024,0.613696,-0.559863,-0.340942,-0.244043,deaf
1616135310.5416102,1,38.0,-2.0,76.0,74.0,52.0,0.712097,0.115784,-0.691895,0.028137,-0.015267,-0.068702,-0.038168,9.498535,1.049145,0.856543,-0.221313,-0.184229,0.701025,-0.657959,-0.294287,-0.230884,deaf
1616135310.551682,1,38.0,-3.0,74.0,72.0,52.0,0.711609,0.115906,-0.692383,0.027344,-0.030534,-0.076336,-0.038168,9.510498,1.123315,0.933105,-0.208154,-0.122021,0.791943,-0.758447,-0.253613,-0.210547,deaf
1616135310.561597,1,38.0,-1.0,73.0,75.0,52.0,0.711121,0.115906,-0.692932,0.026489,-0.038168,-0.083969,-0.030534,9.547583,1.225,1.009668,-0.169873,-0.029907,0.884058,-0.866113,-0.185425,-0.160303,deaf
1616135310.5717835,1,38.0,-3.0,75.0,73.0,54.0,0.710632,0.115784,-0.693481,0.025452,-0.053435,-0.083969,-0.030534,9.584668,1.324292,1.068286,-0.131592,0.057422,0.957031,-0.953442,-0.118433,-0.111255,deaf
1616135310.581816,1,38.0,-1.0,77.0,36.0,55.0,0.710144,0.115479,-0.694092,0.024292,-0.061069,-0.091603,-0.022901,9.601416,1.433154,1.110156,-0.113647,0.155518,1.013257,-1.026416,-0.034692,-0.081348,deaf
1616135310.5916631,1,38.0,-3.0,77.0,72.0,76.0,0.709534,0.114929,-0.694885,0.023132,-0.076336,-0.099237,-0.007634,9.639697,1.59585,1.149634,-0.075366,0.312231,1.071875,-1.113745,0.102881,-0.025122,deaf
1616135310.6015968,1,39.0,0.0,74.0,73.0,54.0,0.708862,0.113953,-0.69574,0.021729,-0.10687,-0.114504,0.015267,9.749756,1.793237,1.213037,0.034692,0.50603,1.154419,-1.227393,0.265576,0.107666,deaf
1616135310.61153,1,38.0,-1.0,77.0,74.0,53.0,0.708252,0.112244,-0.696716,0.020203,-0.152672,-0.122137,0.045802,9.884936,1.987036,1.262085,0.168677,0.704614,1.222607,-1.325488,0.435449,0.263184,deaf
1616135310.6215308,1,38.0,-1.0,74.0,75.0,56.0,0.70752,0.10968,-0.697876,0.018494,-0.19084,-0.129771,0.076336,10.02251,2.125806,1.278833,0.303857,0.857739,1.259692,-1.384106,0.569434,0.413916,deaf
1616135310.6315544,1,38.0,-3.0,77.0,77.0,55.0,0.706665,0.106323,-0.69928,0.016785,-0.229008,-0.152672,0.114504,10.118213,2.197583,1.241748,0.397168,0.954639,1.24773,-1.384106,0.665137,0.513208,deaf
1616135310.6415987,1,40.0,-10.0,76.0,75.0,56.0,0.705444,0.102356,-0.701172,0.015076,-0.251908,-0.175573,0.145038,10.191187,2.225098,1.143652,0.465356,1.016846,1.184326,-1.327881,0.741699,0.581396,deaf
1616135310.6514618,1,39.0,-1.0,77.0,73.0,55.0,0.703857,0.097778,-0.70343,0.013489,-0.267176,-0.206107,0.167939,10.277319,2.222705,0.982153,0.546704,1.058716,1.06709,-1.213037,0.805103,0.657959,deaf
1616135310.6615114,1,38.0,-1.0,77.0,75.0,55.0,0.701904,0.092957,-0.706116,0.011963,-0.274809,-0.229008,0.183206,10.376612,2.131787,0.747681,0.640015,1.018042,0.888843,-1.027612,0.795532,0.73811,deaf
1616135310.671458,1,38.0,0.0,76.0,76.0,55.0,0.699463,0.088074,-0.709106,0.010681,-0.259542,-0.251908,0.19084,10.484278,1.990625,0.453394,0.744092,0.930713,0.660352,-0.788355,0.741699,0.825439,deaf
1616135310.6815076,1,38.0,-2.0,77.0,75.0,56.0,0.696777,0.083313,-0.712402,0.009766,-0.236641,-0.267176,0.19084,10.59314,1.81477,0.117236,0.846973,0.81228,0.399561,-0.515601,0.659155,0.912769,deaf
1616135310.691476,1,38.0,-6.0,72.0,74.0,52.0,0.693787,0.078918,-0.715759,0.009216,-0.198473,-0.267176,0.19084,10.704394,1.649683,-0.253613,0.957031,0.705811,0.110059,-0.221313,0.587378,1.015649,deaf
1616135310.7016351,1,38.0,-1.0,77.0,76.0,58.0,0.690735,0.075012,-0.719177,0.008911,-0.167939,-0.259542,0.175573,10.850342,1.559961,-0.625659,1.100586,0.669922,-0.178247,0.057422,0.577808,1.162793,deaf
1616135310.7115452,1,39.0,-3.0,77.0,75.0,57.0,0.687744,0.071594,-0.722351,0.008728,-0.145038,-0.236641,0.167939,11.013037,1.546802,-0.958228,1.263281,0.704614,-0.429468,0.289502,0.629248,1.339844,deaf
1616135310.7216349,1,39.0,-1.0,75.0,74.0,53.0,0.684875,0.068237,-0.725403,0.008667,-0.145038,-0.221374,0.175573,11.111133,1.599438,-1.251318,1.361377,0.806299,-0.645996,0.479712,0.747681,1.458276,deaf
1616135310.7317414,1,37.0,-1.0,76.0,47.0,55.0,0.682251,0.064636,-0.72821,0.008606,-0.160305,-0.206107,0.198473,11.133862,1.735815,-1.446314,1.384106,0.994116,-0.77041,0.574219,0.948657,1.504932,deaf
1616135310.741483,1,38.0,-3.0,76.0,76.0,53.0,0.679688,0.060425,-0.730957,0.008423,-0.19084,-0.206107,0.236641,11.026196,1.866211,-1.581494,1.277637,1.180737,-0.837402,0.624463,1.152026,1.416406,deaf
1616135310.7515402,1,38.0,-1.0,75.0,74.0,55.0,0.677124,0.055359,-0.733704,0.008362,-0.221374,-0.21374,0.290076,10.784546,1.930811,-1.701123,1.037183,1.315918,-0.888843,0.680689,1.312329,1.186719,deaf
1616135310.761649,1,38.0,-4.0,75.0,75.0,56.0,0.674377,0.049377,-0.736694,0.008606,-0.244275,-0.229008,0.343511,10.450781,1.918848,-1.811182,0.704614,1.390088,-0.925928,0.740503,1.412817,0.858936,deaf
1616135310.771488,1,39.0,0.0,74.0,73.0,54.0,0.671204,0.042542,-0.73999,0.009338,-0.251908,-0.251908,0.389313,10.100268,1.792041,-1.947559,0.356494,1.367358,-0.978564,0.833813,1.412817,0.509619,deaf
1616135310.7816508,1,38.0,-2.0,74.0,74.0,55.0,0.667725,0.035217,-0.743469,0.01062,-0.244275,-0.274809,0.435115,9.785645,1.591064,-2.093506,0.047852,1.284814,-1.03479,0.935498,1.343433,0.198584,deaf
1616135310.7914865,1,38.0,-1.0,77.0,75.0,51.0,0.664001,0.027527,-0.747131,0.012268,-0.236641,-0.282443,0.450382,9.553564,1.361377,-2.234668,-0.175854,1.181934,-1.079053,1.021631,1.242944,-0.025122,deaf
1616135310.8014832,1,36.0,-4.0,74.0,73.0,53.0,0.660278,0.019897,-0.75061,0.014282,-0.221374,-0.267176,0.450382,9.444702,1.056323,-2.415308,-0.27395,1.008472,-1.163989,1.137671,1.064697,-0.117236,deaf
1616135310.811456,1,38.0,-3.0,76.0,72.0,56.0,0.656799,0.012451,-0.753784,0.016602,-0.198473,-0.236641,0.442748,9.421972,0.729736,-2.580395,-0.284717,0.814673,-1.240552,1.233374,0.863721,-0.118433,deaf
1616135310.8216376,1,38.0,-2.0,76.0,76.0,56.0,0.653748,0.005493,-0.75647,0.018982,-0.167939,-0.19084,0.419847,9.37771,0.456982,-2.74668,-0.317017,0.667529,-1.330273,1.338647,0.709399,-0.135181,deaf
1616135310.8314824,1,38.0,0.0,77.0,76.0,58.0,0.651123,-0.000793,-0.758667,0.021362,-0.145038,-0.152672,0.389313,9.301147,0.240454,-2.89502,-0.38042,0.567041,-1.412817,1.437939,0.599341,-0.18064,deaf
1616135310.8414369,1,39.0,-1.0,74.0,70.0,53.0,0.648926,-0.006531,-0.760498,0.023743,-0.122137,-0.114504,0.358779,9.192286,0.081348,-3.003882,-0.477319,0.517993,-1.467847,1.513306,0.53833,-0.263184,deaf
1616135310.8518362,1,45.0,-3.0,77.0,75.0,58.0,0.647156,-0.011719,-0.761841,0.026062,-0.099237,-0.083969,0.335878,9.046338,-0.062207,-3.068481,-0.610107,0.474927,-1.48938,1.559961,0.478516,-0.386401,deaf
1616135310.861621,1,39.0,-1.0,78.0,74.0,58.0,0.645752,-0.016479,-0.762878,0.028381,-0.076336,-0.053435,0.312977,8.842969,-0.187817,-3.099585,-0.80271,0.44502,-1.486987,1.593457,0.427075,-0.574219,deaf
1616135310.8716402,1,39.0,-4.0,74.0,73.0,57.0,0.644592,-0.020935,-0.763611,0.030884,-0.061069,-0.038168,0.312977,8.650366,-0.299072,-3.080444,-0.98335,0.427075,-1.442725,1.583887,0.384009,-0.757251,deaf
1616135310.8816018,1,38.0,-3.0,78.0,75.0,54.0,0.643677,-0.02533,-0.76416,0.03363,-0.045802,-0.022901,0.320611,8.415894,-0.381616,-3.01106,-1.207056,0.441431,-1.353003,1.536035,0.366064,-0.99292,deaf
1616135310.891587,1,39.0,-1.0,76.0,73.0,53.0,0.642822,-0.029968,-0.764587,0.036377,-0.061069,-0.022901,0.335878,8.234057,-0.403149,-2.903394,-1.376929,0.519189,-1.227393,1.445117,0.410327,-1.189111,deaf
1616135310.9014497,1,38.0,-2.0,74.0,76.0,55.0,0.641968,-0.034912,-0.764954,0.039001,-0.083969,-0.022901,0.351145,8.156299,-0.455786,-2.77898,-1.441528,0.568237,-1.086231,1.320703,0.43186,-1.283618,deaf
1616135310.9116998,1,38.0,-1.0,76.0,73.0,56.0,0.641174,-0.040405,-0.765198,0.041565,-0.10687,-0.015267,0.366412,8.131177,-0.582593,-2.702417,-1.451099,0.5479,-0.99292,1.23457,0.388794,-1.30874,deaf
1616135310.9216404,1,38.0,-1.0,75.0,73.0,56.0,0.640442,-0.046204,-0.765381,0.044067,-0.114504,-0.007634,0.374046,8.181421,-0.759644,-2.661743,-1.385303,0.480908,-0.937891,1.172363,0.307446,-1.24773,deaf
1616135310.931558,1,38.0,-3.0,73.0,76.0,56.0,0.639954,-0.05188,-0.765259,0.046631,-0.10687,0.022901,0.358779,8.317798,-1.001294,-2.599536,-1.233374,0.34812,-0.868506,1.077856,0.177051,-1.095801,deaf
1616135310.94149,1,39.0,-3.0,76.0,76.0,58.0,0.640076,-0.057373,-0.764587,0.049133,-0.091603,0.061069,0.343511,8.427856,-1.262085,-2.530151,-1.10896,0.193799,-0.807495,0.991724,0.025122,-0.965405,deaf
1616135310.9516146,1,38.0,-3.0,78.0,116.0,26.0,0.640686,-0.062439,-0.76355,0.051636,-0.083969,0.099237,0.312977,8.439819,-1.496558,-2.451196,-1.085034,0.059814,-0.747681,0.923535,-0.11604,-0.933105,deaf
1616135310.961585,1,37.0,-3.0,74.0,72.0,56.0,0.641724,-0.067139,-0.762085,0.053894,-0.076336,0.137405,0.282443,8.371631,-1.738208,-2.349512,-1.142456,-0.088525,-0.6771,0.855347,-0.284717,-0.978564,deaf
1616135310.9714549,1,22.0,-3.0,76.0,71.0,53.0,0.643066,-0.071472,-0.760437,0.05603,-0.061069,0.145038,0.251908,8.095288,-2.080347,-2.260986,-1.410425,-0.343335,-0.626855,0.83501,-0.595752,-1.202271,deaf
1616135310.9814806,1,37.0,-1.0,77.0,75.0,57.0,0.644165,-0.075378,-0.758911,0.05835,-0.045802,0.122137,0.21374,7.586865,-2.49187,-2.154517,-1.908081,-0.671118,-0.553882,0.821851,-1.02522,-1.632935,deaf
1616135310.9914248,1,38.0,-2.0,76.0,75.0,54.0,0.644531,-0.07843,-0.758118,0.060791,0.0,0.045802,0.160305,7.080835,-2.972778,-1.972681,-2.402148,-1.077856,-0.386401,0.714185,-1.533643,-2.052832,deaf
1616135311.000728,1,37.0,-3.0,76.0,74.0,55.0,0.644287,-0.080261,-0.757874,0.063599,0.053435,-0.030534,0.099237,6.823633,-3.464453,-1.699927,-2.646191,-1.506128,-0.114844,0.467749,-2.013355,-2.237061,deaf
1616135311.0115626,1,38.0,-3.0,78.0,76.0,54.0,0.643555,-0.08075,-0.75824,0.066406,0.099237,-0.076336,0.038168,6.8021,-3.829321,-1.443921,-2.656958,-1.823145,0.151929,0.203369,-2.335156,-2.215527,deaf
1616135311.0214598,1,38.0,-4.0,77.0,74.0,56.0,0.6427,-0.080139,-0.758789,0.06897,0.122137,-0.099237,-0.022901,6.893018,-4.026709,-1.239355,-2.55647,-1.990625,0.37085,-0.019141,-2.483496,-2.112647,deaf
1616135311.0314393,1,38.0,-3.0,77.0,75.0,56.0,0.641785,-0.078735,-0.759521,0.071106,0.129771,-0.10687,-0.061069,6.958814,-4.049438,-1.098193,-2.484692,-2.000195,0.52876,-0.169873,-2.4823,-2.063599,deaf
1616135311.041655,1,36.0,-3.0,78.0,73.0,55.0,0.64093,-0.076965,-0.760315,0.072449,0.10687,-0.10687,-0.099237,6.974365,-3.919043,-1.026416,-2.466748,-1.872192,0.618481,-0.242847,-2.354297,-2.088721,deaf
1616135311.0514526,1,39.0,-3.0,77.0,74.0,52.0,0.639954,-0.074951,-0.761292,0.07312,0.083969,-0.10687,-0.129771,6.921729,-3.769507,-1.080249,-2.519385,-1.738208,0.588574,-0.187817,-2.232275,-2.16648,deaf
1616135311.061526,1,39.0,-4.0,78.0,74.0,55.0,0.638733,-0.072693,-0.762451,0.073364,0.083969,-0.114504,-0.152672,6.809278,-3.689355,-1.256104,-2.63064,-1.681982,0.441431,-0.007178,-2.191602,-2.265771,deaf
1616135311.070928,1,37.0,-2.0,76.0,72.0,54.0,0.637207,-0.069885,-0.763977,0.073547,0.10687,-0.129771,-0.19084,6.680078,-3.667822,-1.546802,-2.759839,-1.692749,0.187817,0.284717,-2.215527,-2.350708,deaf
1616135311.0810294,1,38.0,-3.0,74.0,76.0,55.0,0.635437,-0.066345,-0.765747,0.073792,0.145038,-0.152672,-0.229008,6.597534,-3.637915,-1.908081,-2.842383,-1.703516,-0.128003,0.634033,-2.221509,-2.378223,deaf
1616135311.091516,1,39.0,-2.0,75.0,74.0,55.0,0.633362,-0.061707,-0.767822,0.074097,0.183206,-0.167939,-0.282443,6.567627,-3.580493,-2.299268,-2.873486,-1.69873,-0.468945,1.004883,-2.191602,-2.354297,deaf
1616135311.1016452,1,38.0,4.0,78.0,73.0,52.0,0.631165,-0.055908,-0.770081,0.074219,0.221374,-0.175573,-0.335878,6.627441,-3.480005,-2.670117,-2.817261,-1.667627,-0.784766,1.336255,-2.110254,-2.255005,deaf
1616135311.110706,1,32.0,-2.0,77.0,75.0,53.0,0.628967,-0.049072,-0.772339,0.073975,0.244275,-0.167939,-0.389313,6.793725,-3.31731,-3.008667,-2.655762,-1.592261,-1.069482,1.61499,-1.958325,-2.068384,deaf
1616135311.1207492,1,38.0,-3.0,76.0,74.0,56.0,0.626953,-0.041565,-0.774475,0.073181,0.244275,-0.152672,-0.442748,7.019824,-3.143848,-3.344824,-2.436841,-1.52168,-1.354199,1.876978,-1.796826,-1.824341,deaf
1616135311.1315532,1,38.0,0.0,76.0,78.0,54.0,0.625305,-0.033325,-0.776306,0.07196,0.251908,-0.114504,-0.48855,7.302148,-2.941675,-3.639111,-2.164087,-1.437939,-1.604224,2.086328,-1.613794,-1.536035,deaf
1616135311.1406205,1,39.0,-1.0,79.0,73.0,55.0,0.624268,-0.024475,-0.777649,0.07019,0.259542,-0.061069,-0.534351,7.55935,-2.678491,-3.902295,-1.92124,-1.30874,-1.836304,2.275342,-1.391284,-1.288403,deaf
1616135311.150704,1,38.0,-1.0,76.0,73.0,54.0,0.623779,-0.014893,-0.778503,0.067993,0.267176,-0.022901,-0.572519,7.73999,-2.381812,-4.137964,-1.757349,-1.161597,-2.054028,2.45957,-1.1604,-1.120923,deaf
1616135311.1608994,1,38.0,0.0,76.0,75.0,56.0,0.623657,-0.004761,-0.778931,0.065552,0.290076,0.015267,-0.610687,7.854834,-2.038476,-4.331763,-1.660449,-0.978564,-2.238257,2.617481,-0.902002,-1.027612,deaf
1616135311.1708207,1,38.0,-4.0,78.0,73.0,53.0,0.623962,0.006287,-0.77887,0.06311,0.328244,0.045802,-0.648855,7.978052,-1.654468,-4.453784,-1.55398,-0.766821,-2.362671,2.706006,-0.616089,-0.937891,deaf
1616135311.180716,1,42.0,0.0,76.0,76.0,54.0,0.624573,0.01825,-0.778381,0.060913,0.381679,0.083969,-0.671756,8.058203,-1.253711,-4.555469,-1.491772,-0.546704,-2.472729,2.782568,-0.321802,-0.888843,deaf
1616135311.190687,1,38.0,0.0,77.0,72.0,57.0,0.625488,0.031128,-0.777405,0.059204,0.442748,0.10687,-0.687023,8.104858,-0.801514,-4.643994,-1.461865,-0.279932,-2.579199,2.847168,0.022729,-0.868506,deaf
1616135311.2007253,1,38.0,-2.0,77.0,74.0,56.0,0.626343,0.044861,-0.776062,0.058167,0.51145,0.114504,-0.694656,8.114429,-0.354102,-4.749268,-1.463062,-0.019141,-2.70481,2.927319,0.372046,-0.864917,deaf
1616135311.2107792,1,38.0,-2.0,75.0,73.0,57.0,0.627014,0.059387,-0.774536,0.058044,0.587786,0.114504,-0.687023,8.13357,0.057422,-4.853345,-1.452295,0.208154,-2.824439,2.989526,0.697437,-0.838599,deaf
1616135311.220598,1,38.0,-1.0,77.0,74.0,58.0,0.627441,0.074585,-0.772827,0.058777,0.656489,0.114504,-0.679389,8.188599,0.449805,-4.939477,-1.400854,0.42229,-2.92373,3.01106,1.012061,-0.768018,deaf
1616135311.2307775,1,38.0,-2.0,75.0,73.0,55.0,0.627808,0.090271,-0.770752,0.060242,0.709924,0.129771,-0.671756,8.333349,0.896021,-4.945459,-1.2573,0.695044,-2.941675,2.910571,1.364966,-0.613696,deaf
1616135311.240644,1,39.0,-4.0,76.0,74.0,57.0,0.62854,0.106079,-0.768005,0.06189,0.709924,0.167939,-0.656489,8.603711,1.446314,-4.782763,-0.985742,1.070679,-2.800513,2.593555,1.760937,-0.356494,deaf
1616135311.2505894,1,39.0,0.0,76.0,73.0,71.0,0.630127,0.121033,-0.764343,0.063416,0.656489,0.236641,-0.618321,9.002075,1.922436,-4.489673,-0.587378,1.376929,-2.550488,2.155713,2.022925,0.005981,deaf
1616135311.260579,1,38.0,-2.0,77.0,73.0,51.0,0.632812,0.13446,-0.759766,0.064941,0.587786,0.312977,-0.549618,9.364551,2.287305,-4.127197,-0.229687,1.586279,-2.258594,1.714282,2.149731,0.318213,deaf
1616135311.270669,1,38.0,-1.0,78.0,75.0,55.0,0.636414,0.145935,-0.754456,0.066589,0.51145,0.381679,-0.465649,9.608594,2.570825,-3.72644,0.007178,1.734619,-1.951147,1.305151,2.202368,0.507227,deaf
1616135311.2806478,1,38.0,0.0,79.0,75.0,56.0,0.640808,0.15564,-0.748657,0.068237,0.442748,0.435115,-0.389313,9.724634,2.755054,-3.310132,0.112451,1.800415,-1.649683,0.955835,2.177246,0.564648,deaf
1616135311.2905433,1,38.0,0.0,75.0,73.0,57.0,0.64563,0.164001,-0.742493,0.07019,0.40458,0.465649,-0.328244,9.713867,2.83042,-2.916553,0.092114,1.776489,-1.38291,0.689062,2.085132,0.497656,deaf
1616135311.3007286,1,37.0,-3.0,78.0,74.0,54.0,0.650513,0.17157,-0.736267,0.07251,0.389313,0.473282,-0.290076,9.66482,2.903394,-2.515796,0.033496,1.762134,-1.112549,0.42229,2.001392,0.397168,deaf
1616135311.3106277,1,38.0,-2.0,76.0,74.0,55.0,0.655457,0.178833,-0.729919,0.075073,0.396947,0.473282,-0.267176,9.68396,3.024219,-2.087524,0.043066,1.800415,-0.818262,0.110059,1.939185,0.372046,deaf
1616135311.3208032,1,38.0,-3.0,74.0,73.0,56.0,0.660583,0.185913,-0.723145,0.077942,0.40458,0.496183,-0.259542,9.80957,3.112744,-1.60542,0.161499,1.809985,-0.477319,-0.239258,1.806396,0.453394,deaf
1616135311.330728,1,40.0,-1.0,77.0,75.0,55.0,0.666077,0.19281,-0.715942,0.081116,0.40458,0.526718,-0.236641,9.949536,3.246728,-1.104175,0.295483,1.867407,-0.128003,-0.610107,1.701123,0.565845,deaf
1616135311.3405795,1,38.0,0.0,77.0,74.0,58.0,0.671875,0.19928,-0.708313,0.084473,0.396947,0.549618,-0.21374,10.018921,3.355591,-0.596948,0.361279,1.903296,0.214136,-0.955835,1.580298,0.619678,deaf
1616135311.3507123,1,37.0,-1.0,77.0,80.0,52.0,0.677734,0.205322,-0.7005,0.088257,0.396947,0.557252,-0.183206,10.005762,3.404639,-0.101685,0.344531,1.88894,0.541919,-1.262085,1.423584,0.595752,deaf
1616135311.3606496,1,38.0,-1.0,75.0,74.0,53.0,0.683472,0.210815,-0.692688,0.092407,0.389313,0.541985,-0.145038,9.968677,3.428565,0.409131,0.307446,1.859033,0.885254,-1.574316,1.241748,0.557471,deaf
1616135311.3704853,1,38.0,-3.0,78.0,73.0,53.0,0.688843,0.215759,-0.685242,0.096924,0.389313,0.51145,-0.099237,9.876562,3.360376,0.874487,0.214136,1.748975,1.189111,-1.813574,1.006079,0.459375,deaf
1616135311.380607,1,38.0,-1.0,74.0,74.0,55.0,0.693542,0.220276,-0.678284,0.102051,0.40458,0.458015,-0.053435,9.779663,3.183325,1.329077,0.118433,1.545605,1.496558,-2.013355,0.679492,0.349316,deaf
1616135311.390465,1,38.0,-1.0,79.0,73.0,55.0,0.69751,0.224243,-0.671997,0.107727,0.412214,0.40458,0.0,9.731812,3.074463,1.823145,0.070581,1.427173,1.859033,-2.29209,0.388794,0.301465,deaf
1616135311.400488,1,38.0,-2.0,77.0,76.0,55.0,0.700867,0.227905,-0.66626,0.113464,0.396947,0.343511,0.030534,9.761719,3.137866,2.32439,0.101685,1.488184,2.243042,-2.658154,0.223706,0.368457,deaf
1616135311.4107594,1,38.0,-1.0,74.0,73.0,53.0,0.703857,0.231079,-0.661133,0.11853,0.335878,0.290076,0.045802,9.928003,3.383106,2.845972,0.270361,1.73103,2.659351,-3.119922,0.177051,0.607715,deaf
1616135311.4205222,1,38.0,-1.0,75.0,74.0,53.0,0.706848,0.233521,-0.656372,0.122681,0.267176,0.259542,0.045802,10.118213,3.542212,3.29458,0.462964,1.884155,3.006274,-3.470435,0.08374,0.862524,deaf
1616135311.4305754,1,38.0,-2.0,74.0,75.0,55.0,0.709534,0.235168,-0.652161,0.126343,0.21374,0.221374,0.053435,10.291675,3.511108,3.602026,0.638818,1.855444,3.221606,-3.616382,-0.095703,1.06709,deaf
1616135311.4405618,1,39.0,-3.0,77.0,66.0,58.0,0.711853,0.236267,-0.648438,0.129883,0.198473,0.198473,0.068702,10.437622,3.356787,3.767114,0.788355,1.710693,3.302954,-3.587671,-0.300269,1.219019,deaf
1616135311.4507358,1,37.0,-1.0,58.0,75.0,54.0,0.713867,0.237305,-0.645203,0.133606,0.206107,0.175573,0.076336,10.493848,3.157007,3.797021,0.84458,1.525269,3.258691,-3.441724,-0.46416,1.263281,deaf
1616135311.460658,1,38.0,-2.0,77.0,75.0,53.0,0.715393,0.238525,-0.642212,0.137451,0.229008,0.152672,0.083969,10.447192,3.001489,3.757544,0.799121,1.386499,3.155811,-3.280225,-0.544312,1.208252,deaf
1616135311.470617,1,38.0,-3.0,76.0,75.0,53.0,0.716553,0.240112,-0.639404,0.141479,0.251908,0.137405,0.083969,10.29646,2.883057,3.676196,0.649585,1.283618,3.019433,-3.123511,-0.568237,1.050342,deaf
1616135311.480683,1,38.0,-3.0,77.0,73.0,55.0,0.717224,0.241943,-0.637085,0.145508,0.259542,0.099237,0.091603,10.05481,2.812476,3.54939,0.407935,1.227393,2.850757,-2.97876,-0.526367,0.80271,deaf
1616135311.490747,1,38.0,-5.0,76.0,74.0,54.0,0.717285,0.243774,-0.635315,0.149597,0.259542,0.053435,0.114504,9.8323,2.786157,3.413013,0.185425,1.221411,2.689258,-2.867505,-0.447412,0.575415,deaf
1616135311.500436,1,38.0,-2.0,78.0,74.0,56.0,0.71698,0.245178,-0.634216,0.153442,0.221374,0.015267,0.137405,9.689941,2.758643,3.314917,0.039478,1.220215,2.576807,-2.790942,-0.394775,0.423486,deaf
1616135311.5106187,1,38.0,-3.0,76.0,72.0,57.0,0.716492,0.24585,-0.633667,0.156982,0.183206,-0.015267,0.152672,9.587061,2.633032,3.214429,-0.066992,1.129297,2.469141,-2.666528,-0.417505,0.294287,deaf
1616135311.5205157,1,38.0,-2.0,78.0,73.0,54.0,0.71582,0.245972,-0.633606,0.160217,0.137405,-0.030534,0.152672,9.503321,2.349512,3.074463,-0.15791,0.887646,2.327979,-2.430859,-0.544312,0.153125,deaf
1616135311.5305033,1,39.0,-1.0,76.0,75.0,54.0,0.715088,0.24585,-0.633728,0.163025,0.114504,-0.038168,0.114504,9.414795,1.835107,2.873486,-0.252417,0.413916,2.129395,-2.020532,-0.826636,-0.026318,deaf
1616135311.5405004,1,37.0,-3.0,78.0,73.0,55.0,0.714417,0.246216,-0.633789,0.165283,0.122137,-0.030534,0.030534,9.329859,1.093408,2.583984,-0.342139,-0.300269,1.844678,-1.403247,-1.256104,-0.240454,deaf
1616135311.5505493,1,38.0,0.0,78.0,73.0,52.0,0.713806,0.247498,-0.633423,0.167297,0.167939,-0.015267,-0.053435,9.228174,0.333765,2.274146,-0.44502,-1.051538,1.538428,-0.745288,-1.699927,-0.471338,deaf
1616135311.560532,1,38.0,-2.0,74.0,76.0,56.0,0.713379,0.249817,-0.632568,0.168884,0.19084,0.007634,-0.122137,9.108545,-0.12561,2.003784,-0.562256,-1.524072,1.269263,-0.269165,-1.927222,-0.6771,deaf
1616135311.57062,1,38.0,-5.0,76.0,73.0,56.0,0.713318,0.252686,-0.631226,0.169983,0.183206,0.030534,-0.152672,9.006861,-0.252417,1.806396,-0.659155,-1.681982,1.06709,-0.020337,-1.933203,-0.814673,deaf
1616135311.5804565,1,38.0,-3.0,74.0,76.0,53.0,0.713623,0.25531,-0.629639,0.170471,0.137405,0.045802,-0.137405,8.909961,-0.084937,1.687964,-0.748877,-1.551587,0.935498,0.004785,-1.741797,-0.898413,deaf
1616135311.59048,1,39.0,-3.0,74.0,74.0,55.0,0.714294,0.256897,-0.628296,0.17041,0.045802,0.045802,-0.099237,8.778369,0.265576,1.61499,-0.875684,-1.232178,0.84458,-0.119629,-1.418799,-0.984546,deaf
1616135311.6006796,1,65.0,-2.0,77.0,72.0,54.0,0.715088,0.257141,-0.627441,0.169617,-0.045802,0.030534,-0.053435,8.662329,0.606519,1.558765,-0.985742,-0.911572,0.771606,-0.261987,-1.106567,-1.049145,deaf
1616135311.6104038,1,38.0,-1.0,77.0,73.0,53.0,0.715942,0.256042,-0.627319,0.168335,-0.129771,0.007634,-0.015267,8.640796,0.803906,1.504932,-1.006079,-0.71897,0.702222,-0.322998,-0.907983,-1.04436,deaf
1616135311.620403,1,38.0,-4.0,75.0,73.0,54.0,0.716797,0.253906,-0.627563,0.166931,-0.175573,0.0,0.007634,8.707788,0.845776,1.440332,-0.939087,-0.667529,0.623267,-0.282324,-0.826636,-0.974976,deaf
1616135311.630529,1,38.0,-3.0,74.0,73.0,56.0,0.71759,0.251404,-0.628052,0.165405,-0.19084,0.0,0.015267,8.817846,0.799121,1.380518,-0.830225,-0.699829,0.550293,-0.192603,-0.820654,-0.87688,deaf
1616135311.6404712,1,37.0,-3.0,74.0,76.0,54.0,0.718445,0.248901,-0.628479,0.16394,-0.183206,0.007634,0.0,8.900391,0.707007,1.309937,-0.748877,-0.777588,0.465356,-0.071777,-0.843384,-0.814673,deaf
1616135311.6504073,1,37.0,-3.0,76.0,77.0,56.0,0.719177,0.246887,-0.628784,0.162537,-0.152672,0.007634,-0.022901,8.979345,0.610107,1.262085,-0.669922,-0.866113,0.405542,0.0323,-0.890039,-0.753662,deaf
1616135311.6606996,1,38.0,-1.0,77.0,75.0,55.0,0.71991,0.245728,-0.628784,0.161072,-0.114504,0.007634,-0.061069,9.069067,0.558667,1.21543,-0.577808,-0.922339,0.34812,0.119629,-0.911572,-0.6771,deaf
1616135311.6705582,1,38.0,1.0,78.0,77.0,57.0,0.720581,0.245422,-0.62854,0.159546,-0.068702,0.007634,-0.10687,9.169556,0.556274,1.178345,-0.474927,-0.943872,0.301465,0.183032,-0.911572,-0.583789,deaf
1616135311.6804318,1,38.0,-1.0,76.0,73.0,54.0,0.72113,0.246094,-0.628052,0.157837,-0.030534,0.007634,-0.152672,9.27124,0.584985,1.155615,-0.366064,-0.949854,0.27395,0.223706,-0.907983,-0.483301,deaf
1616135311.6895733,1,39.0,1.0,78.0,74.0,57.0,0.72168,0.247559,-0.627319,0.156067,0.0,0.007634,-0.183206,9.328662,0.672314,1.155615,-0.301465,-0.910376,0.269165,0.215332,-0.87688,-0.418701,deaf
1616135311.7004926,1,38.0,-3.0,77.0,74.0,57.0,0.722229,0.249634,-0.626343,0.154114,0.022901,0.0,-0.206107,9.320288,0.856543,1.196289,-0.299072,-0.784766,0.30625,0.11604,-0.791943,-0.397168,deaf
1616135311.7098482,1,38.0,-1.0,78.0,75.0,53.0,0.722717,0.252014,-0.625305,0.151978,0.022901,-0.007634,-0.21374,9.250903,1.065894,1.253711,-0.356494,-0.641211,0.362476,-0.017944,-0.69624,-0.428271,deaf
1616135311.720501,1,39.0,-1.0,77.0,73.0,55.0,0.723145,0.254272,-0.624512,0.149658,0.007634,-0.030534,-0.206107,9.179126,1.277637,1.327881,-0.417505,-0.494067,0.439038,-0.172266,-0.608911,-0.458179,deaf
1616135311.730567,1,39.0,-3.0,76.0,76.0,56.0,0.723389,0.256226,-0.623962,0.147278,-0.007634,-0.045802,-0.19084,9.139648,1.483398,1.376929,-0.446216,-0.34812,0.494067,-0.301465,-0.513208,-0.456982,deaf
1616135311.7404606,1,38.0,-1.0,78.0,73.0,53.0,0.723511,0.257874,-0.623718,0.144775,-0.030534,-0.061069,-0.175573,9.173144,1.642505,1.380518,-0.403149,-0.244043,0.508423,-0.363672,-0.436646,-0.394775,deaf
1616135311.7504823,1,36.0,-2.0,76.0,72.0,55.0,0.723511,0.259338,-0.623657,0.142334,-0.030534,-0.068702,-0.167939,9.28081,1.732227,1.337451,-0.285913,-0.204565,0.479712,-0.340942,-0.399561,-0.277539,deaf
1616135311.760485,1,38.0,0.0,76.0,76.0,55.0,0.723389,0.260803,-0.623779,0.140015,-0.022901,-0.068702,-0.160305,9.424365,1.838696,1.275244,-0.135181,-0.147144,0.434253,-0.30625,-0.343335,-0.124414,deaf
1616135311.770474,1,38.0,-3.0,78.0,73.0,56.0,0.723206,0.262451,-0.623779,0.137695,-0.015267,-0.068702,-0.167939,9.565527,2.013355,1.207056,0.014355,-0.022729,0.382812,-0.302661,-0.230884,0.040674,deaf
1616135311.780419,1,38.0,-1.0,76.0,75.0,55.0,0.723083,0.264282,-0.623657,0.135376,-0.015267,-0.053435,-0.167939,9.701904,2.223901,1.153223,0.161499,0.132788,0.345728,-0.326587,-0.101685,0.212939,deaf
1616135311.7899766,1,38.0,-4.0,78.0,74.0,55.0,0.723206,0.265991,-0.623352,0.132996,-0.015267,-0.038168,-0.167939,9.79043,2.400952,1.102978,0.260791,0.25481,0.305054,-0.337354,0.004785,0.333765,deaf
1616135311.7998817,1,37.0,-3.0,77.0,76.0,57.0,0.723389,0.267517,-0.622864,0.130798,-0.022901,-0.022901,-0.152672,9.826319,2.555274,1.049145,0.308643,0.358887,0.256006,-0.340942,0.108862,0.400757,deaf
1616135311.809874,1,38.0,-3.0,74.0,74.0,57.0,0.723755,0.268799,-0.622375,0.128662,-0.030534,-0.015267,-0.137405,9.808374,2.71438,1.004883,0.301465,0.470142,0.212939,-0.363672,0.224902,0.416309,deaf
1616135311.819916,1,38.0,-3.0,77.0,74.0,53.0,0.724182,0.269775,-0.621887,0.126648,-0.045802,-0.007634,-0.114504,9.752149,2.865112,0.959424,0.25481,0.579004,0.165088,-0.387598,0.345728,0.394775,deaf
1616135311.8296945,1,38.0,-1.0,76.0,72.0,55.0,0.724548,0.270386,-0.621521,0.124695,-0.061069,-0.015267,-0.091603,9.68396,2.991919,0.919946,0.196191,0.671118,0.124414,-0.411523,0.453394,0.358887,deaf
1616135315.6754746,1,39.0,-1.0,74.0,73.0,115.0,0.749268,0.153809,-0.643494,-0.029419,-0.007634,-0.007634,0.0,9.304736,2.63064,1.205859,-0.056226,0.0,-0.014355,0.003589,0.015552,-0.055029,deaf
1616135315.685572,1,39.0,-1.0,78.0,74.0,55.0,0.749268,0.153687,-0.643494,-0.029419,-0.007634,0.0,0.0,9.296362,2.635425,1.201074,-0.0646,0.007178,-0.019141,0.005981,0.025122,-0.061011,deaf
1616135315.694815,1,39.0,1.0,76.0,74.0,57.0,0.749268,0.153564,-0.643494,-0.02948,-0.007634,-0.007634,0.007634,9.283203,2.631836,1.201074,-0.077759,0.004785,-0.019141,0.003589,0.026318,-0.075366,deaf
1616135315.7056613,1,41.0,1.0,76.0,74.0,52.0,0.749268,0.153381,-0.643555,-0.029419,-0.007634,-0.007634,0.007634,9.272436,2.629443,1.198682,-0.089722,0.004785,-0.021533,0.004785,0.029907,-0.086133,deaf
1616135315.7155938,1,40.0,0.0,72.0,75.0,56.0,0.749268,0.153198,-0.643616,-0.029419,-0.015267,-0.007634,0.007634,9.278418,2.624658,1.196289,-0.084937,0.003589,-0.023926,0.007178,0.027515,-0.082544,deaf
1616135315.7248878,1,40.0,-1.0,74.0,75.0,58.0,0.749268,0.152954,-0.643677,-0.029358,-0.015267,-0.007634,0.007634,9.283203,2.599536,1.189111,-0.081348,-0.016748,-0.031104,0.017944,0.00957,-0.084937,deaf
1616135315.7355447,1,39.0,0.0,77.0,76.0,56.0,0.749268,0.152771,-0.643738,-0.029297,-0.007634,-0.007634,0.007634,9.277222,2.578003,1.186719,-0.088525,-0.034692,-0.033496,0.022729,-0.004785,-0.096899,deaf
1616135315.7455864,1,38.0,-1.0,77.0,74.0,55.0,0.749268,0.152649,-0.643738,-0.029297,-0.007634,-0.007634,0.0,9.272436,2.555274,1.184326,-0.093311,-0.055029,-0.035889,0.027515,-0.022729,-0.107666,deaf
1616135315.755519,1,38.0,-1.0,72.0,73.0,55.0,0.749268,0.152588,-0.643799,-0.029236,-0.007634,-0.007634,0.0,9.259277,2.528955,1.179541,-0.107666,-0.080151,-0.039478,0.0323,-0.04187,-0.128003,deaf
1616135315.7656536,1,40.0,0.0,78.0,73.0,54.0,0.749268,0.152588,-0.643799,-0.029175,0.0,-0.007634,0.0,9.241333,2.519385,1.181934,-0.12561,-0.088525,-0.037085,0.027515,-0.046655,-0.147144,deaf
1616135315.7748594,1,38.0,-3.0,74.0,73.0,55.0,0.749207,0.152649,-0.64386,-0.029114,0.0,-0.007634,-0.007634,9.222193,2.530151,1.191504,-0.144751,-0.077759,-0.026318,0.011963,-0.033496,-0.161499,deaf
1616135315.7857463,1,39.0,0.0,78.0,75.0,52.0,0.749084,0.15271,-0.643982,-0.029175,0.0,-0.015267,-0.007634,9.211426,2.532544,1.196289,-0.155518,-0.077759,-0.017944,0.002393,-0.0323,-0.171069,deaf
1616135315.7955832,1,29.0,-2.0,76.0,74.0,55.0,0.748962,0.152832,-0.644043,-0.029114,0.0,-0.015267,-0.007634,9.204248,2.530151,1.195093,-0.162695,-0.080151,-0.015552,0.0,-0.033496,-0.178247,deaf
1616135315.8055863,1,39.0,-1.0,77.0,74.0,57.0,0.74884,0.152893,-0.644165,-0.029114,0.0,-0.015267,-0.007634,9.198267,2.542114,1.190308,-0.168677,-0.069385,-0.016748,-0.001196,-0.021533,-0.18064,deaf
1616135315.8157818,1,41.0,1.0,76.0,75.0,56.0,0.748718,0.153015,-0.644348,-0.029114,0.0,-0.015267,-0.007634,9.198267,2.538525,1.167578,-0.169873,-0.07417,-0.035889,0.016748,-0.022729,-0.185425,deaf
1616135315.8255906,1,40.0,-2.0,77.0,72.0,58.0,0.748535,0.153076,-0.64447,-0.029114,0.0,-0.015267,-0.007634,9.201856,2.546899,1.149634,-0.165088,-0.065796,-0.049048,0.029907,-0.013159,-0.18064,deaf
1616135315.8355806,1,41.0,-1.0,75.0,75.0,56.0,0.748413,0.153259,-0.644592,-0.029175,0.0,-0.007634,-0.015267,9.2198,2.548096,1.135278,-0.147144,-0.068188,-0.059814,0.043066,-0.016748,-0.165088,deaf
1616135315.8457367,1,38.0,-3.0,76.0,71.0,56.0,0.748352,0.153503,-0.644653,-0.029236,0.007634,-0.007634,-0.015267,9.24851,2.554077,1.110156,-0.118433,-0.065796,-0.082544,0.070581,-0.017944,-0.139966,deaf
1616135315.8555334,1,40.0,-2.0,76.0,76.0,57.0,0.748352,0.153748,-0.644592,-0.029236,0.007634,0.007634,-0.015267,9.262866,2.568433,1.096997,-0.102881,-0.055029,-0.095703,0.08374,-0.008374,-0.124414,deaf
1616135315.8655224,1,40.0,-2.0,74.0,73.0,55.0,0.748413,0.153992,-0.644409,-0.029236,0.007634,0.007634,-0.015267,9.255689,2.599536,1.089819,-0.107666,-0.027515,-0.105273,0.088525,0.019141,-0.122021,deaf
1616135315.8748982,1,38.0,-3.0,74.0,73.0,47.0,0.748535,0.154175,-0.644226,-0.029236,0.0,0.015267,-0.007634,9.232959,2.63064,1.083838,-0.129199,0.0,-0.114844,0.089722,0.052637,-0.136377,deaf
1616135315.8848443,1,40.0,1.0,77.0,72.0,56.0,0.748718,0.154297,-0.643982,-0.029297,-0.007634,0.015267,-0.007634,9.199463,2.655762,1.087427,-0.161499,0.021533,-0.11604,0.081348,0.081348,-0.162695,deaf
1616135315.894889,1,41.0,1.0,76.0,73.0,56.0,0.748901,0.154236,-0.643799,-0.029297,-0.007634,0.015267,0.0,9.185107,2.667725,1.10896,-0.175854,0.033496,-0.100488,0.062207,0.093311,-0.171069,deaf
1616135315.904759,1,39.0,0.0,75.0,75.0,56.0,0.749023,0.154175,-0.643677,-0.029236,-0.007634,0.007634,0.0,9.194677,2.668921,1.143652,-0.166284,0.035889,-0.069385,0.033496,0.087329,-0.156714,deaf
1616135315.915038,1,43.0,-2.0,74.0,74.0,56.0,0.749207,0.154114,-0.643494,-0.029175,-0.007634,0.007634,0.0,9.207837,2.66294,1.175952,-0.153125,0.031104,-0.04187,0.00957,0.07417,-0.142358,deaf
1616135315.9248042,1,41.0,0.0,77.0,78.0,58.0,0.749329,0.154053,-0.643372,-0.029053,0.0,0.007634,0.0,9.225781,2.633032,1.204663,-0.135181,0.003589,-0.016748,-0.007178,0.038281,-0.129199,deaf
1616135315.9351015,1,41.0,0.0,77.0,76.0,58.0,0.749451,0.154114,-0.64325,-0.028931,0.007634,0.007634,0.0,9.247314,2.609107,1.244141,-0.113647,-0.019141,0.019141,-0.034692,0.004785,-0.111255,deaf
1616135315.9449246,1,41.0,-1.0,76.0,75.0,55.0,0.749512,0.154236,-0.643127,-0.028809,0.007634,0.0,-0.007634,9.277222,2.621069,1.283618,-0.082544,-0.007178,0.056226,-0.066992,0.001196,-0.072974,deaf
1616135315.9549394,1,39.0,0.0,78.0,76.0,57.0,0.749573,0.154419,-0.643005,-0.028748,0.007634,0.0,-0.007634,9.301147,2.629443,1.31831,-0.058618,-0.001196,0.088525,-0.095703,-0.003589,-0.044263,deaf
1616135315.964796,1,40.0,0.0,78.0,74.0,56.0,0.749573,0.154602,-0.642944,-0.028748,0.0,-0.007634,-0.007634,9.309522,2.636621,1.335059,-0.049048,0.002393,0.105273,-0.110059,-0.005981,-0.0323,deaf
1616135315.9748476,1,41.0,-1.0,77.0,73.0,58.0,0.749573,0.154663,-0.642944,-0.028748,0.0,-0.007634,-0.007634,9.317896,2.635425,1.369751,-0.040674,0.0,0.139966,-0.142358,-0.016748,-0.020337,deaf
1616135315.9847262,1,39.0,1.0,78.0,73.0,56.0,0.749573,0.154663,-0.642944,-0.028748,0.0,-0.015267,0.0,9.332251,2.63064,1.402051,-0.026318,-0.003589,0.172266,-0.171069,-0.029907,-0.003589,deaf
1616135315.9947934,1,42.0,-1.0,77.0,73.0,56.0,0.749451,0.154602,-0.643066,-0.028748,-0.007634,-0.022901,0.0,9.358569,2.64021,1.451099,0.0,0.005981,0.224902,-0.218921,-0.037085,0.028711,deaf
1616135316.0048664,1,40.0,-3.0,76.0,74.0,57.0,0.74939,0.154419,-0.64325,-0.02887,-0.015267,-0.022901,0.0,9.401636,2.641406,1.496558,0.040674,0.008374,0.272754,-0.259595,-0.053833,0.07417,deaf
1616135316.0152855,1,39.0,-3.0,77.0,75.0,55.0,0.749268,0.154053,-0.643433,-0.028931,-0.022901,-0.030534,0.007634,9.450684,2.650977,1.551587,0.088525,0.022729,0.331372,-0.309839,-0.063403,0.131592,deaf
1616135316.0248115,1,40.0,-2.0,78.0,75.0,55.0,0.749146,0.153564,-0.643677,-0.029053,-0.030534,-0.038168,0.015267,9.492554,2.671314,1.607813,0.128003,0.049048,0.38999,-0.364868,-0.058618,0.183032,deaf
1616135316.034889,1,41.0,1.0,76.0,73.0,55.0,0.748962,0.152832,-0.644043,-0.029175,-0.038168,-0.045802,0.022901,9.530835,2.67251,1.659253,0.163892,0.059814,0.447412,-0.416309,-0.066992,0.227295,deaf
1616135316.0447552,1,39.0,-3.0,78.0,75.0,57.0,0.748779,0.151917,-0.644531,-0.029358,-0.045802,-0.053435,0.030534,9.582275,2.683276,1.703516,0.209351,0.082544,0.497656,-0.461768,-0.065796,0.282324,deaf
1616135316.0547218,1,40.0,-1.0,76.0,75.0,57.0,0.748474,0.15094,-0.645081,-0.029541,-0.053435,-0.061069,0.030534,9.64209,2.69165,1.745386,0.265576,0.102881,0.5479,-0.504834,-0.068188,0.34812,deaf
1616135316.0647285,1,39.0,-1.0,77.0,74.0,53.0,0.748047,0.149963,-0.645813,-0.029724,-0.053435,-0.076336,0.030534,9.697119,2.717969,1.7729,0.314624,0.142358,0.587378,-0.541919,-0.047852,0.409131,deaf
1616135316.074902,1,39.0,-2.0,74.0,74.0,52.0,0.747559,0.148926,-0.646606,-0.030029,-0.053435,-0.083969,0.038168,9.747363,2.770606,1.796826,0.360083,0.206958,0.625659,-0.582593,-0.002393,0.47373,deaf
1616135316.0847893,1,39.0,-1.0,77.0,74.0,56.0,0.746948,0.147766,-0.647522,-0.030273,-0.061069,-0.091603,0.045802,9.817945,2.841187,1.802808,0.424683,0.293091,0.648389,-0.607715,0.061011,0.558667,deaf
1616135316.0947185,1,39.0,-1.0,77.0,77.0,26.0,0.746277,0.146423,-0.64856,-0.03064,-0.068702,-0.099237,0.053435,9.889722,2.929712,1.793237,0.490479,0.398364,0.657959,-0.623267,0.147144,0.648389,deaf
1616135316.1047156,1,39.0,-1.0,76.0,73.0,54.0,0.745483,0.144897,-0.649841,-0.030945,-0.076336,-0.114504,0.068702,9.975855,3.048145,1.765723,0.568237,0.535937,0.653174,-0.626855,0.263184,0.756055,deaf
1616135316.1146822,1,39.0,0.0,78.0,75.0,56.0,0.744507,0.143311,-0.651245,-0.031494,-0.091603,-0.129771,0.068702,10.099072,3.195288,1.73103,0.684277,0.701025,0.645996,-0.626855,0.399561,0.906787,deaf
1616135316.1247523,1,39.0,-4.0,77.0,73.0,55.0,0.743408,0.141541,-0.652832,-0.032104,-0.099237,-0.145038,0.068702,10.237842,3.269458,1.672412,0.813477,0.795532,0.618481,-0.595752,0.467749,1.049145,deaf
1616135316.1347277,1,41.0,0.0,77.0,76.0,58.0,0.742188,0.139709,-0.654663,-0.032471,-0.091603,-0.152672,0.083969,10.373022,3.313721,1.609009,0.937891,0.863721,0.590967,-0.563452,0.513208,1.179541,deaf
1616135316.1447144,1,41.0,3.0,76.0,76.0,58.0,0.740784,0.137878,-0.656616,-0.032593,-0.076336,-0.167939,0.10687,10.48667,3.409424,1.568335,1.040771,0.986938,0.590967,-0.569434,0.6125,1.305151,deaf
1616135316.154972,1,39.0,-1.0,74.0,75.0,54.0,0.739197,0.135925,-0.658813,-0.032471,-0.068702,-0.183206,0.129771,10.576391,3.541016,1.52168,1.117334,1.152026,0.590967,-0.586182,0.759644,1.41521,deaf
1616135316.1646814,1,38.0,0.0,76.0,73.0,55.0,0.737427,0.13385,-0.661194,-0.032104,-0.068702,-0.198473,0.160305,10.65415,3.691748,1.482202,1.180737,1.34104,0.601733,-0.619678,0.931909,1.516895,deaf
1616135316.1747286,1,39.0,0.0,76.0,74.0,57.0,0.735474,0.131348,-0.66394,-0.031433,-0.068702,-0.221374,0.19084,10.749853,3.816162,1.433154,1.259692,1.513306,0.611304,-0.648389,1.087427,1.625757,deaf
1616135316.184853,1,40.0,0.0,76.0,75.0,55.0,0.733337,0.128479,-0.666931,-0.030396,-0.076336,-0.244275,0.229008,10.851538,3.909473,1.390088,1.34104,1.665234,0.630444,-0.68667,1.223804,1.73103,deaf
1616135316.1947443,1,41.0,-1.0,77.0,75.0,58.0,0.731018,0.125,-0.670227,-0.029053,-0.083969,-0.259542,0.274809,10.971167,4.014746,1.355396,1.439136,1.841089,0.665137,-0.742895,1.381714,1.854248,deaf
1616135316.2047462,1,43.0,-3.0,76.0,73.0,56.0,0.728577,0.12085,-0.673706,-0.027405,-0.10687,-0.274809,0.328244,11.113525,4.117627,1.31831,1.557568,2.028906,0.699829,-0.799121,1.552783,1.994214,deaf
1616135316.2148206,1,40.0,0.0,76.0,75.0,57.0,0.726074,0.115906,-0.677307,-0.025452,-0.129771,-0.282443,0.374046,11.235547,4.189404,1.294385,1.654468,2.201172,0.748877,-0.869702,1.717871,2.105469,deaf
1616135316.224687,1,40.0,1.0,74.0,73.0,55.0,0.723572,0.110107,-0.68103,-0.023132,-0.152672,-0.282443,0.427481,11.267847,4.177442,1.222607,1.659253,2.306445,0.750073,-0.892432,1.84707,2.103076,deaf
1616135316.2347136,1,41.0,0.0,76.0,73.0,55.0,0.720947,0.103394,-0.684875,-0.020569,-0.183206,-0.29771,0.480916,11.217603,4.102075,1.136475,1.581494,2.363867,0.739307,-0.900806,1.949951,2.003784,deaf
1616135316.2446322,1,40.0,-1.0,77.0,71.0,53.0,0.718262,0.095764,-0.688904,-0.0177,-0.206107,-0.305344,0.534351,11.076441,3.982446,1.02522,1.410425,2.394971,0.707007,-0.885254,2.046851,1.801611,deaf
1616135316.2545907,1,29.0,-3.0,75.0,72.0,53.0,0.715271,0.087341,-0.693176,-0.014648,-0.236641,-0.328244,0.572519,10.83479,3.740796,0.891235,1.14126,2.317212,0.657959,-0.840991,2.049243,1.47981,deaf
1616135316.264614,1,40.0,-1.0,77.0,75.0,57.0,0.712036,0.078186,-0.697632,-0.01123,-0.244275,-0.343511,0.603053,10.554858,3.361572,0.721362,0.83501,2.116235,0.5802,-0.752466,1.929614,1.104175,deaf
1616135316.2745686,1,41.0,0.0,74.0,74.0,55.0,0.708557,0.068665,-0.702271,-0.007446,-0.236641,-0.351145,0.625954,10.224683,2.89502,0.497656,0.480908,1.838696,0.455786,-0.605322,1.729834,0.6771,deaf
1616135316.284583,1,41.0,-1.0,76.0,73.0,56.0,0.704651,0.059021,-0.707092,-0.003174,-0.221374,-0.374046,0.641221,9.858618,2.436841,0.244043,0.095703,1.576709,0.311035,-0.434253,1.532446,0.230884,deaf
1616135316.2947974,1,39.0,-1.0,77.0,73.0,55.0,0.700317,0.049316,-0.712097,0.001282,-0.21374,-0.389313,0.648855,9.518872,2.003784,-0.027515,-0.256006,1.344629,0.159106,-0.251221,1.343433,-0.16748,deaf
1616135316.3049018,1,39.0,-3.0,74.0,71.0,53.0,0.695801,0.039673,-0.717163,0.005859,-0.21374,-0.396947,0.641221,9.242529,1.597046,-0.284717,-0.541919,1.137671,0.025122,-0.082544,1.158008,-0.488086,deaf
1616135316.3146057,1,39.0,-3.0,76.0,74.0,54.0,0.691101,0.030151,-0.722046,0.010437,-0.206107,-0.381679,0.625954,9.083423,1.1927,-0.545508,-0.702222,0.931909,-0.108862,0.08374,0.955835,-0.671118,deaf
1616135316.3247578,1,39.0,0.0,78.0,74.0,49.0,0.686707,0.020813,-0.726501,0.014771,-0.206107,-0.351145,0.603053,8.921924,0.809888,-0.829028,-0.861328,0.739307,-0.275146,0.284717,0.759644,-0.838599,deaf
1616135316.334782,1,43.0,0.0,76.0,75.0,56.0,0.682434,0.01178,-0.730591,0.018982,-0.198473,-0.312977,0.580153,8.722143,0.440234,-1.122119,-1.053931,0.553882,-0.456982,0.502441,0.563452,-1.026416,deaf
1616135316.3446748,1,39.0,-1.0,77.0,77.0,55.0,0.678589,0.003174,-0.734192,0.022888,-0.19084,-0.274809,0.541985,8.486475,0.07417,-1.416406,-1.278833,0.361279,-0.650781,0.735718,0.351709,-1.233374,deaf
1616135316.3546977,1,39.0,-1.0,76.0,73.0,55.0,0.675049,-0.004822,-0.737244,0.026672,-0.167939,-0.229008,0.496183,8.222095,-0.319409,-1.708301,-1.528857,0.129199,-0.85415,0.980957,0.090918,-1.452295,deaf
1616135316.3646364,1,39.0,-1.0,78.0,73.0,56.0,0.672058,-0.012085,-0.739746,0.030334,-0.137405,-0.175573,0.450382,7.952929,-0.733325,-1.951147,-1.783667,-0.133984,-1.021631,1.190308,-0.208154,-1.666431,deaf
1616135316.374851,1,39.0,-1.0,76.0,73.0,57.0,0.669678,-0.018616,-0.741638,0.03418,-0.099237,-0.122137,0.412214,7.725635,-1.09939,-2.125806,-1.99541,-0.35769,-1.137671,1.342236,-0.47373,-1.8375,deaf
1616135316.384687,1,34.0,-3.0,75.0,75.0,54.0,0.667908,-0.024658,-0.742859,0.038025,-0.083969,-0.068702,0.396947,7.523462,-1.37334,-2.253808,-2.182031,-0.49646,-1.225,1.45708,-0.655566,-1.988232,deaf
1616135316.3947752,1,38.0,-1.0,76.0,76.0,55.0,0.666748,-0.03064,-0.74353,0.041687,-0.083969,-0.022901,0.389313,7.247119,-1.588672,-2.368652,-2.444019,-0.5802,-1.314722,1.579102,-0.795532,-2.215527,deaf
1616135316.4048288,1,42.0,-1.0,77.0,73.0,55.0,0.66571,-0.036682,-0.743958,0.045227,-0.099237,-0.007634,0.381679,6.900195,-1.843481,-2.463159,-2.774194,-0.704614,-1.388892,1.691553,-0.991724,-2.503833,deaf
1616135316.4147797,1,40.0,0.0,74.0,74.0,55.0,0.664551,-0.042847,-0.744446,0.048645,-0.10687,-0.022901,0.374046,6.605908,-2.048047,-2.515796,-3.049341,-0.77998,-1.417603,1.75376,-1.142456,-2.744287,deaf
1616135316.4247885,1,39.0,0.0,77.0,73.0,39.0,0.663269,-0.048828,-0.745056,0.051453,-0.129771,-0.030534,0.335878,6.449194,-2.25022,-2.528955,-3.186914,-0.863721,-1.402051,1.756152,-1.287207,-2.84956,deaf
1616135316.4346318,1,40.0,1.0,79.0,73.0,54.0,0.661926,-0.054382,-0.745667,0.053833,-0.129771,-0.038168,0.290076,6.39895,-2.550488,-2.555274,-3.216821,-1.05752,-1.398462,1.756152,-1.522876,-2.83042,deaf
1616135316.4448178,1,39.0,-5.0,76.0,76.0,56.0,0.660645,-0.059265,-0.746277,0.055908,-0.10687,-0.030534,0.229008,6.438428,-2.890234,-2.562451,-3.1594,-1.303955,-1.376929,1.726245,-1.792041,-2.716773,deaf
1616135316.4546115,1,41.0,-23.0,82.0,73.0,57.0,0.659729,-0.063049,-0.746643,0.057739,-0.068702,-0.007634,0.152672,6.549683,-3.27544,-2.551685,-3.032593,-1.61499,-1.347021,1.676001,-2.103076,-2.525366,deaf
1616135316.46467,1,39.0,-3.0,76.0,74.0,56.0,0.65918,-0.065369,-0.746826,0.059509,-0.007634,0.007634,0.083969,6.645386,-3.612793,-2.493066,-2.926123,-1.896118,-1.277637,1.589868,-2.378223,-2.367456,deaf
1616135316.4748352,1,39.0,1.0,78.0,74.0,54.0,0.658997,-0.066223,-0.746765,0.061157,0.045802,0.022901,0.007634,6.718359,-3.824536,-2.374634,-2.847168,-2.073169,-1.158008,1.459473,-2.545703,-2.264575,deaf
1616135316.4845457,1,41.0,-4.0,58.0,76.0,55.0,0.659119,-0.065735,-0.746521,0.062683,0.099237,0.030534,-0.053435,6.741089,-3.923828,-2.209546,-2.822046,-2.156909,-1.001294,1.305151,-2.623462,-2.240649,deaf
1616135316.494813,1,39.0,0.0,77.0,74.0,58.0,0.659302,-0.064026,-0.746399,0.063965,0.129771,0.015267,-0.10687,6.739892,-3.871192,-2.033691,-2.824439,-2.107861,-0.832617,1.147241,-2.572021,-2.275342,deaf
1616135316.5046184,1,40.0,-2.0,77.0,73.0,57.0,0.659363,-0.061401,-0.74646,0.064819,0.145038,-0.007634,-0.160305,6.793725,-3.722852,-1.862622,-2.774194,-1.979858,-0.666333,0.989331,-2.428467,-2.275342,deaf
1616135316.5147085,1,41.0,-1.0,76.0,74.0,56.0,0.659363,-0.058105,-0.746704,0.065186,0.145038,-0.015267,-0.198473,6.893018,-3.59126,-1.760937,-2.68208,-1.885352,-0.565845,0.891235,-2.307642,-2.222705,deaf
1616135316.5245447,1,38.0,-2.0,78.0,74.0,55.0,0.659241,-0.054321,-0.747131,0.065369,0.160305,-0.030534,-0.229008,6.991113,-3.478809,-1.734619,-2.592358,-1.819556,-0.535937,0.863721,-2.213135,-2.160498,deaf
1616135316.534798,1,41.0,-1.0,77.0,74.0,53.0,0.658813,-0.049927,-0.747803,0.065369,0.175573,-0.053435,-0.259542,7.082031,-3.331665,-1.748975,-2.509815,-1.728638,-0.539526,0.873291,-2.091113,-2.106665,deaf
1616135316.544598,1,39.0,-1.0,77.0,73.0,56.0,0.658142,-0.044922,-0.748718,0.065186,0.19084,-0.076336,-0.290076,7.157397,-3.151025,-1.776489,-2.442822,-1.613794,-0.549097,0.890039,-1.945166,-2.070776,deaf
1616135316.554767,1,39.0,-1.0,76.0,72.0,53.0,0.657227,-0.039307,-0.749878,0.06488,0.206107,-0.10687,-0.320611,7.232764,-3.000293,-1.839893,-2.37583,-1.539624,-0.587378,0.937891,-1.8375,-2.025317,deaf
1616135316.5646849,1,39.0,-2.0,76.0,73.0,54.0,0.655884,-0.03302,-0.751343,0.064575,0.236641,-0.129771,-0.351145,7.323682,-2.893823,-1.948755,-2.29209,-1.518091,-0.661548,1.022827,-1.774097,-1.948755,deaf
1616135316.5745995,1,39.0,-3.0,77.0,73.0,58.0,0.654297,-0.026001,-0.753052,0.06427,0.267176,-0.145038,-0.389313,7.408618,-2.823242,-2.136572,-2.215527,-1.54082,-0.807495,1.18313,-1.747778,-1.863818,deaf
1616135316.58474,1,40.0,-1.0,78.0,74.0,55.0,0.652405,-0.018188,-0.754944,0.064148,0.305344,-0.160305,-0.419847,7.513892,-2.752661,-2.363867,-2.116235,-1.570728,-0.985742,1.374536,-1.719067,-1.751367,deaf
1616135316.594708,1,39.0,-3.0,76.0,75.0,56.0,0.650391,-0.009521,-0.756836,0.063965,0.343511,-0.160305,-0.458015,7.667017,-2.652173,-2.639014,-1.967896,-1.581494,-1.209448,1.603027,-1.658057,-1.585083,deaf
1616135316.604526,1,40.0,0.0,76.0,74.0,55.0,0.648499,0.0,-0.758545,0.06366,0.374046,-0.137405,-0.503817,7.914649,-2.507422,-2.950049,-1.726245,-1.559961,-1.471436,1.850659,-1.546802,-1.325488,deaf
1616135316.6147225,1,40.0,-1.0,77.0,73.0,55.0,0.647034,0.010498,-0.759766,0.063171,0.396947,-0.083969,-0.557252,8.210132,-2.34353,-3.265869,-1.437939,-1.534839,-1.748975,2.100684,-1.42478,-1.018042,deaf
1616135316.6246097,1,41.0,-2.0,74.0,73.0,55.0,0.646179,0.021851,-0.760315,0.062439,0.427481,-0.022901,-0.610687,8.481689,-2.171265,-3.598438,-1.17356,-1.516895,-2.057617,2.380615,-1.305151,-0.730933,deaf
1616135316.63461,1,41.0,0.0,78.0,71.0,55.0,0.645996,0.034241,-0.760071,0.061707,0.473282,0.038168,-0.656489,8.698217,-1.988232,-3.926221,-0.966602,-1.501343,-2.379419,2.680884,-1.184326,-0.502441,deaf
1616135316.6444948,1,38.0,-3.0,76.0,73.0,54.0,0.646301,0.047607,-0.759094,0.061157,0.526718,0.099237,-0.694656,8.822632,-1.725049,-4.226489,-0.849365,-1.417603,-2.686865,2.970386,-0.990527,-0.37085,deaf
1616135316.6545396,1,40.0,-3.0,75.0,73.0,57.0,0.647034,0.062073,-0.757446,0.060852,0.587786,0.145038,-0.725191,8.857325,-1.324292,-4.464551,-0.821851,-1.207056,-2.942871,3.197681,-0.667529,-0.339746,deaf
1616135316.6646428,1,40.0,-1.0,76.0,73.0,57.0,0.648071,0.077515,-0.755188,0.06073,0.633588,0.175573,-0.755725,8.821436,-0.823047,-4.654761,-0.862524,-0.907983,-3.158203,3.366357,-0.250024,-0.378027,deaf
1616135316.673741,1,39.0,0.0,76.0,99.0,55.0,0.64917,0.093811,-0.75238,0.060852,0.679389,0.198473,-0.770992,8.805883,-0.26438,-4.767212,-0.878076,-0.559863,-3.299365,3.430957,0.211743,-0.38999,deaf
1616135316.6840026,1,41.0,0.0,76.0,76.0,55.0,0.650452,0.110718,-0.748962,0.061279,0.717557,0.236641,-0.778626,8.815454,0.247632,-4.818652,-0.864917,-0.263184,-3.384302,3.427368,0.617285,-0.372046,deaf
1616135316.6937108,1,40.0,-2.0,77.0,76.0,57.0,0.651978,0.128113,-0.744751,0.062317,0.770992,0.274809,-0.778626,8.832202,0.741699,-4.773193,-0.840991,0.013159,-3.379517,3.322095,0.982153,-0.34812,deaf
1616135316.7038095,1,39.0,0.0,74.0,76.0,55.0,0.653809,0.145752,-0.739746,0.063904,0.793893,0.312977,-0.755725,8.919531,1.360181,-4.567431,-0.741699,0.418701,-3.225195,3.009863,1.414014,-0.248828,deaf
1616135316.7140718,1,39.0,-1.0,78.0,67.0,57.0,0.65625,0.162842,-0.733826,0.065674,0.770992,0.366412,-0.709924,9.100171,2.056421,-4.189404,-0.5479,0.905591,-2.91416,2.496655,1.836304,-0.053833,deaf
1616135316.7238889,1,41.0,1.0,77.0,73.0,55.0,0.659363,0.17865,-0.727173,0.067322,0.70229,0.412214,-0.648855,9.31311,2.802905,-3.664233,-0.319409,1.453491,-2.473926,1.826733,2.226294,0.185425,deaf
1616135316.7340095,1,38.0,-2.0,77.0,76.0,56.0,0.663269,0.192627,-0.71991,0.068726,0.610687,0.458015,-0.564885,9.465039,3.476416,-3.075659,-0.153125,1.941577,-1.989429,1.137671,2.512207,0.373242,deaf
1616135316.743763,1,39.0,-4.0,75.0,75.0,55.0,0.667603,0.204529,-0.712402,0.069946,0.51145,0.473282,-0.480916,9.521265,4.039868,-2.503833,-0.080151,2.339942,-1.534839,0.516797,2.708398,0.478516,deaf
1616135316.7540195,1,40.0,-1.0,77.0,75.0,57.0,0.67218,0.214478,-0.705017,0.071106,0.435115,0.473282,-0.40458,9.516479,4.441821,-1.965503,-0.070581,2.59834,-1.120923,-0.004785,2.782568,0.515601,deaf
1616135316.763914,1,40.0,1.0,77.0,74.0,57.0,0.676697,0.223083,-0.697937,0.072449,0.389313,0.458015,-0.335878,9.429151,4.70979,-1.509717,-0.143555,2.741894,-0.787158,-0.406738,2.787354,0.467749,deaf
1616135316.773798,1,40.0,1.0,78.0,74.0,29.0,0.680908,0.230774,-0.691101,0.074158,0.374046,0.435115,-0.282443,9.357373,4.914355,-1.051538,-0.200977,2.838794,-0.446216,-0.79314,2.734717,0.43186,deaf
1616135316.7838185,1,38.0,1.0,74.0,74.0,53.0,0.684814,0.237732,-0.68457,0.076294,0.366412,0.412214,-0.229008,9.274829,5.08064,-0.635229,-0.269165,2.912964,-0.141162,-1.138867,2.668921,0.388794,deaf
1616135316.7939,1,38.0,0.0,76.0,73.0,53.0,0.688416,0.244141,-0.678406,0.078979,0.374046,0.389313,-0.175573,9.279614,5.153613,-0.184229,-0.251221,2.909375,0.204565,-1.47981,2.490674,0.41272,deaf
1616135316.8038392,1,39.0,1.0,77.0,75.0,53.0,0.691711,0.249939,-0.672485,0.082336,0.381679,0.366412,-0.122137,9.31311,5.211035,0.278735,-0.206958,2.906982,0.567041,-1.829126,2.290894,0.465356,deaf
1616135316.8139756,1,39.0,0.0,76.0,75.0,54.0,0.694824,0.255249,-0.666748,0.086182,0.389313,0.351145,-0.083969,9.393262,5.334253,0.825439,-0.117236,2.983545,1.015649,-2.280127,2.098291,0.581396,deaf
1616135316.823735,1,37.0,-1.0,76.0,73.0,54.0,0.697876,0.260132,-0.661133,0.090332,0.374046,0.335878,-0.045802,9.512891,5.511304,1.393677,0.008374,3.123511,1.486987,-2.769409,1.929614,0.754858,deaf
1616135316.8338902,1,38.0,-1.0,78.0,75.0,55.0,0.700989,0.264343,-0.655579,0.094543,0.343511,0.328244,-0.007634,9.671997,5.705102,1.972681,0.174658,3.287402,1.965503,-3.261084,1.758545,0.980957,deaf
1616135316.843761,1,45.0,-1.0,76.0,75.0,57.0,0.704163,0.267578,-0.650208,0.098816,0.305344,0.320611,0.038168,9.731812,5.745776,2.471533,0.239258,3.311328,2.360278,-3.616382,1.528857,1.080249,deaf
1616135316.8538866,1,40.0,-3.0,76.0,73.0,57.0,0.707092,0.269897,-0.645325,0.103455,0.282443,0.29771,0.099237,9.658838,5.627344,2.884253,0.16748,3.195288,2.673706,-3.846069,1.248926,1.012061,deaf
1616135316.863824,1,40.0,-2.0,59.0,76.0,56.0,0.709534,0.271423,-0.641174,0.108582,0.282443,0.251908,0.152672,9.569117,5.432349,3.222803,0.07417,3.021826,2.92373,-3.993213,0.957031,0.903198,deaf
1616135316.8736794,1,23.0,-2.0,76.0,75.0,57.0,0.711304,0.272461,-0.637756,0.114075,0.274809,0.198473,0.198473,9.487768,5.202661,3.49436,-0.011963,2.829224,3.121118,-4.081738,0.673511,0.791943,deaf
1616135316.8838885,1,39.0,-3.0,76.0,72.0,55.0,0.712524,0.272949,-0.635193,0.119629,0.251908,0.145038,0.229008,9.432739,4.928711,3.671411,-0.077759,2.605518,3.239551,-4.080542,0.403149,0.684277,deaf
1616135316.8938637,1,39.0,-3.0,76.0,75.0,56.0,0.713257,0.27301,-0.633301,0.125,0.229008,0.099237,0.244275,9.472217,4.59375,3.783862,-0.049048,2.327979,3.305347,-3.988428,0.105273,0.650781,deaf
1616135316.903677,1,41.0,-1.0,76.0,79.0,55.0,0.713684,0.272522,-0.632019,0.130249,0.198473,0.076336,0.251908,9.57749,4.178638,3.785058,0.040674,1.979858,3.269458,-3.759937,-0.197388,0.655566,deaf
1616135316.913816,1,39.0,1.0,76.0,74.0,57.0,0.713928,0.271545,-0.631042,0.135254,0.160305,0.068702,0.251908,9.712671,3.732422,3.672607,0.161499,1.60542,3.122314,-3.416602,-0.456982,0.680689,deaf
1616135316.9236658,1,39.0,-3.0,76.0,73.0,26.0,0.714294,0.270142,-0.630188,0.140015,0.129771,0.083969,0.244275,9.85144,3.24314,3.482398,0.287109,1.190308,2.896216,-2.983545,-0.698633,0.702222,deaf
1616135316.933873,1,40.0,0.0,78.0,76.0,54.0,0.714905,0.268311,-0.629211,0.144592,0.099237,0.10687,0.229008,9.930395,2.717969,3.257495,0.352905,0.740503,2.628247,-2.503833,-0.929517,0.661548,deaf
1616135316.943696,1,41.0,-2.0,77.0,76.0,56.0,0.71582,0.266296,-0.628113,0.148926,0.076336,0.137405,0.21374,9.87417,2.162891,3.015845,0.283521,0.259595,2.337549,-2.010962,-1.15083,0.489282,deaf
1616135316.9536755,1,38.0,-1.0,77.0,74.0,55.0,0.716797,0.264343,-0.626831,0.153076,0.076336,0.137405,0.175573,9.638501,1.54082,2.787354,0.038281,-0.291895,2.057617,-1.514502,-1.41521,0.135181,deaf
1616135316.9640088,1,40.0,1.0,75.0,78.0,22.0,0.717529,0.262939,-0.625671,0.156738,0.091603,0.10687,0.114504,9.249707,0.872095,2.628247,-0.356494,-0.903198,1.855444,-1.071875,-1.759741,-0.366064,deaf
1616135316.9737456,1,39.0,-2.0,76.0,74.0,55.0,0.717773,0.262756,-0.624695,0.159607,0.129771,0.045802,0.022901,8.920728,0.165088,2.520581,-0.689062,-1.576709,1.722656,-0.636426,-2.203564,-0.814673,deaf
1616135316.9837012,1,42.0,-2.0,77.0,72.0,55.0,0.717468,0.263977,-0.623962,0.161743,0.167939,-0.007634,-0.076336,8.862109,-0.440234,2.472729,-0.748877,-2.173657,1.67002,-0.258398,-2.653369,-0.982153,deaf
1616135316.9939806,1,57.0,0.0,78.0,75.0,57.0,0.717041,0.266235,-0.623169,0.163208,0.183206,-0.022901,-0.129771,8.95542,-0.623267,2.432056,-0.653174,-2.371045,1.631738,-0.084937,-2.799316,-0.929517,deaf
1616135317.0037856,1,38.0,1.0,74.0,74.0,54.0,0.716675,0.268677,-0.622314,0.16394,0.145038,-0.030534,-0.122137,9.079834,-0.342139,2.397363,-0.523975,-2.116235,1.603027,-0.173462,-2.588769,-0.765625,deaf
1616135317.0137098,1,43.0,-1.0,78.0,73.0,53.0,0.716736,0.270447,-0.621521,0.163818,0.061069,-0.022901,-0.099237,9.235352,0.251221,2.373437,-0.363672,-1.551587,1.577905,-0.442627,-2.136572,-0.513208,deaf
1616135317.0237591,1,40.0,-3.0,78.0,75.0,55.0,0.717224,0.271057,-0.620972,0.162781,-0.038168,-0.015267,-0.068702,9.384888,0.830225,2.306445,-0.208154,-0.998901,1.503735,-0.673511,-1.665234,-0.266772,deaf
1616135317.0338032,1,40.0,1.0,78.0,74.0,57.0,0.717957,0.270386,-0.620728,0.161438,-0.10687,-0.007634,-0.030534,9.515284,1.252515,2.173657,-0.07417,-0.587378,1.358984,-0.771606,-1.262085,-0.069385,deaf
1616135317.0439482,1,42.0,-3.0,78.0,74.0,56.0,0.718872,0.268921,-0.620728,0.160034,-0.145038,0.007634,0.0,9.579883,1.54082,1.988232,-0.00957,-0.300269,1.156811,-0.764429,-0.917554,0.031104,deaf
1616135317.0536935,1,38.0,-2.0,78.0,76.0,53.0,0.719788,0.267029,-0.620789,0.158691,-0.152672,0.015267,0.015267,9.56792,1.726245,1.783667,-0.020337,-0.110059,0.934302,-0.697437,-0.629248,0.039478,deaf
1616135317.063845,1,43.0,0.0,76.0,75.0,53.0,0.720581,0.265198,-0.620972,0.157532,-0.145038,0.015267,0.015267,9.49375,1.821948,1.581494,-0.094507,-0.005981,0.717773,-0.595752,-0.409131,-0.029907,deaf
1616135317.0737288,1,39.0,-3.0,78.0,74.0,55.0,0.721191,0.263672,-0.621094,0.156616,-0.114504,0.007634,0.015267,9.407618,1.832715,1.411621,-0.18064,0.011963,0.534741,-0.47373,-0.278735,-0.12561,deaf
1616135317.0837662,1,42.0,0.0,78.0,74.0,56.0,0.721497,0.262756,-0.621277,0.155945,-0.068702,0.0,0.0,9.362158,1.806396,1.254907,-0.226099,-0.00957,0.373242,-0.33855,-0.198584,-0.189014,deaf
1616135317.0938237,1,39.0,-1.0,74.0,75.0,57.0,0.721619,0.262512,-0.621399,0.155579,-0.022901,-0.007634,-0.015267,9.34541,1.8052,1.136475,-0.242847,-0.011963,0.25481,-0.244043,-0.130396,-0.216528,deaf
1616135317.103864,1,41.0,-2.0,77.0,73.0,58.0,0.721497,0.262878,-0.62146,0.155396,0.007634,-0.015267,-0.022901,9.362158,1.881763,1.055127,-0.226099,0.056226,0.178247,-0.216528,-0.0323,-0.193799,deaf
1616135317.1137662,1,40.0,0.0,78.0,74.0,53.0,0.721313,0.263428,-0.62146,0.155212,0.015267,-0.022901,-0.022901,9.410009,2.004981,1.00249,-0.177051,0.171069,0.131592,-0.233276,0.081348,-0.129199,deaf
1616135317.123675,1,40.0,-2.0,75.0,72.0,56.0,0.72113,0.263977,-0.62146,0.155029,0.007634,-0.015267,-0.015267,9.474609,2.127002,0.957031,-0.111255,0.283521,0.092114,-0.251221,0.189014,-0.046655,deaf
1616135317.1338756,1,41.0,1.0,78.0,73.0,57.0,0.721069,0.26416,-0.621521,0.154785,-0.007634,-0.015267,0.0,9.532031,2.203564,0.912769,-0.052637,0.355298,0.05144,-0.246436,0.26438,0.019141,deaf
1616135317.143788,1,39.0,-3.0,74.0,72.0,27.0,0.721069,0.263916,-0.621643,0.154663,-0.022901,-0.007634,0.015267,9.555957,2.207153,0.848169,-0.028711,0.361279,-0.011963,-0.193799,0.302661,0.038281,deaf
1616135317.1538632,1,38.0,-1.0,76.0,73.0,53.0,0.721069,0.263367,-0.621887,0.154724,-0.030534,0.0,0.030534,9.565527,2.130591,0.795532,-0.021533,0.294287,-0.0646,-0.112451,0.277539,0.027515,deaf
1616135317.1635842,1,41.0,-3.0,78.0,73.0,57.0,0.72113,0.262634,-0.62207,0.154907,-0.030534,0.007634,0.038168,9.559546,2.016943,0.76084,-0.029907,0.192603,-0.101685,-0.027515,0.217725,-0.001196,deaf
1616135320.0298946,1,39.0,1.0,77.0,76.0,55.0,0.738892,0.16626,-0.652954,-0.001587,-0.007634,0.007634,0.0,9.352588,2.378223,0.823047,-0.098096,-0.049048,-0.077759,0.070581,-0.004785,-0.113647,deaf
1616135320.039961,1,39.0,0.0,75.0,73.0,55.0,0.739014,0.166138,-0.652893,-0.001587,-0.007634,0.007634,0.0,9.323877,2.383008,0.811084,-0.126807,-0.043066,-0.092114,0.078955,0.008374,-0.141162,deaf
1616135320.0501444,1,43.0,1.0,77.0,76.0,56.0,0.739136,0.166016,-0.652771,-0.001587,-0.015267,0.007634,0.0,9.287989,2.399756,0.806299,-0.162695,-0.025122,-0.101685,0.078955,0.035889,-0.172266,deaf
1616135320.0597796,1,38.0,-1.0,76.0,76.0,90.0,0.739197,0.165894,-0.652771,-0.001648,-0.015267,0.0,0.0,9.276026,2.414111,0.813477,-0.175854,-0.00957,-0.095703,0.068188,0.052637,-0.18064,deaf
1616135320.070064,1,39.0,1.0,76.0,73.0,58.0,0.739258,0.16571,-0.65271,-0.001709,-0.015267,0.0,0.007634,9.286792,2.428467,0.833813,-0.163892,0.004785,-0.076563,0.047852,0.058618,-0.163892,deaf
1616135320.0799017,1,38.0,-1.0,78.0,74.0,57.0,0.739319,0.165466,-0.65271,-0.00177,-0.022901,0.0,0.007634,9.298755,2.424878,0.838599,-0.153125,0.003589,-0.07417,0.047852,0.053833,-0.153125,deaf
1616135320.0898106,1,41.0,-1.0,75.0,74.0,55.0,0.739319,0.165222,-0.65271,-0.001831,-0.015267,0.0,0.0,9.298755,2.391382,0.831421,-0.153125,-0.025122,-0.082544,0.062207,0.028711,-0.161499,deaf
1616135320.099806,1,41.0,3.0,77.0,72.0,58.0,0.739319,0.165039,-0.652771,-0.00177,-0.007634,-0.007634,0.0,9.29397,2.339942,0.819458,-0.159106,-0.07417,-0.093311,0.081348,-0.011963,-0.179443,deaf
1616135320.109977,1,40.0,-2.0,74.0,78.0,57.0,0.739258,0.164978,-0.652893,-0.001648,0.0,-0.007634,0.0,9.301147,2.310034,0.811084,-0.153125,-0.100488,-0.100488,0.095703,-0.037085,-0.18064,deaf
1616135320.1199155,1,39.0,1.0,78.0,78.0,56.0,0.739197,0.165039,-0.652954,-0.001526,0.007634,-0.007634,0.0,9.31311,2.296875,0.803906,-0.141162,-0.113647,-0.105273,0.104077,-0.050244,-0.173462,deaf
1616135320.1297626,1,41.0,-1.0,76.0,75.0,56.0,0.739075,0.165222,-0.653015,-0.001404,0.007634,0.0,-0.007634,9.316699,2.29209,0.787158,-0.137573,-0.118433,-0.118433,0.118433,-0.052637,-0.172266,deaf
1616135320.139981,1,41.0,0.0,77.0,76.0,57.0,0.739014,0.165344,-0.653015,-0.001282,0.007634,0.0,-0.007634,9.321485,2.302856,0.771606,-0.132788,-0.107666,-0.132788,0.131592,-0.039478,-0.166284,deaf
1616135320.149933,1,39.0,0.0,77.0,72.0,53.0,0.739014,0.165527,-0.653015,-0.001221,0.0,0.0,-0.007634,9.317896,2.307642,0.757251,-0.136377,-0.105273,-0.147144,0.143555,-0.033496,-0.171069,deaf
1616135320.1597924,1,41.0,-1.0,76.0,74.0,56.0,0.739014,0.165588,-0.653015,-0.001221,0.0,0.0,-0.007634,9.292773,2.298071,0.73811,-0.161499,-0.11604,-0.166284,0.161499,-0.033496,-0.198584,deaf
1616135320.1702611,1,40.0,-4.0,76.0,73.0,55.0,0.739014,0.165588,-0.653015,-0.00116,0.0,0.0,-0.007634,9.289185,2.287305,0.727344,-0.165088,-0.12561,-0.177051,0.173462,-0.039478,-0.205762,deaf
1616135320.1797016,1,38.0,0.0,76.0,73.0,57.0,0.738953,0.165649,-0.653076,-0.00116,0.0,0.0,-0.007634,9.297559,2.255005,0.71897,-0.156714,-0.15791,-0.183032,0.186621,-0.069385,-0.205762,deaf
1616135320.1899543,1,39.0,0.0,74.0,73.0,69.0,0.738953,0.165771,-0.653015,-0.001038,0.007634,0.007634,-0.007634,9.304736,2.235864,0.722559,-0.149536,-0.178247,-0.179443,0.189014,-0.092114,-0.204565,deaf
1616135320.1998005,1,38.0,-1.0,77.0,76.0,57.0,0.739014,0.165955,-0.652893,-0.000916,0.007634,0.007634,-0.015267,9.310718,2.232275,0.745288,-0.142358,-0.183032,-0.159106,0.171069,-0.102881,-0.196191,deaf
1616135320.209796,1,39.0,0.0,77.0,74.0,55.0,0.739136,0.166199,-0.65271,-0.000854,0.007634,0.015267,-0.015267,9.29397,2.252612,0.77041,-0.15791,-0.165088,-0.137573,0.144751,-0.087329,-0.205762,deaf
1616135320.219899,1,40.0,-4.0,76.0,74.0,54.0,0.739319,0.166443,-0.652466,-0.000916,0.0,0.015267,-0.022901,9.284399,2.274146,0.807495,-0.166284,-0.14834,-0.105273,0.108862,-0.077759,-0.205762,deaf
1616135320.2300866,1,39.0,-1.0,74.0,75.0,55.0,0.739502,0.166626,-0.652161,-0.001099,-0.007634,0.015267,-0.022901,9.273633,2.274146,0.833813,-0.174658,-0.154321,-0.084937,0.088525,-0.086133,-0.214136,deaf
1616135320.2398748,1,40.0,-1.0,75.0,72.0,54.0,0.739685,0.166748,-0.651917,-0.001343,-0.007634,0.015267,-0.022901,9.265259,2.268164,0.860132,-0.18064,-0.166284,-0.063403,0.069385,-0.101685,-0.221313,deaf
1616135320.2498806,1,38.0,1.0,78.0,76.0,55.0,0.739868,0.166931,-0.651672,-0.001587,-0.007634,0.015267,-0.030534,9.268847,2.26936,0.870898,-0.175854,-0.171069,-0.058618,0.065796,-0.107666,-0.216528,deaf
1616135320.259745,1,41.0,1.0,76.0,74.0,56.0,0.740051,0.167175,-0.651428,-0.001831,-0.007634,0.015267,-0.030534,9.296362,2.263379,0.881665,-0.145947,-0.184229,-0.052637,0.068188,-0.128003,-0.191406,deaf
1616135320.2698758,1,41.0,1.0,76.0,68.0,49.0,0.740295,0.167419,-0.651062,-0.002014,0.0,0.015267,-0.038168,9.311914,2.247827,0.88645,-0.128003,-0.206958,-0.055029,0.077759,-0.153125,-0.179443,deaf
1616135320.2798238,1,38.0,-1.0,74.0,75.0,55.0,0.740479,0.167847,-0.650757,-0.002197,0.007634,0.022901,-0.038168,9.325073,2.266968,0.917554,-0.111255,-0.196191,-0.028711,0.052637,-0.153125,-0.159106,deaf
1616135320.289943,1,43.0,0.0,77.0,73.0,56.0,0.740723,0.168335,-0.650391,-0.002502,0.007634,0.015267,-0.045802,9.329859,2.332764,0.95105,-0.104077,-0.142358,-0.002393,0.016748,-0.110059,-0.136377,deaf
1616135320.2998435,1,39.0,-3.0,76.0,75.0,55.0,0.740906,0.168823,-0.650024,-0.002869,0.0,0.007634,-0.038168,9.340625,2.392578,0.990527,-0.088525,-0.094507,0.029907,-0.021533,-0.076563,-0.105273,deaf
1616135320.3097808,1,38.0,-2.0,75.0,75.0,58.0,0.741028,0.169189,-0.64978,-0.003235,0.0,0.0,-0.038168,9.371729,2.483496,1.037183,-0.055029,-0.014355,0.072974,-0.075366,-0.019141,-0.049048,deaf
1616135320.320071,1,41.0,-3.0,80.0,77.0,53.0,0.741089,0.169495,-0.649658,-0.003662,-0.007634,-0.007634,-0.030534,9.426758,2.592358,1.07666,0.002393,0.08374,0.111255,-0.124414,0.050244,0.033496,deaf
1616135320.329746,1,40.0,-2.0,75.0,74.0,55.0,0.741089,0.169739,-0.649597,-0.004089,-0.007634,-0.007634,-0.022901,9.49375,2.677295,1.094604,0.070581,0.159106,0.129199,-0.147144,0.101685,0.120825,deaf
1616135320.3397,1,40.0,-1.0,77.0,75.0,54.0,0.741028,0.169922,-0.649597,-0.004395,-0.007634,-0.015267,-0.015267,9.560742,2.737109,1.094604,0.139966,0.212939,0.130396,-0.14834,0.136377,0.202173,deaf
1616135320.3498275,1,40.0,0.0,75.0,78.0,55.0,0.740906,0.170166,-0.649658,-0.004517,0.007634,-0.015267,-0.007634,9.613379,2.816064,1.083838,0.193799,0.287109,0.123218,-0.149536,0.194995,0.271558,deaf
1616135320.3589368,1,39.0,1.0,76.0,74.0,56.0,0.740723,0.17041,-0.64978,-0.004517,0.015267,-0.022901,0.0,9.66482,2.912964,1.071875,0.245239,0.38042,0.11604,-0.154321,0.272754,0.344531,deaf
1616135320.3691905,1,38.0,-3.0,75.0,71.0,53.0,0.740417,0.170715,-0.650085,-0.004395,0.015267,-0.030534,0.007634,9.731812,3.003882,1.055127,0.312231,0.470142,0.108862,-0.15791,0.343335,0.43186,deaf
1616135320.3796692,1,40.0,1.0,74.0,76.0,56.0,0.73999,0.170837,-0.650513,-0.00415,0.015267,-0.038168,0.022901,9.814356,3.103174,1.039575,0.392383,0.571826,0.105273,-0.163892,0.42229,0.534741,deaf
1616135320.3896084,1,39.0,-3.0,77.0,75.0,56.0,0.739563,0.170776,-0.651062,-0.003845,0.007634,-0.045802,0.038168,9.912451,3.20127,1.032398,0.48689,0.675903,0.111255,-0.179443,0.497656,0.651978,deaf
1616135320.399721,1,38.0,0.0,77.0,125.0,57.0,0.739075,0.170471,-0.651611,-0.003357,0.0,-0.045802,0.053435,9.985425,3.246728,0.998901,0.557471,0.733325,0.090918,-0.162695,0.540723,0.732129,deaf
1616135320.4098806,1,39.0,1.0,80.0,73.0,56.0,0.738647,0.169983,-0.652344,-0.002747,0.0,-0.045802,0.076336,10.030884,3.261084,0.964209,0.594556,0.764429,0.070581,-0.145947,0.568237,0.772803,deaf
1616135320.419716,1,40.0,0.0,77.0,74.0,54.0,0.738098,0.16925,-0.653076,-0.001892,0.0,-0.053435,0.091603,10.05481,3.255103,0.933105,0.6125,0.782373,0.053833,-0.131592,0.586182,0.791943,deaf
1616135320.4296644,1,40.0,-1.0,78.0,75.0,57.0,0.737488,0.168396,-0.653992,-0.000793,0.007634,-0.061069,0.10687,10.065577,3.231177,0.898413,0.614893,0.785962,0.037085,-0.118433,0.595752,0.791943,deaf
1616135320.439756,1,41.0,-3.0,76.0,73.0,55.0,0.736694,0.16748,-0.655151,0.000488,0.015267,-0.076336,0.122137,10.132568,3.200073,0.860132,0.669922,0.787158,0.022729,-0.099292,0.58977,0.842188,deaf
1616135320.4489238,1,40.0,-2.0,77.0,75.0,57.0,0.735779,0.166443,-0.656433,0.002014,0.022901,-0.076336,0.129771,10.278516,3.167773,0.807495,0.805103,0.79314,-0.003589,-0.059814,0.575415,0.968994,deaf
1616135320.4589334,1,41.0,1.0,78.0,78.0,56.0,0.734863,0.165466,-0.657715,0.003723,0.030534,-0.076336,0.145038,10.432837,3.189307,0.764429,0.947461,0.852954,-0.019141,-0.043066,0.608911,1.11853,deaf
1616135320.4697003,1,41.0,-4.0,79.0,74.0,52.0,0.733948,0.164429,-0.658997,0.005615,0.038168,-0.076336,0.160305,10.540503,3.247925,0.736914,1.041968,0.954639,-0.021533,-0.056226,0.690259,1.230981,deaf
1616135320.4799414,1,41.0,-1.0,75.0,73.0,57.0,0.733032,0.16333,-0.660278,0.00769,0.038168,-0.076336,0.175573,10.608691,3.318506,0.740503,1.096997,1.070679,0.007178,-0.108862,0.787158,1.309937,deaf
1616135320.488837,1,38.0,-1.0,77.0,75.0,53.0,0.732117,0.161926,-0.661621,0.01001,0.038168,-0.076336,0.206107,10.662524,3.404639,0.777588,1.136475,1.210644,0.070581,-0.203369,0.902002,1.380518,deaf
1616135320.4990685,1,40.0,-1.0,74.0,74.0,52.0,0.73114,0.160217,-0.663025,0.012695,0.038168,-0.083969,0.244275,10.66731,3.495557,0.80271,1.125708,1.36377,0.122021,-0.29668,1.04436,1.400854,deaf
1616135320.5090015,1,39.0,-1.0,75.0,72.0,57.0,0.72998,0.15802,-0.664734,0.015747,0.030534,-0.10687,0.282443,10.632617,3.592456,0.829028,1.073071,1.536035,0.179443,-0.406738,1.211841,1.380518,deaf
1616135320.5190773,1,39.0,-1.0,78.0,73.0,57.0,0.728577,0.155396,-0.666809,0.018921,0.015267,-0.129771,0.320611,10.611084,3.672607,0.848169,1.031201,1.699927,0.235669,-0.513208,1.370947,1.36377,deaf
1616135320.5288975,1,40.0,-1.0,77.0,75.0,55.0,0.726929,0.152161,-0.66925,0.022217,-0.007634,-0.160305,0.358779,10.605103,3.706104,0.887646,1.00249,1.829126,0.319409,-0.636426,1.490576,1.35061,deaf
1616135320.5398595,1,39.0,7.0,76.0,73.0,57.0,0.725037,0.148315,-0.671997,0.025818,-0.022901,-0.183206,0.396947,10.59314,3.613989,0.923535,0.967798,1.845874,0.405542,-0.735718,1.503735,1.303955,deaf
1616135320.5488298,1,38.0,-1.0,75.0,74.0,52.0,0.722961,0.143738,-0.67511,0.029846,-0.030534,-0.206107,0.442748,10.535718,3.501538,0.96062,0.885254,1.859033,0.497656,-0.845776,1.52168,1.205859,deaf
1616135320.5589223,1,42.0,-3.0,76.0,73.0,56.0,0.720581,0.138672,-0.678467,0.034119,-0.045802,-0.229008,0.480916,10.430445,3.331665,0.98335,0.754858,1.826733,0.582593,-0.939087,1.503735,1.049145,deaf
1616135320.569224,1,38.0,-1.0,77.0,73.0,53.0,0.718018,0.132874,-0.682129,0.038635,-0.061069,-0.244275,0.519084,10.282104,3.073267,0.979761,0.581396,1.719067,0.6448,-0.99292,1.422388,0.833813,deaf
1616135320.5791562,1,39.0,-1.0,76.0,76.0,56.0,0.71521,0.126587,-0.685974,0.043457,-0.068702,-0.259542,0.549618,10.109838,2.75625,0.935498,0.385205,1.565942,0.672314,-1.000098,1.303955,0.58977,deaf
1616135320.588939,1,39.0,0.0,77.0,76.0,53.0,0.712158,0.119751,-0.690063,0.048462,-0.083969,-0.267176,0.572519,9.911255,2.405737,0.845776,0.165088,1.388892,0.659155,-0.958228,1.169971,0.320605,deaf
1616135320.5988312,1,39.0,-1.0,74.0,73.0,56.0,0.708923,0.112549,-0.694153,0.05365,-0.091603,-0.274809,0.587786,9.658838,2.004981,0.715381,-0.104077,1.169971,0.607715,-0.864917,0.998901,0.002393,deaf
1616135320.6091428,1,40.0,0.0,76.0,88.0,52.0,0.705566,0.105103,-0.698303,0.058838,-0.099237,-0.274809,0.587786,9.402832,1.550391,0.522778,-0.374438,0.902002,0.49646,-0.69624,0.784766,-0.312231,deaf
1616135320.6190157,1,39.0,0.0,73.0,73.0,52.0,0.702148,0.097656,-0.702393,0.064148,-0.091603,-0.267176,0.580153,9.205444,1.080249,0.278735,-0.582593,0.618481,0.334961,-0.468945,0.552686,-0.553882,deaf
1616135320.6288822,1,40.0,-3.0,76.0,76.0,55.0,0.698792,0.090515,-0.706177,0.069458,-0.076336,-0.236641,0.549618,9.011645,0.629248,0.00957,-0.783569,0.350513,0.143555,-0.212939,0.332568,-0.775195,deaf
1616135320.63906,1,40.0,0.0,78.0,73.0,56.0,0.695679,0.083801,-0.709534,0.074585,-0.061069,-0.198473,0.519084,8.79751,0.24165,-0.251221,-0.998901,0.135181,-0.045459,0.031104,0.156714,-0.995313,deaf
1616135320.6490712,1,40.0,-17.0,76.0,75.0,56.0,0.692932,0.077454,-0.712402,0.07959,-0.053435,-0.160305,0.48855,8.582178,-0.075366,-0.508423,-1.213037,-0.015552,-0.242847,0.272754,0.038281,-1.205859,deaf
1616135320.659734,1,22.0,-3.0,75.0,73.0,56.0,0.690613,0.071411,-0.714722,0.08429,-0.061069,-0.122137,0.465649,8.418286,-0.331372,-0.692651,-1.37334,-0.11604,-0.379224,0.443823,-0.049048,-1.356592,deaf
1616135320.6697977,1,43.0,-3.0,75.0,74.0,56.0,0.688843,0.065247,-0.716492,0.088562,-0.091603,-0.076336,0.450382,8.28789,-0.522778,-0.808691,-1.497754,-0.159106,-0.462964,0.549097,-0.096899,-1.472632,deaf
1616135320.679805,1,40.0,-2.0,76.0,73.0,53.0,0.687683,0.058716,-0.717773,0.092224,-0.137405,-0.030534,0.435115,8.165869,-0.704614,-0.892432,-1.613794,-0.197388,-0.526367,0.631641,-0.14834,-1.580298,deaf
1616135320.6897953,1,41.0,-4.0,77.0,75.0,51.0,0.68689,0.051697,-0.718628,0.095276,-0.183206,0.007634,0.427481,8.031885,-0.949854,-0.963013,-1.739404,-0.303857,-0.588574,0.726147,-0.271558,-1.691553,deaf
1616135320.6989746,1,43.0,1.0,77.0,75.0,58.0,0.686401,0.044434,-0.719238,0.0979,-0.206107,0.030534,0.396947,7.841675,-1.300366,-1.052734,-1.918848,-0.517993,-0.674707,0.866113,-0.504834,-1.843481,deaf
1616135320.7088842,1,42.0,0.0,77.0,74.0,53.0,0.686035,0.037659,-0.719666,0.099976,-0.198473,0.030534,0.328244,7.610791,-1.764526,-1.081445,-2.138965,-0.860132,-0.701025,0.97019,-0.880469,-2.021729,deaf
1616135320.7190866,1,41.0,0.0,76.0,73.0,58.0,0.685547,0.032104,-0.720154,0.101746,-0.152672,0.007634,0.221374,7.260278,-2.505029,-1.092212,-2.479907,-1.500147,-0.705811,1.113745,-1.562353,-2.28252,deaf
1616135320.728992,1,40.0,1.0,77.0,74.0,55.0,0.684753,0.028442,-0.720825,0.103699,-0.045802,-0.038168,0.114504,6.952832,-3.314917,-1.003687,-2.77898,-2.231079,-0.604126,1.168774,-2.345923,-2.488281,deaf
1616135320.7390883,1,40.0,1.0,78.0,72.0,58.0,0.683533,0.027161,-0.72168,0.105957,0.061069,-0.083969,0.015267,6.884644,-3.82334,-0.808691,-2.83999,-2.688061,-0.385205,1.053931,-2.84956,-2.489478,deaf
1616135320.7491295,1,39.0,-1.0,77.0,82.0,55.0,0.682312,0.027832,-0.722534,0.10791,0.114504,-0.10687,-0.045802,7.009058,-3.87478,-0.623267,-2.711987,-2.717969,-0.175854,0.863721,-2.905786,-2.361475,deaf
1616135320.7590957,1,41.0,-1.0,74.0,74.0,57.0,0.681274,0.029419,-0.723206,0.109253,0.114504,-0.091603,-0.076336,7.242334,-3.574512,-0.459375,-2.477515,-2.4177,0.008374,0.626855,-2.619873,-2.172461,deaf
1616135320.7691574,1,30.0,-2.0,76.0,73.0,55.0,0.680664,0.030945,-0.723694,0.109802,0.068702,-0.061069,-0.076336,7.39187,-3.139062,-0.364868,-2.329175,-1.994214,0.118433,0.437842,-2.209546,-2.082739,deaf
1616135320.7788565,1,41.0,0.0,77.0,74.0,55.0,0.680176,0.031982,-0.724121,0.109558,0.015267,-0.053435,-0.068702,7.401441,-2.635425,-0.336157,-2.320801,-1.506128,0.160303,0.305054,-1.737012,-2.136572,deaf
1616135320.7889085,1,36.0,0.0,76.0,73.0,58.0,0.679749,0.032532,-0.72467,0.108582,-0.038168,-0.061069,-0.068702,7.346411,-2.237061,-0.355298,-2.377026,-1.128101,0.156714,0.24165,-1.368555,-2.238257,deaf
1616135320.7991166,1,41.0,-3.0,77.0,74.0,55.0,0.679077,0.032654,-0.725464,0.1073,-0.068702,-0.076336,-0.068702,7.2854,-2.008569,-0.43186,-2.438037,-0.916357,0.104077,0.258398,-1.153223,-2.321997,deaf
1616135320.8090174,1,40.0,-3.0,76.0,74.0,58.0,0.678101,0.032776,-0.726562,0.105896,-0.068702,-0.091603,-0.083969,7.263867,-1.924829,-0.541919,-2.45957,-0.851758,0.025122,0.330176,-1.071875,-2.348315,deaf
1616135320.8189816,1,39.0,-1.0,77.0,73.0,57.0,0.67688,0.033264,-0.727844,0.104614,-0.038168,-0.114504,-0.099237,7.323682,-1.958325,-0.660352,-2.399756,-0.906787,-0.055029,0.421094,-1.096997,-2.280127,deaf
1616135320.8296912,1,41.0,-1.0,76.0,74.0,56.0,0.675476,0.034485,-0.729248,0.103577,0.007634,-0.122137,-0.137405,7.464844,-2.073169,-0.80271,-2.25979,-1.049145,-0.155518,0.543115,-1.195093,-2.122217,deaf
1616135320.839086,1,40.0,1.0,78.0,73.0,57.0,0.674011,0.036865,-0.730591,0.102783,0.068702,-0.129771,-0.19084,7.681372,-2.204761,-0.952246,-2.043262,-1.219019,-0.263184,0.672314,-1.309937,-1.886548,deaf
1616135320.849151,1,42.0,0.0,78.0,76.0,56.0,0.672607,0.040588,-0.73175,0.102112,0.137405,-0.122137,-0.251908,7.914649,-2.338745,-1.148438,-1.812378,-1.409229,-0.419897,0.852954,-1.429565,-1.634131,deaf
1616135320.8593285,1,41.0,0.0,77.0,74.0,55.0,0.671265,0.045837,-0.732788,0.101501,0.198473,-0.114504,-0.320611,8.163477,-2.435645,-1.368555,-1.568335,-1.580298,-0.601733,1.055127,-1.52168,-1.372144,deaf
1616135320.869012,1,41.0,-1.0,76.0,70.0,51.0,0.670044,0.052368,-0.733582,0.10083,0.251908,-0.099237,-0.381679,8.442212,-2.447608,-1.574316,-1.294385,-1.685571,-0.772803,1.233374,-1.547998,-1.091016,deaf
1616135320.8790262,1,40.0,-1.0,75.0,73.0,53.0,0.669006,0.059875,-0.73407,0.100037,0.282443,-0.076336,-0.427481,8.695826,-2.37583,-1.78606,-1.046753,-1.72146,-0.953442,1.408032,-1.506128,-0.84458,deaf
1616135320.8890803,1,41.0,0.0,74.0,73.0,54.0,0.668213,0.067993,-0.734192,0.098999,0.290076,-0.053435,-0.458015,8.921924,-2.207153,-2.002588,-0.825439,-1.672412,-1.146045,1.577905,-1.379321,-0.629248,deaf
1616135320.8990314,1,43.0,2.0,76.0,75.0,55.0,0.667664,0.076355,-0.73407,0.097656,0.282443,-0.030534,-0.473282,9.102564,-1.96311,-2.207153,-0.649585,-1.556372,-1.330273,1.723853,-1.193897,-0.462964,deaf
1616135320.9089265,1,40.0,-3.0,76.0,72.0,55.0,0.667297,0.084717,-0.733704,0.095947,0.267176,-0.007634,-0.473282,9.2198,-1.67959,-2.411719,-0.534741,-1.406836,-1.519287,1.868603,-0.976172,-0.354102,deaf
1616135320.91916,1,42.0,0.0,77.0,74.0,11.0,0.667114,0.092896,-0.733154,0.093933,0.244275,0.007634,-0.473282,9.282007,-1.411621,-2.611499,-0.474927,-1.27644,-1.707104,2.016943,-0.77998,-0.29668,deaf
1616135320.928917,1,40.0,0.0,78.0,76.0,58.0,0.667053,0.100891,-0.732422,0.091736,0.229008,0.022901,-0.480916,9.307129,-1.147241,-2.774194,-0.449805,-1.148438,-1.860229,2.132983,-0.593359,-0.27395,deaf
1616135320.9388204,1,43.0,0.0,77.0,76.0,57.0,0.667053,0.108948,-0.731506,0.089478,0.229008,0.038168,-0.480916,9.315503,-0.875684,-2.915356,-0.439038,-1.016846,-1.993018,2.226294,-0.407935,-0.263184,deaf
1616135320.948882,1,40.0,-2.0,77.0,80.0,58.0,0.667297,0.117249,-0.730286,0.087158,0.244275,0.061069,-0.496183,9.365747,-0.575415,-2.995508,-0.385205,-0.861328,-2.071973,2.256201,-0.215332,-0.212939,deaf
1616135320.9588284,1,40.0,-1.0,77.0,73.0,57.0,0.667847,0.12616,-0.728577,0.085083,0.282443,0.099237,-0.519084,9.431543,-0.319409,-3.036182,-0.314624,-0.754858,-2.119824,2.265771,-0.077759,-0.14834,deaf
1616135320.9690142,1,41.0,0.0,76.0,75.0,56.0,0.668762,0.135803,-0.726196,0.083435,0.343511,0.137405,-0.541985,9.463842,-0.053833,-3.064893,-0.276343,-0.645996,-2.16648,2.272949,0.065796,-0.114844,deaf
1616135320.9789412,1,42.0,1.0,78.0,73.0,58.0,0.669922,0.146423,-0.723145,0.082458,0.412214,0.175573,-0.557252,9.454272,0.281128,-3.048145,-0.277539,-0.472534,-2.177246,2.225098,0.267969,-0.118433,deaf
1616135320.9887917,1,40.0,-3.0,69.0,76.0,58.0,0.671265,0.157837,-0.719543,0.082153,0.480916,0.206107,-0.557252,9.424365,0.665137,-2.987134,-0.295483,-0.252417,-2.150928,2.121021,0.507227,-0.132788,deaf
1616135320.9986906,1,42.0,-1.0,76.0,76.0,55.0,0.672729,0.1698,-0.715393,0.082397,0.519084,0.236641,-0.549618,9.368139,1.113745,-2.887842,-0.33855,0.029907,-2.091113,1.955933,0.796728,-0.161499,deaf
1616135321.0090954,1,39.0,-1.0,76.0,76.0,53.0,0.674438,0.181824,-0.710754,0.083008,0.534351,0.259542,-0.526718,9.337036,1.601831,-2.694043,-0.354102,0.354102,-1.94397,1.681982,1.082642,-0.155518,deaf
1616135321.01876,1,42.0,-1.0,78.0,75.0,58.0,0.676392,0.19342,-0.705688,0.083923,0.526718,0.282443,-0.48855,9.289185,2.104272,-2.441626,-0.384009,0.699829,-1.746582,1.343433,1.362573,-0.154321,deaf
1616135321.028767,1,40.0,0.0,76.0,73.0,55.0,0.678528,0.204407,-0.700378,0.084961,0.496183,0.29771,-0.450382,9.20664,2.585181,-2.184424,-0.447412,1.032398,-1.550391,1.00249,1.622168,-0.175854,deaf
1616135321.0387542,1,39.0,-1.0,76.0,79.0,54.0,0.680786,0.214539,-0.695068,0.08606,0.465649,0.29771,-0.40458,9.121704,3.002686,-1.924829,-0.514404,1.312329,-1.353003,0.674707,1.821948,-0.19978,deaf
1616135321.0488236,1,39.0,1.0,82.0,75.0,53.0,0.682983,0.223816,-0.689758,0.087219,0.435115,0.29771,-0.366412,9.082227,3.353198,-1.666431,-0.533545,1.536035,-1.158008,0.37085,1.952344,-0.178247,deaf
1616135321.058785,1,41.0,1.0,78.0,72.0,55.0,0.685181,0.232361,-0.684631,0.08844,0.40458,0.290076,-0.335878,9.101367,3.611597,-1.459473,-0.495264,1.677197,-1.013257,0.14834,2.012158,-0.107666,deaf
1616135321.0687704,1,43.0,0.0,76.0,75.0,56.0,0.687317,0.240417,-0.679443,0.089844,0.396947,0.29771,-0.312977,9.212622,3.81377,-1.23457,-0.363672,1.770508,-0.851758,-0.059814,1.99541,0.046655,deaf
1616135321.0787778,1,38.0,-3.0,72.0,74.0,57.0,0.689636,0.248291,-0.674011,0.091675,0.412214,0.320611,-0.290076,9.357373,3.932202,-1.016846,-0.198584,1.78606,-0.703418,-0.216528,1.904492,0.218921,deaf
1616135321.0886416,1,41.0,-3.0,76.0,77.0,56.0,0.692139,0.255981,-0.668274,0.094177,0.435115,0.351145,-0.267176,9.461451,4.053027,-0.788355,-0.076563,1.813574,-0.550293,-0.38042,1.823145,0.352905,deaf
1616135321.098706,1,42.0,-1.0,78.0,73.0,57.0,0.694702,0.263611,-0.662109,0.097168,0.442748,0.374046,-0.244275,9.449488,4.269556,-0.532349,-0.066992,1.940381,-0.376831,-0.618481,1.833911,0.400757,deaf
1616135321.108698,1,41.0,1.0,78.0,76.0,53.0,0.697449,0.270752,-0.655884,0.100342,0.435115,0.374046,-0.198473,9.358569,4.51958,-0.209351,-0.13877,2.107861,-0.139966,-0.939087,1.856641,0.384009,deaf
1616135321.1187367,1,41.0,0.0,77.0,74.0,56.0,0.700134,0.276855,-0.649902,0.103821,0.389313,0.358779,-0.129771,9.285596,4.755249,0.168677,-0.194995,2.277734,0.149536,-1.303955,1.842285,0.386401,deaf
1616135321.128787,1,42.0,0.0,77.0,76.0,57.0,0.702698,0.281616,-0.64447,0.107361,0.328244,0.328244,-0.061069,9.23894,4.956225,0.558667,-0.229687,2.433252,0.453394,-1.666431,1.796826,0.409131,deaf
1616135321.1389496,1,41.0,0.0,79.0,76.0,56.0,0.705322,0.285034,-0.639526,0.110779,0.267176,0.305344,-0.007634,9.241333,5.042358,0.923535,-0.217725,2.489478,0.732129,-1.94397,1.67002,0.452197,deaf
1616135321.1480064,1,41.0,-3.0,77.0,78.0,56.0,0.707886,0.287292,-0.635071,0.114258,0.221374,0.29771,0.030534,9.315503,4.929907,1.282422,-0.13877,2.365063,1.004883,-2.105469,1.386499,0.513208,deaf
1616135321.1588666,1,40.0,-1.0,76.0,74.0,58.0,0.71051,0.288696,-0.630737,0.118164,0.206107,0.29771,0.061069,9.396851,4.669116,1.601831,-0.055029,2.109058,1.232178,-2.152124,1.019238,0.543115,deaf
1616135321.1687658,1,40.0,-1.0,73.0,73.0,55.0,0.713013,0.289734,-0.626587,0.122437,0.21374,0.29771,0.083969,9.423169,4.384399,1.882959,-0.027515,1.838696,1.423584,-2.164087,0.672314,0.516797,deaf
1616135321.1787455,1,40.0,-1.0,76.0,72.0,55.0,0.715454,0.290833,-0.622437,0.127014,0.229008,0.290076,0.091603,9.45188,4.163086,2.168872,0.0,1.634131,1.619775,-2.210742,0.374438,0.512012,deaf
1616135321.1887374,1,41.0,10.0,78.0,75.0,58.0,0.717712,0.291931,-0.618286,0.131714,0.236641,0.282443,0.091603,9.443506,3.962109,2.422485,-0.007178,1.451099,1.784863,-2.245435,0.114844,0.479712,deaf
1616135321.1989212,1,41.0,0.0,78.0,76.0,57.0,0.719727,0.293091,-0.61438,0.136414,0.236641,0.259542,0.099237,9.401636,3.785058,2.650977,-0.047852,1.293188,1.932007,-2.283716,-0.107666,0.423486,deaf
1616135321.2086368,1,42.0,-3.0,76.0,73.0,58.0,0.721436,0.294067,-0.61084,0.141052,0.229008,0.229008,0.10687,9.359766,3.623559,2.843579,-0.089722,1.153223,2.051636,-2.305249,-0.301465,0.369653,deaf
1616135321.2187436,1,40.0,-1.0,77.0,75.0,58.0,0.722839,0.294861,-0.607727,0.145569,0.221374,0.198473,0.122137,9.339429,3.450098,3.003882,-0.111255,1.006079,2.146142,-2.296875,-0.489282,0.330176,deaf
1616135321.2287378,1,40.0,1.0,79.0,78.0,58.0,0.723938,0.295227,-0.605164,0.150085,0.198473,0.167939,0.145038,9.337036,3.261084,3.16897,-0.117236,0.851758,2.255005,-2.290894,-0.691455,0.30625,deaf
1616135321.237886,1,40.0,2.0,78.0,73.0,57.0,0.724792,0.295227,-0.603027,0.15448,0.175573,0.129771,0.160305,9.338232,3.105567,3.307739,-0.122021,0.736914,2.34353,-2.288501,-0.849365,0.290698,deaf
1616135321.2486925,1,41.0,1.0,78.0,75.0,57.0,0.725403,0.294861,-0.60144,0.158508,0.137405,0.091603,0.167939,9.359766,2.934497,3.395068,-0.10647,0.610107,2.388989,-2.241846,-0.990527,0.285913,deaf
1616135321.258785,1,41.0,1.0,77.0,76.0,58.0,0.72583,0.294189,-0.600342,0.162048,0.114504,0.068702,0.152672,9.413599,2.686865,3.444116,-0.061011,0.407935,2.403345,-2.118628,-1.169971,0.290698,deaf
1616135321.268717,1,41.0,0.0,78.0,74.0,55.0,0.726135,0.293518,-0.599365,0.165161,0.10687,0.053435,0.114504,9.462646,2.294482,3.422583,-0.016748,0.056226,2.351904,-1.855444,-1.422388,0.252417,deaf
1616135321.2786922,1,39.0,5.0,76.0,76.0,57.0,0.726318,0.293396,-0.59845,0.167908,0.114504,0.045802,0.053435,9.472217,1.775293,3.320899,-0.011963,-0.43186,2.22749,-1.461865,-1.728638,0.13877,deaf
1616135321.2887003,1,42.0,1.0,77.0,75.0,57.0,0.726379,0.294006,-0.597412,0.170349,0.152672,0.038168,-0.007634,9.410009,1.221411,3.154614,-0.076563,-0.968994,2.043262,-1.004883,-2.025317,-0.058618,deaf
1616135321.2987275,1,40.0,-2.0,76.0,76.0,57.0,0.726196,0.295654,-0.596191,0.172485,0.183206,0.030534,-0.061069,9.317896,0.856543,2.969189,-0.16748,-1.335059,1.849463,-0.645996,-2.179639,-0.248828,deaf
1616135321.308676,1,39.0,-1.0,79.0,76.0,57.0,0.725952,0.297913,-0.59491,0.174011,0.19084,0.015267,-0.099237,9.259277,0.759644,2.794531,-0.221313,-1.449902,1.671216,-0.440234,-2.150928,-0.349316,deaf
1616135321.318055,1,40.0,-1.0,78.0,73.0,57.0,0.72583,0.300415,-0.593567,0.174866,0.160305,0.015267,-0.114504,9.232959,0.88645,2.644995,-0.240454,-1.351807,1.519287,-0.38042,-1.977466,-0.366064,deaf
1616135321.3287375,1,38.0,1.0,77.0,70.0,56.0,0.725952,0.302307,-0.592346,0.175171,0.099237,0.007634,-0.091603,9.207837,1.167578,2.519385,-0.257202,-1.09939,1.387695,-0.433057,-1.701123,-0.342139,deaf
1616135321.3378117,1,41.0,0.0,78.0,88.0,56.0,0.726257,0.303223,-0.591553,0.174988,0.022901,0.0,-0.053435,9.162378,1.512109,2.409326,-0.297876,-0.775195,1.270459,-0.552686,-1.375732,-0.320605,deaf
1616135321.3486316,1,42.0,-1.0,78.0,74.0,58.0,0.726685,0.302979,-0.591309,0.174377,-0.061069,-0.015267,-0.007634,9.16836,1.841089,2.325586,-0.288306,-0.452197,1.178345,-0.679492,-1.073071,-0.245239,deaf
1616135321.3587115,1,41.0,-2.0,74.0,70.0,48.0,0.727234,0.301758,-0.591553,0.173462,-0.114504,-0.015267,0.015267,9.235352,2.02771,2.209546,-0.221313,-0.261987,1.052734,-0.687866,-0.852954,-0.149536,deaf
1616135321.3686135,1,41.0,0.0,75.0,74.0,55.0,0.727844,0.299927,-0.592041,0.172546,-0.137405,-0.015267,0.022901,9.321485,2.076758,2.06001,-0.137573,-0.198584,0.892432,-0.588574,-0.708203,-0.071777,deaf
1616135321.3780577,1,40.0,-1.0,77.0,78.0,56.0,0.728455,0.298035,-0.592529,0.171631,-0.129771,-0.007634,0.022901,9.378906,2.057617,1.885352,-0.082544,-0.203369,0.707007,-0.434253,-0.596948,-0.040674,deaf
1616135321.388611,1,41.0,1.0,76.0,73.0,55.0,0.729004,0.296509,-0.592773,0.170959,-0.099237,0.007634,0.007634,9.400439,2.01814,1.714282,-0.062207,-0.23208,0.523975,-0.275146,-0.503638,-0.049048,deaf
1616135321.3979118,1,42.0,0.0,78.0,74.0,55.0,0.729431,0.295715,-0.592834,0.17041,-0.061069,0.007634,-0.015267,9.400439,1.99541,1.571924,-0.062207,-0.251221,0.373242,-0.14834,-0.42229,-0.071777,deaf
1616135321.407971,1,41.0,-1.0,78.0,74.0,56.0,0.729736,0.295471,-0.592651,0.170044,-0.022901,0.015267,-0.030534,9.405225,2.025317,1.472632,-0.055029,-0.224902,0.267969,-0.082544,-0.336157,-0.071777,deaf
1616135321.4186895,1,41.0,0.0,74.0,76.0,57.0,0.72998,0.295715,-0.592285,0.1698,0.0,0.015267,-0.030534,9.378906,2.112647,1.421191,-0.078955,-0.147144,0.210547,-0.090918,-0.238062,-0.08374,deaf
1616135321.4279523,1,39.0,-1.0,79.0,76.0,58.0,0.730225,0.295959,-0.591919,0.169617,0.0,0.007634,-0.022901,9.338232,2.270557,1.411621,-0.117236,0.002393,0.194995,-0.178247,-0.108862,-0.087329,deaf
1616135321.4387329,1,47.0,0.0,76.0,76.0,56.0,0.730408,0.296021,-0.591736,0.169312,-0.022901,0.0,-0.007634,9.319092,2.428467,1.436743,-0.133984,0.153125,0.217725,-0.289502,-0.005981,-0.065796,deaf
1616135321.4481778,1,44.0,-2.0,78.0,75.0,26.0,0.730591,0.295715,-0.591797,0.168945,-0.038168,-0.015267,0.007634,9.32268,2.485889,1.449902,-0.130396,0.210547,0.227295,-0.330176,0.031104,-0.047852,deaf
1616135321.4578736,1,41.0,-1.0,76.0,75.0,58.0,0.730652,0.295105,-0.592102,0.168701,-0.045802,-0.022901,0.022901,9.348999,2.479907,1.448706,-0.105273,0.210547,0.226099,-0.322998,0.029907,-0.023926,deaf
1616135321.4681091,1,39.0,0.0,78.0,75.0,57.0,0.730713,0.294373,-0.592468,0.168457,-0.045802,-0.022901,0.022901,9.380102,2.454785,1.435547,-0.076563,0.193799,0.212939,-0.29668,0.022729,-0.002393,deaf
1616135321.4780276,1,39.0,-3.0,74.0,73.0,58.0,0.730652,0.293701,-0.592834,0.168335,-0.038168,-0.022901,0.022901,9.444702,2.388989,1.403247,-0.013159,0.13877,0.183032,-0.224902,-0.005981,0.04187,deaf
1616135321.4879632,1,44.0,-3.0,76.0,73.0,55.0,0.730652,0.293274,-0.593079,0.168335,-0.022901,-0.007634,0.015267,9.509302,2.318408,1.370947,0.047852,0.07417,0.150732,-0.147144,-0.04187,0.081348,deaf
1616135321.4981666,1,41.0,2.0,76.0,76.0,54.0,0.730652,0.29303,-0.59314,0.168518,0.0,0.0,0.007634,9.53562,2.284912,1.344629,0.072974,0.046655,0.123218,-0.104077,-0.047852,0.095703,deaf
1616135321.5078723,1,41.0,0.0,79.0,76.0,56.0,0.730713,0.292969,-0.593018,0.168823,0.007634,0.015267,0.007634,9.509302,2.294482,1.330273,0.046655,0.059814,0.105273,-0.104077,-0.023926,0.071777,deaf
1616135321.5179453,1,39.0,-2.0,76.0,73.0,57.0,0.730835,0.292969,-0.592773,0.169128,0.007634,0.015267,0.007634,9.448291,2.318408,1.325488,-0.013159,0.086133,0.094507,-0.126807,0.007178,0.017944,deaf
1616135323.944897,1,41.0,1.0,77.0,77.0,57.0,0.728638,0.168091,-0.663757,0.016418,-0.015267,0.0,0.0,9.378906,2.171265,0.526367,-0.154321,-0.015552,-0.08374,0.065796,0.038281,-0.15791,deaf
1616135323.9548855,1,41.0,1.0,77.0,71.0,55.0,0.728699,0.167786,-0.663757,0.016357,-0.022901,-0.007634,0.007634,9.382495,2.182031,0.551489,-0.150732,-0.001196,-0.061011,0.040674,0.044263,-0.149536,deaf
