"Alphabet","timestamp","user_id","flex_1","flex_2","flex_3","flex_4","flex_5","Qw","Qx","Qy","Qz","GYRx","GYRy","GYRz","ACCx","ACCy","ACCz","ACCx_body","ACCy_body","ACCz_body","ACCx_world","ACCy_world","ACCz_world"
"E","1617445472.1493616","7","59","43","44","45","26","0.752869","-0.190674","-0.615723","-0.133118","0.007634","-0.007634","-0.007634","9.225781","-1.190308","1.632935","-0.356494","0.016748","-0.022729","-0.045459","-0.007178","-0.354102"
"E","1617445472.1395302","7","65","47","44","46","26","0.75293","-0.190735","-0.615601","-0.133179","0","-0.015267","-0.007634","9.198267","-1.202271","1.597046","-0.384009","0.004785","-0.061011","-0.022729","-0.035889","-0.386401"
"E","1617445472.129576","7","61","43","43","43","28","0.752991","-0.190796","-0.61554","-0.13324","-0.007634","-0.007634","-0.007634","9.192286","-1.203467","1.577905","-0.38999","0.004785","-0.082544","-0.005981","-0.045459","-0.394775"
"E","1617445472.119486","7","65","49","45","42","27","0.753052","-0.190735","-0.615417","-0.13324","-0.007634","-0.007634","-0.007634","9.20664","-1.198682","1.585083","-0.374438","0.008374","-0.077759","-0.004785","-0.039478","-0.379224"
"E","1617445472.1093917","7","60","47","45","43","26","0.753113","-0.190674","-0.615356","-0.133179","-0.007634","-0.007634","-0.007634","9.215014","-1.190308","1.59585","-0.364868","0.017944","-0.068188","-0.007178","-0.026318","-0.369653"
"E","1617445472.099588","7","61","46","44","42","27","0.753174","-0.190613","-0.615356","-0.133118","-0.007634","0","-0.007634","9.213819","-1.1927","1.611401","-0.367261","0.015552","-0.053833","-0.021533","-0.022729","-0.369653"
"E","1617445472.0894494","7","59","45","41","44","26","0.753174","-0.190613","-0.615356","-0.133118","0","0","-0.007634","9.244922","-1.211841","1.630542","-0.336157","-0.002393","-0.034692","-0.039478","-0.028711","-0.333765"
"E","1617445472.0795703","7","60","45","42","41","28","0.753113","-0.190735","-0.615417","-0.133118","0","0","-0.007634","9.259277","-1.216626","1.649683","-0.321802","-0.005981","-0.013159","-0.057422","-0.021533","-0.31582"
"E","1617445472.0693936","7","61","44","45","43","26","0.752991","-0.190796","-0.615479","-0.133179","0","0","-0.007634","9.232959","-1.198682","1.649683","-0.34812","0.00957","-0.010767","-0.057422","-0.007178","-0.343335"
"E","1617445472.0594444","7","64","47","45","43","27","0.752991","-0.190857","-0.615479","-0.13324","0","-0.007634","-0.007634","9.200659","-1.169971","1.625757","-0.38042","0.039478","-0.034692","-0.031104","0.005981","-0.381616"
"E","1617445472.0494616","7","63","45","42","45","26","0.752991","-0.190918","-0.615479","-0.13324","0","-0.007634","-0.007634","9.150415","-1.144849","1.593457","-0.430664","0.0646","-0.066992","-0.001196","0.011963","-0.440234"
"E","1617445472.0393465","7","61","47","44","43","26","0.752991","-0.190979","-0.615417","-0.133301","0","-0.007634","-0.007634","9.12649","-1.140064","1.549194","-0.45459","0.070581","-0.111255","0.033496","-0.002393","-0.471338"
"E","1617445472.0293834","7","61","43","45","42","26","0.75293","-0.19104","-0.615479","-0.133301","-0.007634","0.007634","-0.007634","9.132471","-1.126904","1.519287","-0.448608","0.08374","-0.139966","0.065796","-0.003589","-0.472534"
"E","1617445472.0193691","7","60","43","41","41","27","0.752869","-0.19104","-0.615601","-0.133301","-0.007634","0.007634","0","9.151611","-1.102978","1.500147","-0.430664","0.107666","-0.156714","0.094507","0.00957","-0.460571"
"E","1617445472.009469","7","63","45","44","41","26","0.752747","-0.191101","-0.615784","-0.133179","0","0.015267","0","9.171948","-1.123315","1.475024","-0.411523","0.088525","-0.177051","0.107666","-0.014355","-0.442627"
"E","1617445471.9992943","7","61","44","44","41","26","0.752563","-0.191223","-0.615906","-0.133179","0.007634","0.015267","0","9.200659","-1.171167","1.452295","-0.382812","0.040674","-0.194995","0.108862","-0.0646","-0.411523"
"E","1617445471.9896407","7","61","42","43","42","26","0.752319","-0.191345","-0.61615","-0.13324","0","0.015267","0","9.240137","-1.196289","1.453491","-0.344531","0.015552","-0.187817","0.100488","-0.082544","-0.369653"
"E","1617445471.9794846","7","60","43","44","44","26","0.752136","-0.191406","-0.616333","-0.13324","0","0.007634","0","9.24851","-1.18313","1.45708","-0.336157","0.028711","-0.178247","0.099292","-0.065796","-0.361279"
"E","1617445471.9694686","7","60","45","41","42","27","0.752075","-0.191406","-0.616394","-0.13324","-0.007634","-0.007634","0","9.203052","-1.1604","1.446314","-0.382812","0.050244","-0.187817","0.107666","-0.052637","-0.411523"
"E","1617445471.9596","7","60","45","42","43","27","0.752136","-0.191406","-0.616394","-0.133301","0","-0.007634","0","9.176733","-1.136475","1.442725","-0.409131","0.07417","-0.192603","0.117236","-0.034692","-0.441431"
"E","1617445471.9495726","7","57","46","42","43","26","0.752197","-0.191345","-0.616272","-0.133362","0","-0.007634","0","9.175537","-1.125708","1.451099","-0.410327","0.08374","-0.186621","0.114844","-0.023926","-0.442627"
"E","1617445471.9393578","7","61","43","41","42","26","0.752258","-0.191345","-0.616211","-0.133484","0","-0.007634","0","9.183911","-1.111353","1.464258","-0.401953","0.096899","-0.175854","0.113647","-0.007178","-0.434253"
"E","1617445471.929444","7","59","44","43","42","26","0.752258","-0.191345","-0.61615","-0.133545","0","0","0","9.194677","-1.091016","1.481006","-0.38999","0.117236","-0.159106","0.110059","0.017944","-0.42229"
"E","1617445471.9194615","7","63","44","41","46","26","0.752258","-0.191345","-0.61615","-0.133484","-0.007634","0","0","9.205444","-1.080249","1.504932","-0.379224","0.128003","-0.135181","0.095703","0.039478","-0.409131"
"E","1617445471.9095626","7","63","45","43","43","26","0.752319","-0.191406","-0.61615","-0.133484","-0.007634","0","-0.007634","9.191089","-1.083838","1.515698","-0.394775","0.12561","-0.12561","0.08374","0.040674","-0.42229"
"E","1617445471.8995495","7","63","45","44","44","29","0.752319","-0.191406","-0.616089","-0.133362","-0.007634","0","-0.007634","9.199463","-1.107764","1.534839","-0.385205","0.104077","-0.10647","0.058618","0.029907","-0.406738"
"E","1617445471.890212","7","63","42","43","43","26","0.75238","-0.191406","-0.616089","-0.133179","-0.015267","0","-0.015267","9.217407","-1.15083","1.56355","-0.367261","0.063403","-0.078955","0.020337","0.007178","-0.379224"
"E","1617445471.8795853","7","61","43","43","42","26","0.752441","-0.191467","-0.616089","-0.132996","-0.007634","-0.007634","-0.015267","9.194677","-1.197485","1.562353","-0.38999","0.019141","-0.080151","-0.001196","-0.0323","-0.397168"
"E","1617445471.8695266","7","60","43","27","42","26","0.752502","-0.191528","-0.615967","-0.132751","-0.007634","-0.007634","-0.022901","9.17793","-1.223804","1.547998","-0.404346","-0.001196","-0.095703","0","-0.058618","-0.410327"
"E","1617445471.8597426","7","61","42","42","44","26","0.752563","-0.191711","-0.615906","-0.132446","0","-0.007634","-0.022901","9.17793","-1.254907","1.527661","-0.404346","-0.025122","-0.11604","0.007178","-0.088525","-0.411523"
"E","1617445471.8494864","7","63","45","44","44","26","0.752625","-0.191833","-0.615845","-0.132324","0","-0.007634","-0.015267","9.191089","-1.281226","1.507324","-0.38999","-0.047852","-0.137573","0.019141","-0.118433","-0.398364"
"E","1617445471.8401687","7","61","45","42","43","27","0.752625","-0.191895","-0.615784","-0.132263","-0.007634","-0.007634","-0.007634","9.186304","-1.2896","1.482202","-0.394775","-0.055029","-0.162695","0.035889","-0.136377","-0.405542"
"E","1617445471.8296025","7","61","44","42","43","26","0.752686","-0.191833","-0.615784","-0.132324","-0.015267","-0.007634","0","9.179126","-1.265674","1.46665","-0.401953","-0.0323","-0.179443","0.059814","-0.124414","-0.418701"
"E","1617445471.819634","7","61","43","42","42","29","0.752747","-0.191467","-0.615723","-0.132446","-0.022901","-0.007634","0.007634","9.185107","-1.208252","1.478613","-0.395972","0.017944","-0.171069","0.075366","-0.075366","-0.417505"
"E","1617445471.8093345","7","61","45","42","41","26","0.752869","-0.19104","-0.615784","-0.132507","-0.022901","0","0.015267","9.188696","-1.140064","1.512109","-0.393579","0.078955","-0.139966","0.075366","-0.005981","-0.417505"
"E","1617445471.8008502","7","60","44","42","41","26","0.752869","-0.190674","-0.615845","-0.132568","-0.015267","0","0.015267","9.179126","-1.094604","1.546802","-0.403149","0.118433","-0.10647","0.061011","0.043066","-0.425879"
"E","1617445471.7894356","7","60","44","42","44","26","0.752808","-0.19043","-0.615967","-0.132629","0","0.007634","0.007634","9.195874","-1.087427","1.58269","-0.387598","0.120825","-0.069385","0.0323","0.062207","-0.405542"
"E","1617445471.7795043","7","59","43","40","41","26","0.752686","-0.19043","-0.616089","-0.132751","0.007634","0.007634","0.007634","9.222193","-1.123315","1.592261","-0.361279","0.082544","-0.056226","0.010767","0.034692","-0.372046"
"E","1617445471.7697089","7","61","44","42","44","27","0.752502","-0.190613","-0.616272","-0.132935","0.015267","0.007634","0","9.23894","-1.175952","1.581494","-0.346924","0.028711","-0.062207","-0.003589","-0.014355","-0.352905"
"E","1617445471.759532","7","60","43","41","41","28","0.752319","-0.190735","-0.616333","-0.133118","0.007634","0","0","9.247314","-1.179541","1.575513","-0.337354","0.023926","-0.0646","-0.001196","-0.019141","-0.343335"
"E","1617445471.7501605","7","61","44","42","43","26","0.752258","-0.190735","-0.616394","-0.133179","-0.007634","-0.007634","0","9.235352","-1.136475","1.57312","-0.350513","0.065796","-0.065796","0.014355","0.016748","-0.361279"
"E","1617445471.7403412","7","64","45","43","43","28","0.75238","-0.190613","-0.616394","-0.133179","-0.022901","-0.015267","0","9.186304","-1.086231","1.54082","-0.400757","0.114844","-0.100488","0.055029","0.043066","-0.42229"
"E","1617445471.7295344","7","61","44","45","42","26","0.752563","-0.190186","-0.616272","-0.133057","-0.030534","-0.022901","0","9.161181","-1.040771","1.528857","-0.424683","0.156714","-0.118433","0.08374","0.071777","-0.453394"
"E","1617445471.7203565","7","61","45","46","44","26","0.752808","-0.189819","-0.616089","-0.132812","-0.022901","-0.015267","0","9.14563","-1.028809","1.532446","-0.437842","0.16748","-0.120825","0.088525","0.080151","-0.468945"
"E","1617445471.7102015","7","64","45","43","44","26","0.752991","-0.189697","-0.615967","-0.132629","-0.007634","-0.007634","-0.007634","9.16836","-1.094604","1.534839","-0.415112","0.102881","-0.122021","0.065796","0.022729","-0.439038"
"E","1617445471.7003186","7","63","46","42","43","26","0.753113","-0.189758","-0.615906","-0.132568","0","0","-0.007634","9.228174","-1.185522","1.546802","-0.355298","0.014355","-0.112451","0.031104","-0.049048","-0.367261"
"E","1617445471.6903894","7","64","47","43","46","27","0.753052","-0.18988","-0.615906","-0.132568","0.007634","0","-0.007634","9.304736","-1.24773","1.587476","-0.278735","-0.045459","-0.070581","-0.014355","-0.081348","-0.278735"
"E","1617445471.680392","7","61","44","44","39","25","0.752991","-0.190002","-0.615906","-0.132629","0","0","-0.007634","9.319092","-1.265674","1.623364","-0.26438","-0.062207","-0.033496","-0.05144","-0.078955","-0.256006"
"E","1617445471.6703117","7","59","42","41","42","26","0.752991","-0.190063","-0.615845","-0.13269","-0.007634","-0.015267","-0.007634","9.272436","-1.241748","1.648486","-0.309839","-0.038281","-0.00957","-0.071777","-0.049048","-0.299072"
"E","1617445471.660145","7","60","44","43","43","26","0.753113","-0.189941","-0.615784","-0.13269","-0.015267","-0.022901","0","9.193481","-1.195093","1.650879","-0.38999","0.005981","-0.00957","-0.069385","-0.011963","-0.382812"
"E","1617445471.6501253","7","61","43","41","44","27","0.753357","-0.189636","-0.615601","-0.132629","-0.030534","-0.022901","0","9.131274","-1.131689","1.642505","-0.451001","0.066992","-0.025122","-0.04187","0.0323","-0.453394"
"E","1617445471.6403496","7","59","45","41","43","26","0.753601","-0.189209","-0.615417","-0.132446","-0.030534","-0.022901","0","9.087011","-1.06709","1.628149","-0.494067","0.129199","-0.046655","-0.004785","0.077759","-0.50603"
"E","1617445471.6301875","7","61","43","47","42","26","0.753784","-0.188904","-0.615356","-0.132263","-0.022901","-0.015267","0","9.079834","-1.074268","1.587476","-0.501245","0.120825","-0.090918","0.027515","0.050244","-0.519189"
"E","1617445471.6201718","7","61","45","43","41","26","0.753906","-0.188721","-0.615295","-0.132141","-0.007634","0","0","9.118115","-1.132886","1.542017","-0.461768","0.061011","-0.139966","0.052637","-0.022729","-0.482104"
"E","1617445471.6103888","7","64","44","41","43","26","0.753845","-0.188782","-0.615356","-0.132202","0.007634","0.007634","0","9.192286","-1.208252","1.524072","-0.388794","-0.013159","-0.155518","0.049048","-0.093311","-0.404346"
"E","1617445471.600184","7","61","45","44","45","26","0.753662","-0.188904","-0.615479","-0.132263","0.007634","0.015267","0","9.268847","-1.258496","1.527661","-0.312231","-0.063403","-0.147144","0.035889","-0.132788","-0.321802"
"E","1617445471.590438","7","61","44","43","44","26","0.753479","-0.189026","-0.615601","-0.132385","0.007634","0.007634","-0.007634","9.304736","-1.270459","1.542017","-0.276343","-0.075366","-0.129199","0.022729","-0.133984","-0.282324"
"E","1617445471.5804365","7","64","44","44","46","26","0.753418","-0.189087","-0.615662","-0.132507","0","-0.007634","-0.007634","9.29397","-1.245337","1.544409","-0.288306","-0.05144","-0.124414","0.026318","-0.111255","-0.29668"
"E","1617445471.5702271","7","61","45","44","43","26","0.753479","-0.188965","-0.615601","-0.132568","-0.015267","-0.015267","0","9.265259","-1.196289","1.565942","-0.317017","-0.004785","-0.105273","0.023926","-0.061011","-0.326587"
"E","1617445471.5603266","7","61","45","44","43","28","0.753723","-0.188721","-0.615417","-0.132507","-0.022901","-0.022901","0","9.236547","-1.128101","1.60542","-0.344531","0.061011","-0.072974","0.017944","0.00957","-0.356494"
"E","1617445471.550289","7","57","44","44","41","26","0.753967","-0.188354","-0.615234","-0.132446","-0.022901","-0.030534","0","9.205444","-1.075464","1.644897","-0.374438","0.110059","-0.040674","0.004785","0.068188","-0.385205"
"E","1617445471.5403404","7","63","44","43","41","29","0.754272","-0.188049","-0.61499","-0.132324","-0.022901","-0.022901","0","9.185107","-1.055127","1.674805","-0.393579","0.129199","-0.019141","-0.00957","0.094507","-0.403149"
"E","1617445471.5304034","7","61","44","42","41","26","0.754517","-0.187866","-0.614746","-0.132263","-0.007634","-0.022901","0","9.191089","-1.069482","1.703516","-0.386401","0.114844","0.002393","-0.0323","0.090918","-0.38999"
"E","1617445471.5202806","7","64","47","42","41","26","0.754639","-0.187866","-0.614563","-0.132263","0.007634","-0.015267","0","9.212622","-1.128101","1.713086","-0.363672","0.057422","0.007178","-0.057422","0.043066","-0.360083"
"E","1617445471.5103786","7","61","48","44","43","27","0.754639","-0.188049","-0.614502","-0.132385","0.015267","-0.007634","-0.007634","9.258081","-1.210644","1.713086","-0.318213","-0.022729","0.007178","-0.082544","-0.026318","-0.30625"
"E","1617445471.500268","7","65","43","44","44","27","0.754578","-0.188293","-0.614502","-0.132568","0.015267","0","-0.007634","9.296362","-1.260889","1.69873","-0.281128","-0.071777","-0.004785","-0.084937","-0.07417","-0.266772"
"E","1617445471.490348","7","60","45","44","41","27","0.754456","-0.188416","-0.614563","-0.13269","-0.007634","0","-0.007634","9.308325","-1.263281","1.678394","-0.269165","-0.075366","-0.022729","-0.068188","-0.084937","-0.257202"
"E","1617445471.480382","7","61","45","43","42","27","0.754456","-0.188293","-0.614624","-0.13269","-0.022901","-0.007634","-0.007634","9.305933","-1.208252","1.681982","-0.271558","-0.021533","-0.019141","-0.049048","-0.035889","-0.265576"
"E","1617445471.4702992","7","61","44","43","42","25","0.754578","-0.188049","-0.614624","-0.132568","-0.022901","-0.015267","-0.007634","9.256885","-1.128101","1.667627","-0.321802","0.055029","-0.035889","-0.011963","0.022729","-0.326587"
"E","1617445471.4602833","7","63","43","42","43","26","0.754761","-0.187744","-0.614502","-0.132324","-0.022901","-0.015267","-0.007634","9.200659","-1.095801","1.649683","-0.375635","0.087329","-0.057422","0.008374","0.040674","-0.387598"
"E","1617445471.450673","7","62","47","41","43","25","0.754883","-0.187622","-0.61438","-0.132202","-0.007634","-0.007634","-0.007634","9.179126","-1.104175","1.644897","-0.397168","0.078955","-0.065796","0.007178","0.028711","-0.409131"
"E","1617445471.4404595","7","64","43","43","42","26","0.754883","-0.187683","-0.614319","-0.132202","0.007634","0","-0.007634","9.1875","-1.135278","1.650879","-0.387598","0.049048","-0.061011","-0.005981","0.003589","-0.394775"
"E","1617445471.430353","7","61","46","44","41","26","0.754822","-0.187927","-0.61438","-0.132263","0.015267","0.007634","-0.007634","9.19707","-1.169971","1.64729","-0.379224","0.016748","-0.062207","-0.016748","-0.023926","-0.382812"
"E","1617445471.4203303","7","61","45","44","44","27","0.754578","-0.188171","-0.614563","-0.132385","0.015267","0.015267","0","9.216211","-1.195093","1.643701","-0.360083","-0.005981","-0.058618","-0.026318","-0.04187","-0.361279"
"E","1617445471.4102645","7","59","47","42","41","26","0.754333","-0.188477","-0.614746","-0.132568","0.015267","0.015267","0","9.228174","-1.205859","1.630542","-0.350513","-0.015552","-0.065796","-0.021533","-0.053833","-0.351709"
"E","1617445471.4002907","7","60","44","44","43","24","0.75415","-0.188599","-0.614929","-0.13269","0","0.007634","0","9.218603","-1.186719","1.594653","-0.361279","0.001196","-0.096899","0.00957","-0.052637","-0.369653"
"E","1617445471.3903098","7","58","45","42","41","26","0.754028","-0.188538","-0.615051","-0.13269","-0.015267","0","0","9.213819","-1.140064","1.577905","-0.366064","0.046655","-0.110059","0.039478","-0.019141","-0.381616"
"E","1617445471.380306","7","61","47","41","44","26","0.754028","-0.188232","-0.615173","-0.132568","-0.030534","0","0","9.215014","-1.085034","1.565942","-0.364868","0.098096","-0.122021","0.072974","0.021533","-0.388794"
"E","1617445471.370322","7","63","45","45","44","27","0.754089","-0.187927","-0.615234","-0.132324","-0.022901","-0.007634","0","9.199463","-1.052734","1.55398","-0.38042","0.129199","-0.133984","0.093311","0.043066","-0.410327"
"E","1617445471.36059","7","60","43","45","44","26","0.754211","-0.187744","-0.615234","-0.132141","-0.007634","-0.007634","0","9.180323","-1.065894","1.525269","-0.399561","0.114844","-0.165088","0.111255","0.015552","-0.43186"
"E","1617445471.3502965","7","62","44","45","43","26","0.754272","-0.187744","-0.615112","-0.13208","0.007634","-0.007634","-0.007634","9.169556","-1.11853","1.522876","-0.409131","0.0646","-0.169873","0.090918","-0.029907","-0.436646"
"E","1617445471.34035","7","64","45","42","40","26","0.754272","-0.187927","-0.615051","-0.132141","0.015267","0","-0.007634","9.171948","-1.171167","1.53125","-0.406738","0.013159","-0.161499","0.062207","-0.072974","-0.427075"
"E","1617445471.3305626","7","61","45","42","43","26","0.754272","-0.18811","-0.61499","-0.132324","0.007634","0","-0.007634","9.203052","-1.191504","1.570728","-0.375635","-0.004785","-0.122021","0.026318","-0.070581","-0.387598"
"E","1617445471.320296","7","61","37","31","43","26","0.754211","-0.188232","-0.61499","-0.132446","0","0","0","9.234156","-1.165186","1.628149","-0.344531","0.020337","-0.0646","-0.005981","-0.021533","-0.349316"
"E","1617445471.3103037","7","59","43","42","42","27","0.754211","-0.188232","-0.61499","-0.132446","-0.007634","-0.007634","0","9.22937","-1.131689","1.671216","-0.349316","0.053833","-0.021533","-0.029907","0.026318","-0.350513"
"E","1617445471.3004434","7","60","45","45","45","29","0.754272","-0.18811","-0.61499","-0.132385","-0.015267","-0.015267","0","9.183911","-1.094604","1.681982","-0.395972","0.089722","-0.011963","-0.0323","0.062207","-0.399561"
"E","1617445471.2905374","7","59","45","44","46","26","0.754333","-0.187988","-0.614929","-0.132263","-0.015267","-0.015267","0","9.161181","-1.086231","1.677197","-0.417505","0.098096","-0.017944","-0.028711","0.065796","-0.42229"
"E","1617445471.2805524","7","61","44","44","42","26","0.754456","-0.187866","-0.614868","-0.132141","-0.007634","-0.007634","-0.007634","9.144434","-1.10896","1.642505","-0.434253","0.076563","-0.055029","-0.008374","0.029907","-0.442627"
"E","1617445471.2704403","7","61","45","42","42","26","0.754517","-0.187866","-0.614807","-0.132141","0","-0.007634","-0.007634","9.14563","-1.135278","1.600635","-0.43186","0.050244","-0.099292","0.017944","-0.011963","-0.44502"
"E","1617445471.2602792","7","63","47","45","44","26","0.754517","-0.187927","-0.614746","-0.132141","0","0","0","9.169556","-1.15083","1.571924","-0.407935","0.035889","-0.128003","0.04187","-0.037085","-0.424683"
"E","1617445471.2504053","7","61","53","43","43","27","0.754456","-0.187988","-0.614807","-0.132202","0","0","0","9.20664","-1.155615","1.565942","-0.37085","0.031104","-0.132788","0.05144","-0.043066","-0.388794"
"E","1617445471.240338","7","61","45","44","42","26","0.754395","-0.187988","-0.614868","-0.132263","0","0.007634","0","9.234156","-1.152026","1.568335","-0.344531","0.033496","-0.128003","0.053833","-0.037085","-0.362476"
"E","1617445471.230239","7","61","44","44","43","27","0.754333","-0.187988","-0.614929","-0.132385","0","0.007634","0","9.246119","-1.149634","1.580298","-0.332568","0.033496","-0.114844","0.045459","-0.031104","-0.34812"
"E","1617445471.2204404","7","61","44","45","44","27","0.754272","-0.187927","-0.615051","-0.132446","-0.007634","0","0","9.247314","-1.135278","1.59585","-0.332568","0.045459","-0.098096","0.035889","-0.013159","-0.346924"
"E","1617445471.2104945","7","63","44","42","42","26","0.754211","-0.187805","-0.615112","-0.132446","-0.007634","0","0","9.247314","-1.123315","1.601831","-0.332568","0.055029","-0.090918","0.033496","-0.001196","-0.346924"
"E","1617445471.2005675","7","64","45","44","45","29","0.754211","-0.187744","-0.615173","-0.132446","-0.007634","0","0","9.247314","-1.114941","1.61499","-0.333765","0.063403","-0.076563","0.023926","0.011963","-0.346924"
"E","1617445471.1905365","7","60","43","44","42","71","0.754211","-0.187683","-0.615173","-0.132385","-0.007634","-0.007634","-0.007634","9.236547","-1.114941","1.598242","-0.343335","0.062207","-0.093311","0.037085","0.002393","-0.358887"
"E","1617445471.1805325","7","63","47","44","43","63","0.754211","-0.187683","-0.615112","-0.132385","-0.007634","-0.007634","-0.007634","9.228174","-1.120923","1.570728","-0.351709","0.057422","-0.122021","0.058618","-0.013159","-0.37085"
"E","1617445471.170486","7","61","39","44","43","26","0.754272","-0.187683","-0.615112","-0.132385","-0.007634","-0.007634","-0.007634","9.23894","-1.110156","1.57312","-0.340942","0.068188","-0.120825","0.063403","-0.002393","-0.361279"
"E","1617445471.160521","7","61","46","44","43","26","0.754333","-0.187561","-0.615051","-0.132324","-0.015267","-0.007634","-0.007634","9.217407","-1.07666","1.57312","-0.362476","0.100488","-0.122021","0.07417","0.023926","-0.386401"
"E","1617445471.1505857","7","61","44","44","41","26","0.754517","-0.187439","-0.614929","-0.132202","-0.015267","-0.007634","-0.007634","9.192286","-1.062305","1.575513","-0.386401","0.11604","-0.124414","0.077759","0.035889","-0.41272"
"E","1617445471.140572","7","61","44","44","42","26","0.754639","-0.187317","-0.614807","-0.13208","-0.015267","-0.007634","-0.007634","9.192286","-1.06709","1.591064","-0.385205","0.111255","-0.112451","0.065796","0.037085","-0.409131"
"E","1617445471.1304383","7","61","44","42","43","26","0.7547","-0.187195","-0.614807","-0.131897","-0.007634","0","-0.007634","9.21023","-1.094604","1.612598","-0.367261","0.084937","-0.090918","0.039478","0.023926","-0.384009"
"E","1617445471.120361","7","59","44","41","43","26","0.7547","-0.187256","-0.614807","-0.131714","0","0","-0.007634","9.253296","-1.152026","1.624561","-0.324194","0.029907","-0.078955","0.013159","-0.017944","-0.333765"
"E","1617445471.1105974","7","61","46","43","38","26","0.754639","-0.187439","-0.614868","-0.131653","0.007634","0","-0.015267","9.276026","-1.216626","1.642505","-0.301465","-0.029907","-0.058618","-0.023926","-0.062207","-0.300269"
"E","1617445471.1004624","7","61","44","42","43","26","0.754639","-0.187622","-0.614868","-0.131653","0.007634","0","-0.015267","9.259277","-1.241748","1.658057","-0.318213","-0.052637","-0.04187","-0.05144","-0.075366","-0.311035"
"E","1617445471.0904791","7","60","44","42","45","26","0.754578","-0.187744","-0.614868","-0.131653","0","0","-0.015267","9.234156","-1.226196","1.662842","-0.343335","-0.035889","-0.035889","-0.055029","-0.058618","-0.337354"
"E","1617445471.0807168","7","64","45","42","43","28","0.754578","-0.187805","-0.614868","-0.131653","-0.007634","-0.007634","-0.007634","9.195874","-1.185522","1.648486","-0.381616","0.004785","-0.050244","-0.033496","-0.029907","-0.381616"
"E","1617445471.0705116","7","61","45","43","41","26","0.754578","-0.187744","-0.614868","-0.131592","-0.015267","-0.007634","0","9.174341","-1.123315","1.638916","-0.403149","0.066992","-0.059814","-0.002393","0.019141","-0.411523"
"E","1617445471.0605028","7","58","45","44","43","25","0.754639","-0.187561","-0.614868","-0.131592","-0.015267","-0.007634","0","9.16836","-1.069482","1.634131","-0.409131","0.118433","-0.065796","0.022729","0.063403","-0.424683"
"E","1617445471.0505831","7","61","45","45","43","26","0.754639","-0.187317","-0.614868","-0.131531","-0.015267","-0.007634","0","9.14563","-1.038379","1.628149","-0.430664","0.145947","-0.072974","0.035889","0.08374","-0.451001"
"E","1617445471.0402668","7","61","47","43","42","26","0.7547","-0.187195","-0.614868","-0.13147","-0.007634","-0.007634","0","9.12649","-1.039575","1.592261","-0.451001","0.144751","-0.110059","0.063403","0.065796","-0.477319"
"E","1617445471.0305543","7","60","44","41","44","26","0.7547","-0.187195","-0.614929","-0.131409","0","0","0","9.143237","-1.088623","1.571924","-0.434253","0.095703","-0.129199","0.063403","0.014355","-0.458179"
"E","1617445471.0213077","7","61","44","42","42","26","0.754639","-0.187317","-0.61499","-0.131409","0.007634","0.007634","-0.007634","9.182714","-1.159204","1.552783","-0.395972","0.026318","-0.145947","0.056226","-0.053833","-0.415112"
"E","1617445471.010522","7","61","43","44","78","26","0.754517","-0.187561","-0.615051","-0.13147","0.007634","0.007634","-0.007634","9.204248","-1.220215","1.546802","-0.374438","-0.031104","-0.149536","0.039478","-0.105273","-0.387598"
"E","1617445471.0012424","7","62","42","40","41","26","0.754395","-0.187744","-0.615112","-0.13147","0","0.007634","-0.015267","9.20664","-1.230981","1.549194","-0.372046","-0.039478","-0.143555","0.031104","-0.111255","-0.382812"
"E","1617445470.9907897","7","61","45","44","40","26","0.754333","-0.187805","-0.615173","-0.131409","-0.007634","0","-0.015267","9.216211","-1.220215","1.55398","-0.362476","-0.027515","-0.136377","0.0323","-0.096899","-0.374438"
"E","1617445470.980375","7","61","51","43","41","27","0.754395","-0.187744","-0.615173","-0.131226","-0.015267","-0.007634","-0.015267","9.204248","-1.198682","1.57312","-0.374438","-0.004785","-0.118433","0.022729","-0.068188","-0.385205"
"E","1617445470.971212","7","61","43","42","42","26","0.754578","-0.187622","-0.615051","-0.130981","-0.022901","-0.015267","-0.007634","9.169556","-1.175952","1.585083","-0.407935","0.019141","-0.110059","0.019141","-0.044263","-0.419897"
"E","1617445470.9606302","7","63","44","44","44","26","0.754761","-0.187317","-0.614929","-0.130737","-0.022901","-0.015267","-0.007634","9.154004","-1.156811","1.603027","-0.42229","0.038281","-0.096899","0.011963","-0.021533","-0.433057"
"E","1617445470.9513297","7","60","45","43","43","28","0.754944","-0.187134","-0.614807","-0.130554","-0.015267","-0.015267","-0.007634","9.159986","-1.154419","1.624561","-0.415112","0.040674","-0.080151","0","-0.011963","-0.423486"
"E","1617445470.941247","7","60","45","43","46","26","0.755066","-0.187012","-0.614746","-0.130371","-0.007634","-0.007634","-0.007634","9.169556","-1.1927","1.63772","-0.405542","0.003589","-0.069385","-0.021533","-0.040674","-0.407935"
"E","1617445470.930595","7","64","44","42","43","26","0.755127","-0.187073","-0.614685","-0.130371","0.007634","0","-0.007634","9.1875","-1.242944","1.653271","-0.387598","-0.044263","-0.055029","-0.05144","-0.076563","-0.382812"
"E","1617445470.9211874","7","61","42","42","39","26","0.755066","-0.187256","-0.614685","-0.130432","0.007634","0","-0.007634","9.216211","-1.284814","1.673608","-0.358887","-0.084937","-0.033496","-0.081348","-0.101685","-0.345728"
"E","1617445470.911309","7","59","43","42","44","26","0.755005","-0.187439","-0.614685","-0.130493","0.007634","0","-0.007634","9.228174","-1.306348","1.680786","-0.346924","-0.104077","-0.025122","-0.094507","-0.114844","-0.330176"
"E","1617445470.9012637","7","61","44","42","40","26","0.754944","-0.1875","-0.614746","-0.130615","0","-0.007634","-0.007634","9.217407","-1.293188","1.683179","-0.358887","-0.092114","-0.020337","-0.096899","-0.102881","-0.342139"
"E","1617445470.891326","7","60","41","41","43","26","0.754944","-0.187378","-0.614746","-0.130676","-0.015267","-0.007634","0","9.204248","-1.221411","1.687964","-0.37085","-0.022729","-0.016748","-0.071777","-0.039478","-0.362476"
"E","1617445470.881111","7","60","45","41","40","26","0.755005","-0.187134","-0.614746","-0.130737","-0.022901","-0.015267","0.007634","9.1875","-1.131689","1.693945","-0.388794","0.062207","-0.011963","-0.044263","0.037085","-0.388794"
"E","1617445470.8712373","7","63","45","41","44","26","0.755066","-0.186829","-0.614746","-0.130676","-0.015267","-0.007634","0.007634","9.167163","-1.062305","1.680786","-0.409131","0.128003","-0.027515","-0.005981","0.088525","-0.419897"
"E","1617445470.8605158","7","61","44","41","41","26","0.755066","-0.186584","-0.614746","-0.130737","-0.007634","0","0.007634","9.171948","-1.046753","1.655664","-0.403149","0.13877","-0.053833","0.021533","0.087329","-0.419897"
"E","1617445470.8512008","7","60","43","43","44","26","0.755005","-0.186523","-0.614868","-0.130859","0.007634","0.007634","0.007634","9.199463","-1.059912","1.646094","-0.376831","0.123218","-0.061011","0.026318","0.070581","-0.393579"
"E","1617445470.841175","7","59","43","41","42","26","0.754822","-0.186646","-0.61499","-0.131042","0.007634","0.007634","0.007634","9.2198","-1.089819","1.638916","-0.35769","0.090918","-0.0646","0.020337","0.040674","-0.37085"
"E","1617445470.8306694","7","61","43","42","43","26","0.754639","-0.186707","-0.615173","-0.131165","0","0.015267","0.007634","9.23894","-1.123315","1.63772","-0.339746","0.056226","-0.061011","0.005981","0.011963","-0.349316"
"E","1617445470.8212647","7","59","41","42","41","26","0.754456","-0.186707","-0.615417","-0.131287","-0.007634","0.007634","0","9.2521","-1.130493","1.635327","-0.327783","0.046655","-0.057422","0.001196","0.004785","-0.334961"
"E","1617445470.8112164","7","60","44","42","48","27","0.754333","-0.186646","-0.615601","-0.131165","-0.015267","0","-0.007634","9.235352","-1.11853","1.630542","-0.345728","0.057422","-0.058618","0.003589","0.014355","-0.354102"
"E","1617445470.8013413","7","63","43","41","43","26","0.754333","-0.186584","-0.615662","-0.130981","-0.015267","-0.007634","-0.007634","9.192286","-1.123315","1.603027","-0.388794","0.053833","-0.084937","0.016748","-0.001196","-0.400757"
"E","1617445470.7912254","7","60","44","41","42","26","0.754395","-0.186523","-0.615662","-0.130798","-0.015267","-0.007634","-0.015267","9.154004","-1.135278","1.56355","-0.427075","0.044263","-0.12561","0.040674","-0.028711","-0.443823"
"E","1617445470.7811897","7","61","44","44","43","26","0.754456","-0.186523","-0.615601","-0.130615","0","-0.007634","-0.015267","9.1552","-1.159204","1.538428","-0.424683","0.022729","-0.151929","0.055029","-0.059814","-0.443823"
"E","1617445470.7712035","7","60","45","42","41","26","0.754517","-0.186707","-0.615479","-0.130493","0.007634","-0.007634","-0.015267","9.163574","-1.193897","1.534839","-0.415112","-0.005981","-0.156714","0.047852","-0.087329","-0.43186"
"E","1617445470.7611978","7","59","44","40","44","26","0.754517","-0.18689","-0.615417","-0.130554","0.015267","-0.007634","-0.007634","9.16477","-1.217822","1.533643","-0.413916","-0.028711","-0.15791","0.039478","-0.108862","-0.428271"
"E","1617445470.7512937","7","61","44","44","43","27","0.754517","-0.187073","-0.615295","-0.130676","0.007634","0","-0.007634","9.1875","-1.223804","1.559961","-0.38999","-0.0323","-0.132788","0.021533","-0.100488","-0.399561"
"E","1617445470.7412026","7","61","43","45","44","26","0.754517","-0.187195","-0.615295","-0.130798","0","0","0","9.203052","-1.21543","1.610205","-0.375635","-0.023926","-0.082544","-0.015552","-0.069385","-0.378027"
"E","1617445470.731238","7","61","46","43","41","28","0.754517","-0.187195","-0.615295","-0.13092","-0.007634","0","0","9.201856","-1.185522","1.644897","-0.376831","0.003589","-0.047852","-0.034692","-0.029907","-0.376831"
"E","1617445470.7213416","7","64","45","44","42","27","0.754517","-0.187073","-0.615295","-0.13092","-0.015267","-0.007634","0","9.211426","-1.149634","1.687964","-0.367261","0.037085","-0.004785","-0.056226","0.017944","-0.363672"
"E","1617445470.7113748","7","60","45","42","46","28","0.754517","-0.186951","-0.615356","-0.130859","-0.015267","-0.015267","0","9.194677","-1.117334","1.693945","-0.384009","0.068188","0","-0.050244","0.047852","-0.382812"
"E","1617445470.7012703","7","61","43","80","41","26","0.754578","-0.186829","-0.615295","-0.130798","-0.007634","-0.015267","0","9.152807","-1.11853","1.661646","-0.425879","0.066992","-0.033496","-0.029907","0.031104","-0.429468"
"E","1617445470.6913784","7","61","45","42","42","27","0.754639","-0.186829","-0.615234","-0.130798","0","-0.007634","0","9.148023","-1.142456","1.630542","-0.430664","0.043066","-0.065796","-0.013159","-0.003589","-0.436646"
"E","1617445470.681261","7","61","47","42","43","26","0.754639","-0.18689","-0.615173","-0.13092","0.007634","-0.007634","0","9.142041","-1.148438","1.591064","-0.435449","0.037085","-0.10647","0.017944","-0.027515","-0.447412"
"E","1617445470.6711967","7","63","45","46","44","26","0.754639","-0.187012","-0.615112","-0.131042","0.007634","0","0","9.148023","-1.149634","1.561157","-0.429468","0.035889","-0.136377","0.045459","-0.04187","-0.447412"
"E","1617445470.6612182","7","65","44","43","41","26","0.754578","-0.187073","-0.615173","-0.131226","0.007634","0.007634","0","9.169556","-1.140064","1.54082","-0.409131","0.044263","-0.155518","0.069385","-0.04187","-0.43186"
"E","1617445470.0520422","7","62","43","45","43","26","0.75354","-0.188049","-0.616577","-0.128906","0.007634","-0.007634","-0.015267","9.161181","-1.222607","1.538428","-0.419897","-0.002393","-0.11604","0.014355","-0.068188","-0.429468"
"E","1617445470.0421937","7","61","44","44","42","26","0.75354","-0.188293","-0.616516","-0.128967","0.015267","0","-0.007634","9.170752","-1.250122","1.519287","-0.410327","-0.027515","-0.135181","0.021533","-0.099292","-0.419897"
"E","1617445470.0320387","7","63","42","42","44","27","0.753418","-0.188538","-0.616577","-0.129028","0.015267","0.007634","-0.007634","9.216211","-1.264477","1.520483","-0.364868","-0.039478","-0.130396","0.021533","-0.10647","-0.373242"
"E","1617445470.0222692","7","60","43","42","41","26","0.753296","-0.188721","-0.616699","-0.12915","0.007634","0.007634","0","9.2521","-1.260889","1.532446","-0.330176","-0.034692","-0.114844","0.017944","-0.094507","-0.337354"
"E","1617445470.0123389","7","61","44","42","44","26","0.753113","-0.188843","-0.616821","-0.129272","0","0.007634","0","9.266455","-1.242944","1.542017","-0.31582","-0.017944","-0.101685","0.016748","-0.072974","-0.322998"
"E","1617445470.0021658","7","63","44","42","42","26","0.753052","-0.188843","-0.616882","-0.129333","-0.007634","0.007634","0","9.265259","-1.207056","1.565942","-0.318213","0.015552","-0.076563","0.008374","-0.031104","-0.325391"
"E","1617445469.992334","7","62","44","41","43","27","0.75293","-0.188721","-0.617004","-0.129333","-0.015267","0","0","9.264063","-1.17356","1.593457","-0.319409","0.046655","-0.045459","-0.004785","0.008374","-0.325391"
"E","1617445469.982141","7","59","44","40","41","26","0.75293","-0.188538","-0.617126","-0.129272","-0.015267","-0.007634","0","9.235352","-1.136475","1.591064","-0.349316","0.081348","-0.046655","0.003589","0.038281","-0.358887"
"E","1617445469.9721186","7","59","45","42","42","37","0.752991","-0.188477","-0.617065","-0.129211","-0.007634","-0.015267","0","9.179126","-1.120923","1.555176","-0.404346","0.096899","-0.084937","0.0323","0.033496","-0.421094"
"E","1617445469.9622133","7","60","44","44","42","26","0.753052","-0.188477","-0.617004","-0.129211","0","-0.015267","0","9.140844","-1.130493","1.515698","-0.442627","0.088525","-0.12561","0.057422","0.005981","-0.46416"
"E","1617445469.9522758","7","59","44","42","41","26","0.753113","-0.188538","-0.616882","-0.129395","0.007634","-0.007634","0","9.149219","-1.1604","1.495361","-0.434253","0.057422","-0.14834","0.065796","-0.029907","-0.455786"
"E","1617445469.9421566","7","60","43","42","39","26","0.753113","-0.188599","-0.616821","-0.129578","0.007634","0","0","9.174341","-1.161597","1.500147","-0.409131","0.055029","-0.144751","0.065796","-0.029907","-0.430664"
"E","1617445469.9321055","7","61","44","44","43","26","0.753113","-0.188599","-0.616821","-0.1297","0","0","0","9.198267","-1.14126","1.518091","-0.385205","0.07417","-0.126807","0.063403","-0.003589","-0.406738"
"E","1617445469.9221902","7","60","46","42","43","26","0.753052","-0.188538","-0.616882","-0.129822","-0.007634","-0.007634","0.007634","9.193481","-1.11853","1.524072","-0.391187","0.094507","-0.120825","0.065796","0.015552","-0.413916"
"E","1617445469.912315","7","61","45","43","41","26","0.753113","-0.188416","-0.616821","-0.129883","-0.007634","0","0.007634","9.188696","-1.131689","1.52168","-0.394775","0.078955","-0.124414","0.062207","0","-0.416309"
"E","1617445469.9024024","7","60","46","48","44","28","0.753113","-0.188293","-0.616882","-0.129883","-0.015267","-0.007634","0","9.205444","-1.130493","1.536035","-0.379224","0.077759","-0.110059","0.05144","0.005981","-0.398364"
"E","1617445469.892243","7","61","43","42","43","26","0.753174","-0.18811","-0.616821","-0.129883","-0.015267","-0.015267","-0.007634","9.185107","-1.123315","1.55398","-0.398364","0.082544","-0.094507","0.035889","0.016748","-0.415112"
"E","1617445469.8821676","7","61","47","45","41","26","0.753357","-0.187988","-0.616699","-0.129761","-0.007634","-0.015267","-0.007634","9.157593","-1.119727","1.562353","-0.425879","0.087329","-0.090918","0.028711","0.021533","-0.441431"
"E","1617445469.872151","7","64","46","45","43","26","0.753479","-0.187988","-0.616516","-0.1297","0","-0.022901","-0.007634","9.124097","-1.132886","1.544409","-0.458179","0.075366","-0.112451","0.035889","0","-0.476123"
"E","1617445469.8622456","7","59","43","42","42","26","0.753662","-0.18811","-0.616272","-0.129639","0.007634","-0.015267","-0.007634","9.115723","-1.154419","1.539624","-0.465356","0.057422","-0.122021","0.034692","-0.019141","-0.482104"
"E","1617445469.852344","7","61","45","45","42","26","0.753723","-0.188232","-0.61615","-0.1297","0.007634","-0.007634","-0.007634","9.144434","-1.172363","1.549194","-0.435449","0.04187","-0.114844","0.028711","-0.028711","-0.449805"
"E","1617445469.8424408","7","60","46","44","41","26","0.753784","-0.188416","-0.616028","-0.129761","0.007634","-0.007634","-0.007634","9.176733","-1.186719","1.556372","-0.403149","0.029907","-0.108862","0.023926","-0.035889","-0.416309"
"E","1617445469.832407","7","61","45","44","44","27","0.753723","-0.188538","-0.616028","-0.129822","0.007634","-0.007634","-0.007634","9.189893","-1.198682","1.569531","-0.38999","0.017944","-0.094507","0.00957","-0.039478","-0.398364"
"E","1617445469.8225443","7","63","45","44","42","26","0.753784","-0.18866","-0.615967","-0.129883","0","-0.007634","-0.007634","9.1875","-1.205859","1.574316","-0.392383","0.013159","-0.092114","0.004785","-0.043066","-0.400757"
"E","1617445469.812386","7","65","45","52","44","27","0.753845","-0.188599","-0.615906","-0.129944","-0.015267","-0.015267","-0.007634","9.170752","-1.193897","1.579102","-0.409131","0.023926","-0.088525","0.002393","-0.0323","-0.417505"
"E","1617445469.802234","7","60","43","42","43","26","0.753967","-0.188416","-0.615784","-0.129822","-0.022901","-0.015267","0","9.139648","-1.149634","1.581494","-0.439038","0.066992","-0.089722","0.015552","0.003589","-0.452197"
"E","1617445469.792538","7","61","44","44","42","27","0.754211","-0.188049","-0.615662","-0.1297","-0.030534","-0.022901","0","9.112134","-1.105371","1.574316","-0.466553","0.108862","-0.102881","0.039478","0.034692","-0.48689"
"E","1617445469.78219","7","60","44","44","42","26","0.754395","-0.187805","-0.615479","-0.129517","-0.015267","-0.015267","0","9.098974","-1.09939","1.557568","-0.477319","0.114844","-0.12561","0.059814","0.029907","-0.501245"
"E","1617445469.772221","7","61","45","42","39","16","0.754517","-0.187683","-0.615417","-0.129456","0","-0.007634","0","9.128881","-1.14126","1.545605","-0.447412","0.071777","-0.139966","0.059814","-0.013159","-0.470142"
"E","1617445469.7622569","7","61","45","42","46","26","0.754517","-0.187683","-0.615417","-0.129517","0","0","0","9.173144","-1.189111","1.543213","-0.404346","0.023926","-0.142358","0.050244","-0.055029","-0.42229"
"E","1617445469.7523658","7","61","43","41","44","26","0.754456","-0.187683","-0.615417","-0.129639","0","0","0","9.212622","-1.219019","1.552783","-0.363672","-0.007178","-0.132788","0.037085","-0.077759","-0.376831"
"E","1617445469.7424188","7","61","44","42","44","26","0.754395","-0.187683","-0.615479","-0.1297","0","0","0","9.23894","-1.216626","1.586279","-0.33855","-0.005981","-0.098096","0.011963","-0.059814","-0.346924"
"E","1617445469.7324853","7","59","43","41","41","26","0.754395","-0.187622","-0.61554","-0.129761","-0.007634","-0.007634","0","9.226977","-1.219019","1.59585","-0.350513","-0.00957","-0.087329","0","-0.058618","-0.355298"
"E","1617445469.7222514","7","64","45","38","42","26","0.754456","-0.187561","-0.615417","-0.129822","-0.007634","-0.015267","-0.007634","9.200659","-1.21543","1.597046","-0.376831","-0.007178","-0.089722","-0.002393","-0.058618","-0.382812"
"E","1617445469.7122865","7","60","45","39","41","26","0.754639","-0.187378","-0.615295","-0.129822","-0.015267","-0.022901","0","9.1875","-1.181934","1.610205","-0.38999","0.023926","-0.081348","0","-0.027515","-0.397168"
"E","1617445469.7022295","7","64","44","40","42","27","0.754822","-0.187134","-0.615112","-0.129761","-0.022901","-0.022901","0","9.174341","-1.128101","1.618579","-0.400757","0.075366","-0.077759","0.015552","0.019141","-0.413916"
"E","1617445469.6924472","7","61","44","42","46","27","0.755066","-0.186829","-0.614929","-0.1297","-0.022901","-0.015267","0","9.16836","-1.082642","1.644897","-0.406738","0.118433","-0.058618","0.015552","0.065796","-0.421094"
"E","1617445469.6822057","7","60","44","43","43","26","0.755249","-0.186584","-0.614807","-0.129578","-0.015267","-0.015267","0","9.198267","-1.069482","1.677197","-0.375635","0.130396","-0.031104","0.003589","0.089722","-0.387598"
"E","1617445469.6724496","7","57","46","44","41","27","0.755371","-0.186401","-0.614746","-0.129517","-0.015267","-0.015267","0","9.211426","-1.081445","1.707104","-0.362476","0.117236","-0.004785","-0.021533","0.089722","-0.368457"
"E","1617445469.6622727","7","59","44","42","43","25","0.755493","-0.18634","-0.614624","-0.129517","0","-0.007634","0","9.21023","-1.125708","1.726245","-0.363672","0.072974","0.00957","-0.053833","0.057422","-0.362476"
"E","1617445469.652301","7","63","44","43","42","26","0.755493","-0.186401","-0.614563","-0.129517","0.007634","-0.007634","-0.007634","9.220996","-1.193897","1.748975","-0.351709","0.005981","0.0323","-0.099292","0.007178","-0.33855"
"E","1617445469.6423938","7","63","46","42","42","27","0.755493","-0.186646","-0.614502","-0.129578","0.015267","-0.007634","-0.007634","9.23894","-1.262085","1.758545","-0.333765","-0.058618","0.04187","-0.131592","-0.044263","-0.311035"
"E","1617445469.6325943","7","60","46","43","36","26","0.755432","-0.186829","-0.614502","-0.1297","0.007634","-0.007634","-0.007634","9.235352","-1.296777","1.76333","-0.337354","-0.092114","0.047852","-0.151929","-0.071777","-0.309839"
"E","1617445469.6225345","7","60","46","41","40","26","0.755371","-0.186951","-0.614502","-0.129761","0","-0.007634","-0.007634","9.215014","-1.2896","1.750171","-0.35769","-0.08374","0.035889","-0.142358","-0.070581","-0.332568"
"E","1617445469.612434","7","61","44","38","40","26","0.755371","-0.18689","-0.614563","-0.129822","-0.007634","-0.007634","0","9.182714","-1.223804","1.726245","-0.391187","-0.020337","0.011963","-0.101685","-0.025122","-0.376831"
"E","1617445469.6022823","7","61","44","40","43","26","0.75531","-0.186768","-0.614624","-0.129822","-0.015267","-0.007634","0","9.156397","-1.140064","1.684375","-0.417505","0.059814","-0.027515","-0.038281","0.026318","-0.419897"
"E","1617445469.592163","7","64","43","42","42","27","0.75531","-0.186523","-0.614746","-0.129822","-0.015267","0","0.007634","9.134863","-1.086231","1.628149","-0.440234","0.110059","-0.082544","0.026318","0.046655","-0.456982"
"E","1617445469.5821824","7","61","43","42","41","25","0.755188","-0.18634","-0.614868","-0.129883","-0.007634","0.015267","0.007634","9.154004","-1.056323","1.59585","-0.421094","0.136377","-0.112451","0.068188","0.058618","-0.447412"
"E","1617445469.5806704","7","60","44","42","41","26","0.754944","-0.18634","-0.615173","-0.129944","0.007634","0.030534","0.007634","9.217407","-1.073071","1.581494","-0.358887","0.117236","-0.119629","0.078955","0.039478","-0.385205"
"E","1617445469.5795054","7","60","41","44","42","26","0.754578","-0.186523","-0.615601","-0.130127","0.022901","0.030534","0.007634","9.26167","-1.125708","1.564746","-0.318213","0.062207","-0.12561","0.070581","-0.00957","-0.339746"
"E","1617445469.552359","7","57","46","42","42","26","0.75415","-0.186829","-0.615967","-0.130371","0.022901","0.022901","0","9.250903","-1.154419","1.542017","-0.330176","0.0323","-0.137573","0.065796","-0.04187","-0.349316"
"E","1617445469.5423212","7","61","43","48","42","26","0.753784","-0.187134","-0.616272","-0.130493","0.015267","0.022901","0","9.230566","-1.163989","1.516895","-0.352905","0.023926","-0.151929","0.070581","-0.057422","-0.373242"
"E","1617445469.5322158","7","63","43","45","42","27","0.753479","-0.187439","-0.616516","-0.130676","0.015267","0.022901","-0.007634","9.224585","-1.179541","1.509717","-0.360083","0.008374","-0.151929","0.062207","-0.071777","-0.378027"
"E","1617445469.5222435","7","60","44","45","44","26","0.753235","-0.187683","-0.616699","-0.130737","0","0.015267","-0.007634","9.217407","-1.172363","1.512109","-0.367261","0.017944","-0.142358","0.057422","-0.059814","-0.385205"
"E","1617445469.512344","7","59","43","41","43","26","0.753113","-0.187683","-0.616821","-0.130676","-0.007634","0","-0.007634","9.189893","-1.14126","1.509717","-0.394775","0.049048","-0.141162","0.063403","-0.0323","-0.415112"
"E","1617445469.5024822","7","61","45","42","42","28","0.753174","-0.187561","-0.616882","-0.130615","-0.015267","-0.007634","0","9.158789","-1.104175","1.502539","-0.427075","0.084937","-0.149536","0.080151","-0.004785","-0.452197"
"E","1617445469.492309","7","63","43","38","42","26","0.753235","-0.187439","-0.616821","-0.130554","-0.015267","-0.007634","0","9.142041","-1.085034","1.495361","-0.443823","0.102881","-0.15791","0.090918","0.005981","-0.472534"
"E","1617445469.4826531","7","54","46","42","43","27","0.753357","-0.187317","-0.61676","-0.130432","-0.007634","-0.007634","0","9.144434","-1.101782","1.481006","-0.440234","0.087329","-0.175854","0.101685","-0.014355","-0.470142"
"E","1617445469.4724846","7","61","46","45","44","26","0.753418","-0.187378","-0.616699","-0.130432","0.007634","-0.007634","-0.007634","9.154004","-1.154419","1.454687","-0.430664","0.035889","-0.203369","0.105273","-0.071777","-0.459375"
"E","1617445469.462492","7","61","44","42","42","26","0.753357","-0.1875","-0.616638","-0.130554","0.015267","0","-0.007634","9.186304","-1.209448","1.465454","-0.398364","-0.017944","-0.192603","0.078955","-0.114844","-0.419897"
"E","1617445469.4524536","7","61","42","40","43","26","0.753357","-0.187683","-0.616577","-0.130676","0.007634","0.007634","-0.007634","9.223389","-1.229785","1.48938","-0.361279","-0.037085","-0.168677","0.057422","-0.119629","-0.376831"
"E","1617445469.4424531","7","61","43","41","41","26","0.753235","-0.187805","-0.616638","-0.130798","0","0","0","9.241333","-1.220215","1.536035","-0.343335","-0.027515","-0.119629","0.022729","-0.088525","-0.351709"
"E","1617445469.4323735","7","63","44","44","44","26","0.753235","-0.187744","-0.616638","-0.130859","-0.007634","-0.007634","0","9.241333","-1.184326","1.570728","-0.343335","0.004785","-0.084937","0.005981","-0.044263","-0.350513"
"E","1617445469.422462","7","61","45","42","43","26","0.753296","-0.187561","-0.616638","-0.130859","-0.022901","-0.007634","0","9.22937","-1.125708","1.611401","-0.355298","0.061011","-0.045459","-0.005981","0.021533","-0.362476"
"E","1617445469.412547","7","59","44","43","42","27","0.753418","-0.187256","-0.616577","-0.130798","-0.022901","-0.015267","0","9.205444","-1.069482","1.630542","-0.379224","0.114844","-0.029907","-0.002393","0.076563","-0.388794"
"E","1617445469.4023466","7","60","45","42","42","24","0.75354","-0.187012","-0.616516","-0.130737","-0.007634","-0.015267","0","9.1875","-1.063501","1.622168","-0.397168","0.118433","-0.04187","0.004785","0.07417","-0.409131"
"E","1617445469.3925643","7","60","46","42","42","26","0.753601","-0.186951","-0.616516","-0.130798","0","-0.007634","0","9.201856","-1.095801","1.593457","-0.382812","0.084937","-0.071777","0.020337","0.031104","-0.395972"
"E","1617445469.3823895","7","59","41","41","41","26","0.75354","-0.187012","-0.616516","-0.13092","0.007634","0","0","9.23894","-1.130493","1.559961","-0.345728","0.049048","-0.104077","0.040674","-0.013159","-0.361279"
"E","1617445469.372588","7","63","44","41","42","27","0.753479","-0.187073","-0.616516","-0.131104","0.007634","0","0","9.258081","-1.148438","1.539624","-0.326587","0.029907","-0.124414","0.055029","-0.038281","-0.343335"
"E","1617445469.3626146","7","59","43","40","41","26","0.753418","-0.187134","-0.616577","-0.131226","0","0","0","9.255689","-1.137671","1.533643","-0.330176","0.039478","-0.128003","0.061011","-0.0323","-0.349316"
"E","1617445469.3526368","7","56","43","43","42","26","0.753357","-0.187134","-0.616577","-0.131287","-0.007634","0","0","9.276026","-1.123315","1.56355","-0.308643","0.052637","-0.098096","0.045459","-0.005981","-0.324194"
"E","1617445469.3430386","7","64","45","42","40","26","0.753357","-0.187134","-0.616638","-0.131287","-0.007634","-0.007634","0","9.27124","-1.114941","1.583887","-0.314624","0.061011","-0.076563","0.028711","0.00957","-0.327783"
"E","1617445469.3330998","7","54","43","41","44","26","0.753418","-0.186951","-0.616577","-0.131226","-0.015267","-0.015267","0","9.22937","-1.093408","1.594653","-0.355298","0.081348","-0.068188","0.021533","0.029907","-0.368457"
"E","1617445469.3231766","7","61","43","42","40","29","0.75354","-0.186768","-0.616516","-0.131165","-0.022901","-0.015267","0","9.19707","-1.075464","1.603027","-0.387598","0.096899","-0.063403","0.016748","0.045459","-0.400757"
"E","1617445469.3131344","7","63","44","40","53","10","0.753662","-0.186584","-0.616455","-0.131042","-0.015267","-0.007634","0","9.192286","-1.068286","1.616186","-0.392383","0.104077","-0.052637","0.00957","0.056226","-0.404346"
"E","1617445469.303239","7","61","45","44","43","28","0.753784","-0.186462","-0.616394","-0.130859","-0.007634","-0.007634","-0.007634","9.189893","-1.100586","1.612598","-0.394775","0.072974","-0.058618","0.001196","0.026318","-0.404346"
"E","1617445469.2924275","7","61","44","42","43","27","0.753784","-0.186523","-0.616333","-0.130798","0","0","-0.007634","9.215014","-1.154419","1.609009","-0.368457","0.020337","-0.062207","-0.011963","-0.020337","-0.373242"
"E","1617445469.2832882","7","61","45","42","40","26","0.753784","-0.186646","-0.616333","-0.130859","0.007634","0","-0.007634","9.242529","-1.193897","1.594653","-0.340942","-0.016748","-0.076563","-0.00957","-0.059814","-0.343335"
"E","1617445469.2731297","7","61","43","43","41","26","0.753723","-0.18689","-0.616333","-0.13092","0.007634","0","-0.007634","9.250903","-1.21543","1.587476","-0.332568","-0.035889","-0.082544","-0.010767","-0.078955","-0.334961"
"E","1617445469.2632391","7","64","45","44","41","27","0.753662","-0.187012","-0.616272","-0.131042","0","-0.007634","-0.007634","9.237744","-1.197485","1.583887","-0.345728","-0.016748","-0.086133","-0.002393","-0.063403","-0.350513"
"E","1617445469.2524755","7","61","41","41","43","26","0.753723","-0.187073","-0.616272","-0.131104","-0.007634","-0.007634","-0.007634","9.215014","-1.147241","1.593457","-0.369653","0.0323","-0.076563","0.004785","-0.016748","-0.378027"
"E","1617445469.2424972","7","61","44","43","40","26","0.753784","-0.186951","-0.616211","-0.131104","-0.015267","-0.007634","0","9.199463","-1.092212","1.604224","-0.384009","0.086133","-0.068188","0.016748","0.033496","-0.397168"
"E","1617445469.2325857","7","59","45","43","42","27","0.753845","-0.186768","-0.616211","-0.131104","-0.015267","-0.007634","0","9.185107","-1.037183","1.630542","-0.398364","0.13877","-0.043066","0.014355","0.092114","-0.41272"
"E","1617445469.2233288","7","60","44","44","44","26","0.753906","-0.186523","-0.61615","-0.131042","-0.015267","-0.007634","0.007634","9.174341","-1.010864","1.644897","-0.409131","0.162695","-0.031104","0.011963","0.118433","-0.424683"
"E","1617445469.2126317","7","60","45","44","40","27","0.753967","-0.186401","-0.61615","-0.131042","-0.007634","-0.007634","0","9.183911","-1.022827","1.666431","-0.399561","0.14834","-0.010767","-0.00957","0.114844","-0.410327"
"E","1617445469.202432","7","57","44","43","44","26","0.753906","-0.186462","-0.61615","-0.131042","0.007634","0","0","9.204248","-1.069482","1.659253","-0.379224","0.102881","-0.016748","-0.019141","0.071777","-0.385205"
"E","1617445469.1930742","7","64","44","41","41","26","0.753784","-0.186707","-0.616211","-0.131165","0.015267","0","-0.007634","9.223389","-1.131689","1.634131","-0.360083","0.04187","-0.039478","-0.021533","0.007178","-0.363672"
"E","1617445469.1829948","7","60","43","44","14","1","0.753662","-0.187012","-0.616272","-0.131287","0.015267","0.007634","-0.007634","9.2521","-1.171167","1.603027","-0.331372","0.004785","-0.066992","-0.007178","-0.035889","-0.334961"
"E","1617445469.1734436","7","61","45","42","43","26","0.75354","-0.187195","-0.616333","-0.131409","0.007634","0","-0.007634","9.260473","-1.163989","1.585083","-0.324194","0.013159","-0.082544","0.010767","-0.034692","-0.332568"
"E","1617445469.1632717","7","63","43","41","44","26","0.753479","-0.187317","-0.616333","-0.131531","-0.007634","-0.007634","-0.007634","9.228174","-1.131689","1.564746","-0.356494","0.045459","-0.101685","0.034692","-0.015552","-0.37085"
"E","1617445469.153349","7","61","44","44","43","26","0.753601","-0.187134","-0.616333","-0.13147","-0.022901","-0.007634","0","9.200659","-1.077856","1.564746","-0.384009","0.096899","-0.104077","0.053833","0.027515","-0.404346"
"E","1617445469.1432517","7","64","44","45","41","26","0.753723","-0.186829","-0.616272","-0.131226","-0.030534","-0.015267","0","9.176733","-1.015649","1.575513","-0.407935","0.159106","-0.095703","0.068188","0.086133","-0.434253"
"E","1617445469.133335","7","63","42","41","42","26","0.753906","-0.186462","-0.616211","-0.13092","-0.030534","-0.007634","-0.007634","9.14563","-0.995313","1.562353","-0.437842","0.178247","-0.113647","0.084937","0.094507","-0.468945"
"E","1617445469.123124","7","59","44","41","41","-10","0.754028","-0.18634","-0.61615","-0.130615","-0.007634","0","-0.007634","9.16836","-1.043164","1.546802","-0.413916","0.132788","-0.130396","0.084937","0.047852","-0.442627"
"E","1617445469.1133144","7","61","45","41","41","26","0.753967","-0.186584","-0.616211","-0.130432","0.015267","0.007634","-0.015267","9.232959","-1.169971","1.519287","-0.349316","0.011963","-0.155518","0.069385","-0.069385","-0.368457"
"E","1617445469.1033146","7","57","47","43","42","27","0.753784","-0.187134","-0.616272","-0.130493","0.038168","0.015267","-0.015267","9.284399","-1.320703","1.481006","-0.299072","-0.131592","-0.187817","0.046655","-0.210547","-0.307446"
"E","1617445469.0932894","7","59","43","41","43","26","0.75354","-0.187744","-0.616333","-0.130737","0.030534","0.015267","-0.015267","9.302343","-1.412817","1.443921","-0.281128","-0.218921","-0.220117","0.04187","-0.302661","-0.284717"
"E","1617445469.0832725","7","63","42","41","45","26","0.753296","-0.188171","-0.616394","-0.130981","0.015267","0.007634","-0.015267","9.320288","-1.404443","1.454687","-0.263184","-0.208154","-0.203369","0.034692","-0.284717","-0.265576"
"E","1617445469.0732222","7","60","43","42","41","26","0.753296","-0.188232","-0.616455","-0.131104","-0.015267","-0.007634","-0.007634","9.292773","-1.31831","1.482202","-0.291895","-0.122021","-0.175854","0.04187","-0.197388","-0.300269"
"E","1617445469.0631502","7","60","45","40","42","26","0.753479","-0.187866","-0.616333","-0.131104","-0.038168","-0.022901","0","9.242529","-1.193897","1.536035","-0.342139","-0.002393","-0.126807","0.039478","-0.069385","-0.355298"
"E","1617445469.0532005","7","63","44","43","43","26","0.753784","-0.187317","-0.61615","-0.13092","-0.038168","-0.022901","0","9.179126","-1.06709","1.607813","-0.404346","0.118433","-0.063403","0.022729","0.063403","-0.419897"
"E","1617445469.0434103","7","59","44","44","25","27","0.754089","-0.186829","-0.615906","-0.130615","-0.030534","-0.022901","0","9.125293","-1.016846","1.635327","-0.455786","0.16748","-0.044263","0.015552","0.114844","-0.472534"
"E","1617445469.0332026","7","61","44","44","41","26","0.754395","-0.186646","-0.615723","-0.130371","-0.007634","-0.015267","0","9.130078","-1.052734","1.659253","-0.451001","0.132788","-0.027515","-0.011963","0.090918","-0.460571"
"E","1617445469.0232089","7","60","45","42","43","26","0.754395","-0.186707","-0.615662","-0.130371","0.007634","0","0","9.185107","-1.129297","1.674805","-0.394775","0.057422","-0.011963","-0.046655","0.0323","-0.394775"
"E","1617445469.0133138","7","63","44","41","42","26","0.754272","-0.186951","-0.615723","-0.130432","0.022901","0.007634","-0.007634","9.237744","-1.217822","1.674805","-0.342139","-0.027515","-0.008374","-0.075366","-0.039478","-0.332568"
"E","1617445469.0032346","7","60","45","42","42","26","0.754089","-0.187317","-0.615845","-0.130676","0.022901","0.007634","-0.007634","9.242529","-1.271655","1.646094","-0.33855","-0.080151","-0.0323","-0.075366","-0.096899","-0.326587"
"E","1617445468.9933174","7","61","44","43","45","26","0.753906","-0.187561","-0.615906","-0.13092","0.007634","0","-0.007634","9.22937","-1.256104","1.609009","-0.351709","-0.0646","-0.065796","-0.04187","-0.098096","-0.346924"
"E","1617445468.983183","7","59","45","38","41","25","0.753845","-0.187561","-0.615906","-0.131042","-0.015267","-0.007634","0","9.19707","-1.189111","1.581494","-0.384009","0","-0.093311","0.002393","-0.053833","-0.391187"
"E","1617445468.9734309","7","63","44","44","40","0","0.753906","-0.187256","-0.615967","-0.13092","-0.038168","-0.007634","0","9.161181","-1.089819","1.564746","-0.421094","0.095703","-0.111255","0.05144","0.021533","-0.441431"
"E","1617445468.9631815","7","63","45","43","42","26","0.754089","-0.186768","-0.615906","-0.130676","-0.038168","-0.015267","0","9.131274","-1.013257","1.546802","-0.449805","0.168677","-0.132788","0.095703","0.076563","-0.482104"
"E","1617445468.953422","7","69","44","44","42","26","0.754272","-0.186462","-0.615845","-0.130371","-0.022901","-0.007634","0","9.116919","-1.021631","1.524072","-0.462964","0.160303","-0.160303","0.112451","0.057422","-0.498853"
"E","1617445468.9431987","7","61","44","42","41","27","0.754333","-0.186462","-0.615845","-0.130127","0","0.007634","-0.007634","9.162378","-1.116138","1.513306","-0.417505","0.069385","-0.171069","0.093311","-0.026318","-0.44502"
"E","1617445468.9332695","7","61","45","41","42","26","0.754272","-0.186707","-0.615906","-0.130127","0.022901","0.015267","-0.007634","9.217407","-1.228589","1.515698","-0.363672","-0.038281","-0.166284","0.053833","-0.119629","-0.379224"
"E","1617445468.9232962","7","63","43","42","43","26","0.754028","-0.187195","-0.615967","-0.130188","0.030534","0.015267","-0.015267","9.268847","-1.337451","1.526465","-0.311035","-0.142358","-0.149536","0.005981","-0.203369","-0.312231"
"E","1617445468.913262","7","59","47","44","41","26","0.753784","-0.187622","-0.616089","-0.130432","0.022901","0.007634","-0.007634","9.287989","-1.390088","1.547998","-0.293091","-0.192603","-0.122021","-0.034692","-0.235669","-0.283521"
"E","1617445468.9033284","7","63","44","41","38","26","0.753723","-0.187866","-0.616089","-0.130676","0.007634","-0.007634","-0.007634","9.264063","-1.360181","1.565942","-0.318213","-0.162695","-0.102881","-0.044263","-0.202173","-0.308643"
"E","1617445468.8933191","7","60","44","41","45","28","0.753784","-0.187805","-0.615967","-0.130859","-0.015267","-0.022901","-0.007634","9.21023","-1.251318","1.594653","-0.37085","-0.056226","-0.076563","-0.033496","-0.096899","-0.368457"
"E","1617445468.883369","7","63","44","41","43","28","0.754028","-0.187378","-0.615784","-0.130798","-0.038168","-0.030534","0","9.146826","-1.117334","1.628149","-0.433057","0.072974","-0.050244","-0.014355","0.027515","-0.440234"
"E","1617445468.8733125","7","61","45","42","42","26","0.754395","-0.186768","-0.615601","-0.130676","-0.045802","-0.030534","0.007634","9.097778","-0.971387","1.676001","-0.482104","0.212939","-0.011963","0.001196","0.168677","-0.498853"
"E","1617445468.8633003","7","61","44","42","43","28","0.754761","-0.186218","-0.615356","-0.130432","-0.038168","-0.022901","0.007634","9.070264","-0.897217","1.72146","-0.508423","0.283521","0.022729","-0.004785","0.247632","-0.526367"
"E","1617445468.8532186","7","64","45","43","46","27","0.755005","-0.185913","-0.615234","-0.130249","-0.015267","-0.015267","0.007634","9.088208","-0.936694","1.750171","-0.490479","0.242847","0.045459","-0.038281","0.221313","-0.500049"
"E","1617445468.8432205","7","60","47","45","43","26","0.755005","-0.185852","-0.615234","-0.130249","0.007634","0","0.007634","9.146826","-1.033594","1.780078","-0.43186","0.145947","0.075366","-0.094507","0.149536","-0.425879"
"E","1617445468.8332777","7","63","44","42","42","28","0.754822","-0.186035","-0.615295","-0.130432","0.015267","0.007634","0","9.167163","-1.114941","1.783667","-0.410327","0.063403","0.082544","-0.130396","0.078955","-0.393579"
"E","1617445468.823137","7","65","46","44","42","26","0.754578","-0.186279","-0.615479","-0.130615","0.015267","0.015267","0","9.205444","-1.162793","1.776489","-0.373242","0.015552","0.081348","-0.142358","0.037085","-0.351709"
"E","1617445468.8132472","7","61","45","42","40","27","0.754272","-0.186523","-0.615723","-0.130859","0.007634","0.015267","0","9.236547","-1.17356","1.74419","-0.344531","0.003589","0.056226","-0.118433","0.016748","-0.326587"
"E","1617445468.8034024","7","61","45","47","41","26","0.754028","-0.186523","-0.616028","-0.130981","-0.007634","0.007634","0.007634","9.237744","-1.131689","1.686768","-0.344531","0.043066","0.005981","-0.057422","0.029907","-0.340942"
"E","1617445468.7932494","7","59","41","40","42","26","0.753845","-0.186401","-0.616272","-0.131104","-0.015267","0.007634","0.007634","9.240137","-1.077856","1.630542","-0.343335","0.092114","-0.044263","0.007178","0.05144","-0.354102"
"E","1617445468.7833126","7","59","44","38","39","26","0.753662","-0.186218","-0.616577","-0.131042","-0.015267","0.007634","0.007634","9.241333","-1.031201","1.561157","-0.344531","0.135181","-0.107666","0.081348","0.062207","-0.37085"
"E","1617445468.7733817","7","60","43","41","41","26","0.75354","-0.186035","-0.616821","-0.130981","-0.007634","0.007634","0","9.22937","-1.020435","1.495361","-0.35769","0.143555","-0.168677","0.136377","0.04187","-0.394775"
"E","1617445468.7633567","7","61","45","41","40","26","0.753418","-0.186035","-0.616943","-0.13092","0","0.015267","0","9.226977","-1.065894","1.433154","-0.360083","0.098096","-0.227295","0.16748","-0.023926","-0.401953"
"E","1617445468.7532554","7","61","42","44","40","26","0.753296","-0.186096","-0.617126","-0.13092","0","0.015267","-0.007634","9.247314","-1.091016","1.434351","-0.340942","0.072974","-0.22251","0.156714","-0.043066","-0.379224"
"E","1617445468.7432072","7","60","44","42","40","26","0.753113","-0.186218","-0.617249","-0.130859","0.007634","0.015267","-0.007634","9.276026","-1.124512","1.454687","-0.312231","0.040674","-0.197388","0.126807","-0.061011","-0.343335"
"E","1617445468.733529","7","60","44","44","41","26","0.752991","-0.186401","-0.617371","-0.130798","0.007634","0.015267","-0.015267","9.279614","-1.179541","1.482202","-0.308643","-0.010767","-0.165088","0.077759","-0.092114","-0.327783"
"E","1617445468.7233026","7","61","45","44","44","26","0.752808","-0.186707","-0.617493","-0.130798","0.007634","0.007634","-0.015267","9.278418","-1.222607","1.495361","-0.311035","-0.050244","-0.147144","0.044263","-0.119629","-0.322998"
"E","1617445468.7134657","7","62","42","44","38","26","0.752686","-0.187012","-0.617615","-0.130798","0.007634","0","-0.015267","9.273633","-1.241748","1.506128","-0.317017","-0.065796","-0.131592","0.022729","-0.128003","-0.324194"
"E","1617445468.7033217","7","63","46","42","43","28","0.752625","-0.187134","-0.617615","-0.130798","0","-0.007634","-0.007634","9.258081","-1.229785","1.507324","-0.331372","-0.052637","-0.129199","0.023926","-0.114844","-0.33855"
"E","1617445468.69361","7","59","44","42","43","26","0.752625","-0.187256","-0.617554","-0.130859","0","-0.007634","-0.007634","9.226977","-1.208252","1.503735","-0.362476","-0.028711","-0.133984","0.031104","-0.096899","-0.373242"
"E","1617445468.6833816","7","61","45","44","42","26","0.752686","-0.187256","-0.617432","-0.13092","0","-0.007634","-0.007634","9.194677","-1.184326","1.483398","-0.393579","-0.005981","-0.156714","0.055029","-0.087329","-0.410327"
"E","1617445468.6735458","7","61","43","42","40","26","0.752808","-0.187195","-0.617371","-0.130981","-0.007634","-0.007634","0","9.192286","-1.153223","1.484595","-0.397168","0.022729","-0.15791","0.066992","-0.062207","-0.417505"
"E","1617445468.6632438","7","61","43","44","44","29","0.752869","-0.187134","-0.61731","-0.130981","-0.007634","0","0","9.2198","-1.126904","1.509717","-0.369653","0.049048","-0.135181","0.0646","-0.027515","-0.38999"
"E","1617445468.6532853","7","60","47","42","41","26","0.752869","-0.187012","-0.61731","-0.130981","-0.015267","0","0","9.234156","-1.085034","1.544409","-0.354102","0.089722","-0.100488","0.053833","0.022729","-0.373242"
"E","1617445468.6434565","7","59","43","42","44","27","0.75293","-0.18689","-0.61731","-0.13092","-0.007634","0","0","9.237744","-1.06709","1.586279","-0.351709","0.10647","-0.059814","0.026318","0.056226","-0.366064"
"E","1617445468.6333745","7","59","45","42","42","26","0.75293","-0.18689","-0.61731","-0.130798","0","0","-0.007634","9.230566","-1.085034","1.597046","-0.35769","0.089722","-0.049048","0.008374","0.045459","-0.368457"
"E","1617445468.6233678","7","61","44","42","41","26","0.752869","-0.186951","-0.61731","-0.130798","0","-0.007634","-0.007634","9.226977","-1.10896","1.603027","-0.361279","0.066992","-0.04187","-0.007178","0.028711","-0.368457"
"E","1617445468.6136148","7","59","44","42","41","27","0.752869","-0.187073","-0.61731","-0.130859","0","-0.007634","-0.007634","9.225781","-1.11853","1.579102","-0.362476","0.058618","-0.065796","0.008374","0.010767","-0.372046"
"E","1617445468.6034536","7","61","45","42","42","26","0.752869","-0.187195","-0.617249","-0.13092","0","-0.007634","-0.007634","9.207837","-1.119727","1.549194","-0.38042","0.058618","-0.095703","0.031104","-0.002393","-0.394775"
"E","1617445468.5934134","7","61","45","42","42","26","0.75293","-0.187256","-0.617188","-0.130981","0","-0.007634","0","9.193481","-1.132886","1.513306","-0.394775","0.045459","-0.132788","0.055029","-0.031104","-0.413916"
"E","1617445468.5834217","7","59","44","40","42","26","0.752991","-0.187195","-0.617065","-0.131042","-0.007634","-0.007634","0","9.189893","-1.128101","1.492969","-0.397168","0.049048","-0.156714","0.077759","-0.038281","-0.419897"
"E","1617445468.574088","7","61","44","44","44","26","0.753052","-0.187134","-0.617065","-0.130981","-0.015267","0","0","9.21023","-1.134082","1.503735","-0.376831","0.043066","-0.145947","0.069385","-0.038281","-0.398364"
"E","1617445468.5633008","7","61","42","40","41","26","0.753052","-0.187012","-0.617126","-0.13092","-0.015267","0","0","9.241333","-1.146045","1.513306","-0.346924","0.029907","-0.136377","0.061011","-0.044263","-0.364868"
"E","1617445467.4850907","7","60","45","43","42","25","0.751404","-0.185913","-0.619751","-0.129456","-0.015267","-0.007634","0","9.258081","-1.035986","1.594653","-0.340942","0.129199","0","-0.011963","0.102881","-0.349316"
"E","1617445467.4750736","7","59","43","44","43","26","0.751404","-0.185669","-0.619812","-0.129395","-0.022901","-0.015267","0","9.183911","-0.994116","1.591064","-0.415112","0.16748","-0.002393","-0.008374","0.133984","-0.425879"
"E","1617445467.4653597","7","59","44","41","43","26","0.751526","-0.185486","-0.619751","-0.129272","-0.015267","-0.015267","-0.007634","9.120508","-0.939087","1.574316","-0.477319","0.22251","-0.022729","0.019141","0.172266","-0.49646"
"E","1617445467.4551167","7","61","46","41","43","27","0.751648","-0.185425","-0.61969","-0.129089","-0.007634","-0.007634","-0.007634","9.089404","-0.940283","1.546802","-0.508423","0.22251","-0.052637","0.039478","0.15791","-0.532349"
"E","1617445467.4451444","7","60","44","38","44","26","0.751648","-0.185669","-0.619568","-0.128967","0.015267","0","-0.015267","9.078638","-1.016846","1.492969","-0.517993","0.151929","-0.10647","0.055029","0.070581","-0.541919"
"E","1617445467.435169","7","59","43","42","42","60","0.751526","-0.186218","-0.619568","-0.128967","0.030534","0.015267","-0.015267","9.118115","-1.132886","1.463062","-0.478516","0.043066","-0.132788","0.039478","-0.037085","-0.495264"
"E","1617445467.425235","7","59","44","42","42","26","0.751282","-0.186707","-0.61969","-0.129089","0.022901","0.015267","-0.015267","9.182714","-1.196289","1.44751","-0.413916","-0.014355","-0.141162","0.035889","-0.089722","-0.425879"
"E","1617445467.4152431","7","61","44","39","38","25","0.751038","-0.187134","-0.619873","-0.12915","0.015267","0.022901","-0.015267","9.226977","-1.229785","1.452295","-0.37085","-0.043066","-0.129199","0.021533","-0.108862","-0.378027"
"E","1617445467.4052513","7","61","44","38","38","26","0.750793","-0.187439","-0.620056","-0.129211","0.007634","0.015267","-0.015267","9.242529","-1.235767","1.46665","-0.356494","-0.046655","-0.108862","0.004785","-0.102881","-0.360083"
"E","1617445467.3952425","7","60","42","40","43","26","0.750671","-0.187622","-0.620178","-0.129211","0","0","-0.007634","9.225781","-1.21543","1.485791","-0.373242","-0.025122","-0.084937","-0.008374","-0.07417","-0.375635"
"E","1617445467.3853586","7","63","43","42","41","26","0.75061","-0.187622","-0.620239","-0.12915","-0.007634","-0.007634","-0.007634","9.167163","-1.165186","1.482202","-0.43186","0.023926","-0.087329","0.001196","-0.033496","-0.439038"
"E","1617445467.3750918","7","61","42","41","43","26","0.750671","-0.1875","-0.620178","-0.129089","-0.007634","-0.007634","-0.007634","9.144434","-1.117334","1.464258","-0.45459","0.071777","-0.10647","0.034692","0","-0.470142"
"E","1617445467.3652892","7","63","44","41","43","26","0.750793","-0.187439","-0.620117","-0.129028","-0.007634","-0.007634","0","9.143237","-1.106567","1.435547","-0.455786","0.082544","-0.13877","0.066992","-0.004785","-0.478516"
"E","1617445467.3553758","7","60","44","44","45","26","0.750793","-0.187439","-0.620056","-0.129089","0","-0.007634","0","9.149219","-1.120923","1.411621","-0.448608","0.068188","-0.162695","0.08374","-0.027515","-0.47373"
"E","1617445467.3452916","7","64","44","42","44","26","0.750793","-0.187561","-0.620056","-0.12915","0.015267","0","0","9.176733","-1.156811","1.402051","-0.42229","0.033496","-0.172266","0.082544","-0.062207","-0.44502"
"E","1617445467.3351953","7","61","51","42","43","25","0.750732","-0.187744","-0.620056","-0.129333","0.022901","0.007634","0","9.209033","-1.217822","1.380518","-0.38999","-0.026318","-0.192603","0.081348","-0.123218","-0.409131"
"E","1617445467.3251257","7","60","42","38","43","24","0.750549","-0.188049","-0.620117","-0.129578","0.022901","0.007634","0","9.253296","-1.265674","1.379321","-0.345728","-0.07417","-0.19021","0.066992","-0.163892","-0.360083"
"E","1617445467.3152316","7","59","44","42","43","26","0.750366","-0.188293","-0.620239","-0.129822","0.015267","0.007634","-0.007634","9.289185","-1.281226","1.385303","-0.311035","-0.089722","-0.179443","0.057422","-0.171069","-0.321802"
"E","1617445467.3051715","7","63","44","42","40","26","0.750244","-0.188477","-0.620239","-0.130005","0.007634","-0.007634","-0.007634","9.284399","-1.256104","1.388892","-0.31582","-0.0646","-0.174658","0.063403","-0.147144","-0.328979"
"E","1617445467.2953837","7","60","44","38","39","26","0.750305","-0.188416","-0.620178","-0.130127","-0.015267","-0.015267","0","9.246119","-1.197485","1.388892","-0.354102","-0.008374","-0.175854","0.081348","-0.098096","-0.373242"
"E","1617445467.285324","7","58","46","41","41","26","0.750549","-0.18811","-0.619934","-0.130188","-0.030534","-0.030534","0","9.211426","-1.111353","1.418799","-0.387598","0.072974","-0.154321","0.089722","-0.016748","-0.41272"
"E","1617445467.2751431","7","53","43","42","43","26","0.750916","-0.187683","-0.619629","-0.130066","-0.030534","-0.030534","0","9.17793","-1.031201","1.453491","-0.419897","0.150732","-0.130396","0.095703","0.061011","-0.449805"
"E","1617445467.2651618","7","61","45","44","52","26","0.751343","-0.187256","-0.619324","-0.130005","-0.022901","-0.030534","0.007634","9.165967","-0.994116","1.506128","-0.430664","0.184229","-0.088525","0.070581","0.110059","-0.458179"
"E","1617445467.2551663","7","60","45","42","41","26","0.751587","-0.187012","-0.61908","-0.129944","-0.007634","-0.022901","0.007634","9.171948","-1.015649","1.54082","-0.423486","0.161499","-0.061011","0.037085","0.101685","-0.443823"
"E","1617445467.2451038","7","61","43","42","41","26","0.751709","-0.187012","-0.618896","-0.130066","0.007634","-0.007634","0","9.223389","-1.082642","1.580298","-0.37085","0.094507","-0.026318","-0.00957","0.058618","-0.378027"
"E","1617445467.2354538","7","60","43","42","39","26","0.751709","-0.187195","-0.618835","-0.130249","0.015267","0","0","9.29038","-1.15083","1.617383","-0.305054","0.026318","0.00957","-0.057422","0.016748","-0.300269"
"E","1617445467.2252543","7","61","43","41","79","25","0.751587","-0.187378","-0.618835","-0.130432","0.007634","0","0","9.337036","-1.197485","1.653271","-0.257202","-0.019141","0.046655","-0.100488","-0.004785","-0.24165"
"E","1617445467.215169","7","61","43","40","43","26","0.751526","-0.1875","-0.618896","-0.130554","0","-0.007634","-0.007634","9.315503","-1.201074","1.650879","-0.279932","-0.022729","0.046655","-0.10647","-0.00957","-0.263184"
"E","1617445467.205232","7","60","43","42","42","26","0.751587","-0.1875","-0.618835","-0.130615","-0.015267","-0.015267","-0.007634","9.283203","-1.175952","1.631738","-0.312231","0.001196","0.025122","-0.08374","0","-0.301465"
"E","1617445467.195276","7","60","44","40","43","26","0.751709","-0.187317","-0.618713","-0.130554","-0.022901","-0.015267","-0.007634","9.24851","-1.112549","1.611401","-0.345728","0.063403","0.001196","-0.043066","0.044263","-0.345728"
"E","1617445467.1853254","7","62","43","42","43","26","0.751892","-0.187012","-0.618652","-0.130371","-0.030534","-0.015267","-0.007634","9.223389","-1.063501","1.597046","-0.37085","0.111255","-0.015552","-0.011963","0.078955","-0.378027"
"E","1617445467.1752985","7","59","45","42","38","26","0.752014","-0.186829","-0.618591","-0.130066","-0.015267","-0.007634","-0.007634","9.217407","-1.061108","1.564746","-0.375635","0.114844","-0.050244","0.016748","0.066992","-0.388794"
"E","1617445467.1654625","7","59","42","39","40","26","0.752075","-0.186829","-0.618591","-0.129822","-0.007634","0.007634","-0.007634","9.244922","-1.104175","1.539624","-0.34812","0.075366","-0.075366","0.027515","0.021533","-0.361279"
"E","1617445467.1551993","7","59","42","40","40","26","0.751953","-0.187012","-0.618713","-0.1297","0.007634","0.015267","-0.015267","9.282007","-1.162793","1.528857","-0.311035","0.020337","-0.082544","0.017944","-0.028711","-0.319409"
"E","1617445467.145303","7","60","45","40","42","27","0.75177","-0.187195","-0.618896","-0.129578","0.007634","0.015267","-0.007634","9.305933","-1.201074","1.522876","-0.288306","-0.014355","-0.082544","0.008374","-0.059814","-0.293091"
"E","1617445467.1353903","7","59","49","39","43","27","0.751587","-0.187439","-0.61908","-0.129578","0","0.015267","-0.007634","9.329859","-1.232178","1.532446","-0.265576","-0.043066","-0.066992","-0.011963","-0.077759","-0.265576"
"E","1617445467.1254098","7","61","44","40","44","28","0.751343","-0.187439","-0.619324","-0.129517","-0.015267","0.015267","-0.007634","9.34541","-1.228589","1.564746","-0.250024","-0.039478","-0.027515","-0.04187","-0.056226","-0.244043"
"E","1617445467.11547","7","58","43","39","42","26","0.751282","-0.187317","-0.619507","-0.129333","-0.022901","0","-0.007634","9.289185","-1.175952","1.579102","-0.307446","0.010767","-0.010767","-0.046655","-0.005981","-0.303857"
"E","1617445467.105308","7","60","45","42","40","26","0.751282","-0.187134","-0.619568","-0.129089","-0.022901","-0.007634","-0.007634","9.195874","-1.140064","1.570728","-0.400757","0.047852","-0.017944","-0.043066","0.019141","-0.400757"
"E","1617445467.0953405","7","59","44","40","39","26","0.751404","-0.187012","-0.619568","-0.128845","-0.015267","-0.007634","-0.007634","9.125293","-1.137671","1.533643","-0.471338","0.05144","-0.057422","-0.020337","0.002393","-0.476123"
"E","1617445467.0851464","7","61","45","41","41","26","0.751465","-0.187012","-0.619507","-0.128723","-0.007634","0","-0.007634","9.110937","-1.147241","1.510913","-0.484497","0.043066","-0.081348","-0.005981","-0.015552","-0.492871"
"E","1617445467.075353","7","61","43","41","42","22","0.751465","-0.187012","-0.619507","-0.128662","0","0","-0.007634","9.100171","-1.158008","1.485791","-0.495264","0.033496","-0.10647","0.008374","-0.034692","-0.50603"
"E","1617445467.065369","7","59","36","41","40","26","0.751343","-0.187134","-0.619568","-0.128601","0","0.007634","-0.007634","9.091797","-1.144849","1.484595","-0.503638","0.049048","-0.104077","0.011963","-0.020337","-0.515601"
"E","1617445467.0553603","7","59","43","44","18","26","0.751221","-0.187195","-0.619751","-0.128601","0","0.015267","0","9.101367","-1.126904","1.485791","-0.495264","0.066992","-0.098096","0.015552","-0.001196","-0.508423"
"E","1617445467.0452652","7","59","43","41","46","27","0.751038","-0.187256","-0.619934","-0.128601","0","0.015267","0","9.125293","-1.129297","1.471436","-0.471338","0.063403","-0.107666","0.027515","-0.008374","-0.485693"
"E","1617445467.0353131","7","59","42","41","41","26","0.750854","-0.187378","-0.620178","-0.128662","0.007634","0.007634","0","9.142041","-1.159204","1.453491","-0.456982","0.033496","-0.119629","0.028711","-0.039478","-0.470142"
"E","1617445467.0253158","7","60","43","44","40","26","0.750671","-0.1875","-0.6203","-0.128784","0.007634","0.007634","-0.007634","9.120508","-1.177148","1.418799","-0.478516","0.015552","-0.150732","0.044263","-0.070581","-0.494067"
"E","1617445467.0153892","7","60","45","41","42","26","0.750549","-0.187744","-0.620361","-0.128784","0.015267","0","-0.007634","9.08462","-1.197485","1.367358","-0.514404","-0.001196","-0.198584","0.072974","-0.108862","-0.534741"
"E","1617445467.005316","7","61","43","42","41","26","0.750488","-0.188049","-0.6203","-0.128906","0.015267","0.007634","-0.007634","9.101367","-1.241748","1.33147","-0.497656","-0.04187","-0.233276","0.089722","-0.160303","-0.519189"
"E","1617445466.9953103","7","60","45","42","41","25","0.750427","-0.188232","-0.620361","-0.12915","0.007634","0.007634","0","9.173144","-1.221411","1.356592","-0.427075","-0.022729","-0.205762","0.087329","-0.128003","-0.447412"
"E","1617445466.9852602","7","63","44","40","41","26","0.750366","-0.188232","-0.620361","-0.129333","0","0","0","9.205444","-1.161597","1.390088","-0.394775","0.033496","-0.172266","0.088525","-0.061011","-0.417505"
"E","1617445466.975448","7","60","48","43","41","26","0.750366","-0.188171","-0.620361","-0.129517","0","-0.007634","0.007634","9.207837","-1.095801","1.434351","-0.393579","0.095703","-0.129199","0.076563","0.011963","-0.417505"
"E","1617445466.9654665","7","61","43","42","41","25","0.750366","-0.18811","-0.6203","-0.129578","0","-0.007634","0.007634","9.21023","-1.073071","1.46665","-0.38999","0.117236","-0.098096","0.059814","0.045459","-0.411523"
"E","1617445466.9553547","7","60","45","42","43","28","0.750366","-0.18811","-0.6203","-0.1297","0.007634","0","0","9.231763","-1.105371","1.486987","-0.368457","0.08374","-0.077759","0.031104","0.025122","-0.382812"
"E","1617445466.9461193","7","59","42","41","47","26","0.750244","-0.188354","-0.6203","-0.129883","0.015267","0","0","9.255689","-1.162793","1.48938","-0.344531","0.027515","-0.072974","0.007178","-0.020337","-0.351709"
"E","1617445466.935322","7","60","44","42","40","26","0.750122","-0.18866","-0.6203","-0.130066","0.015267","0","-0.007634","9.273633","-1.221411","1.475024","-0.326587","-0.028711","-0.084937","-0.001196","-0.075366","-0.328979"
"E","1617445466.9259765","7","59","43","42","42","26","0.750061","-0.188843","-0.6203","-0.130249","0","-0.007634","-0.007634","9.274829","-1.213037","1.469043","-0.325391","-0.020337","-0.089722","0.005981","-0.070581","-0.330176"
"E","1617445466.9155476","7","60","44","41","43","26","0.750061","-0.188782","-0.6203","-0.13031","-0.015267","-0.007634","0","9.250903","-1.154419","1.459473","-0.349316","0.035889","-0.099292","0.033496","-0.025122","-0.361279"
"E","1617445466.905407","7","63","44","41","41","28","0.750183","-0.188477","-0.6203","-0.130249","-0.022901","-0.007634","0","9.23894","-1.088623","1.460669","-0.362476","0.098096","-0.101685","0.059814","0.027515","-0.382812"
"E","1617445466.895436","7","61","44","42","42","27","0.750305","-0.188171","-0.620239","-0.130127","-0.022901","-0.007634","0","9.240137","-1.047949","1.454687","-0.360083","0.136377","-0.110059","0.08374","0.058618","-0.386401"
"E","1617445466.8855045","7","60","44","41","42","27","0.750427","-0.187866","-0.620239","-0.129944","-0.015267","-0.007634","0","9.2521","-1.053931","1.451099","-0.34812","0.129199","-0.117236","0.089722","0.050244","-0.374438"
"E","1617445466.875968","7","61","43","42","42","26","0.750427","-0.187805","-0.620239","-0.129883","0","0","0","9.27124","-1.116138","1.441528","-0.328979","0.066992","-0.126807","0.075366","-0.008374","-0.350513"
"E","1617445466.8660378","7","59","44","44","42","27","0.750427","-0.187805","-0.6203","-0.129944","0.007634","0","0","9.278418","-1.163989","1.442725","-0.322998","0.017944","-0.124414","0.053833","-0.050244","-0.337354"
"E","1617445466.8561733","7","60","43","40","43","26","0.750366","-0.187866","-0.6203","-0.130005","0.007634","0","0","9.279614","-1.193897","1.448706","-0.321802","-0.010767","-0.117236","0.034692","-0.072974","-0.332568"
"E","1617445466.846056","7","60","44","41","40","24","0.750305","-0.187988","-0.6203","-0.130127","0","0","-0.007634","9.29397","-1.214233","1.465454","-0.307446","-0.031104","-0.099292","0.013159","-0.082544","-0.312231"
"E","1617445466.8360198","7","60","44","42","42","26","0.750305","-0.188049","-0.6203","-0.130188","0","-0.007634","-0.007634","9.258081","-1.219019","1.46665","-0.343335","-0.035889","-0.098096","0.003589","-0.088525","-0.346924"
"E","1617445466.8260324","7","59","43","38","40","26","0.750366","-0.187988","-0.620239","-0.130188","-0.007634","-0.015267","-0.007634","9.217407","-1.208252","1.455884","-0.384009","-0.025122","-0.111255","0.010767","-0.086133","-0.38999"
"E","1617445466.8161814","7","60","44","45","42","26","0.750488","-0.187866","-0.620056","-0.130249","-0.015267","-0.015267","0","9.195874","-1.178345","1.46665","-0.404346","0.001196","-0.105273","0.013159","-0.059814","-0.41272"
"E","1617445466.80605","7","60","44","41","40","26","0.750671","-0.187622","-0.619934","-0.130249","-0.022901","-0.015267","0","9.176733","-1.129297","1.483398","-0.42229","0.047852","-0.093311","0.019141","-0.013159","-0.434253"
"E","1617445466.7960403","7","59","43","43","42","26","0.750854","-0.187317","-0.619812","-0.130127","-0.022901","-0.015267","0","9.181519","-1.082642","1.518091","-0.417505","0.092114","-0.063403","0.011963","0.038281","-0.429468"
"E","1617445466.785333","7","60","43","42","41","26","0.750977","-0.187073","-0.619751","-0.130066","-0.007634","-0.007634","0","9.180323","-1.065894","1.545605","-0.418701","0.107666","-0.039478","-0.001196","0.063403","-0.428271"
"E","1617445466.7760053","7","60","43","43","42","25","0.751038","-0.187012","-0.619751","-0.130066","0","0","0","9.1875","-1.095801","1.552783","-0.411523","0.076563","-0.033496","-0.019141","0.038281","-0.417505"
"E","1617445466.7660637","7","61","44","41","42","25","0.750977","-0.187073","-0.619751","-0.130127","0","0","0","9.211426","-1.119727","1.568335","-0.387598","0.052637","-0.016748","-0.038281","0.025122","-0.387598"
"E","1617445466.7561104","7","61","45","40","42","27","0.750916","-0.187134","-0.619873","-0.130127","0","0","-0.007634","9.223389","-1.124512","1.579102","-0.376831","0.047852","-0.003589","-0.050244","0.027515","-0.374438"
"E","1617445466.7461295","7","64","43","42","43","-8","0.750854","-0.187134","-0.619934","-0.130066","-0.007634","-0.007634","-0.007634","9.204248","-1.116138","1.559961","-0.395972","0.057422","-0.020337","-0.034692","0.027515","-0.397168"
"E","1617445466.736165","7","61","43","41","42","26","0.750854","-0.187073","-0.619934","-0.130005","-0.015267","-0.007634","-0.007634","9.188696","-1.102978","1.536035","-0.410327","0.069385","-0.044263","-0.011963","0.027515","-0.416309"
"E","1617445466.7260106","7","62","42","42","41","26","0.750916","-0.186951","-0.619934","-0.129944","-0.015267","-0.007634","-0.007634","9.175537","-1.069482","1.513306","-0.424683","0.102881","-0.068188","0.019141","0.045459","-0.439038"
"E","1617445466.7160263","7","61","44","43","43","28","0.750916","-0.18689","-0.619934","-0.129822","-0.015267","-0.007634","0","9.161181","-1.06709","1.477417","-0.437842","0.105273","-0.104077","0.049048","0.0323","-0.458179"
"E","1617445466.70601","7","59","43","40","42","25","0.750916","-0.186768","-0.619995","-0.129761","-0.015267","0","0","9.167163","-1.074268","1.446314","-0.43186","0.096899","-0.135181","0.07417","0.010767","-0.455786"
"E","1617445466.6965396","7","64","43","44","41","26","0.750916","-0.186707","-0.620056","-0.129639","-0.007634","0.007634","0","9.185107","-1.087427","1.418799","-0.415112","0.084937","-0.161499","0.095703","-0.00957","-0.442627"
"E","1617445466.6860268","7","60","43","42","40","26","0.750793","-0.186584","-0.620239","-0.129578","-0.015267","0.015267","0","9.237744","-1.104175","1.429565","-0.362476","0.065796","-0.147144","0.086133","-0.019141","-0.386401"
"E","1617445466.676032","7","64","43","43","40","26","0.750671","-0.186523","-0.620483","-0.129517","-0.007634","0.022901","0","9.287989","-1.128101","1.440332","-0.314624","0.040674","-0.131592","0.070581","-0.0323","-0.333765"
"E","1617445466.6662178","7","61","45","42","41","26","0.750427","-0.186462","-0.620728","-0.129456","-0.007634","0.015267","0","9.317896","-1.1604","1.458276","-0.284717","0.005981","-0.107666","0.04187","-0.052637","-0.29668"
"E","1617445466.6559546","7","61","45","43","40","27","0.750244","-0.186462","-0.620972","-0.129395","0","0.007634","-0.007634","9.316699","-1.185522","1.464258","-0.287109","-0.017944","-0.095703","0.020337","-0.068188","-0.294287"
"E","1617445466.646254","7","61","46","41","42","26","0.750183","-0.186584","-0.621033","-0.129333","0","0","-0.007634","9.27124","-1.198682","1.44751","-0.332568","-0.028711","-0.110059","0.019141","-0.086133","-0.339746"
"E","1617445466.6362684","7","63","45","41","41","26","0.750183","-0.186707","-0.621033","-0.129333","0","-0.007634","-0.007634","9.230566","-1.1927","1.421191","-0.373242","-0.021533","-0.136377","0.038281","-0.093311","-0.384009"
"E","1617445466.6260498","7","65","46","43","42","26","0.750244","-0.186707","-0.62085","-0.129395","0","-0.015267","-0.007634","9.182714","-1.166382","1.397266","-0.419897","0.003589","-0.162695","0.062207","-0.08374","-0.436646"
"E","1617445466.6160862","7","61","45","44","43","26","0.750427","-0.186646","-0.620728","-0.129456","-0.007634","-0.007634","0","9.143237","-1.122119","1.391284","-0.459375","0.047852","-0.173462","0.082544","-0.050244","-0.483301"
"E","1617445466.606271","7","59","53","41","43","27","0.750549","-0.186523","-0.620605","-0.129456","-0.015267","0","0","9.163574","-1.073071","1.422388","-0.439038","0.095703","-0.145947","0.082544","0.004785","-0.46416"
"E","1617445466.5961008","7","63","44","42","38","26","0.750549","-0.186279","-0.620667","-0.129395","-0.022901","0.007634","0.007634","9.224585","-1.053931","1.465454","-0.378027","0.111255","-0.102881","0.063403","0.039478","-0.399561"
"E","1617445466.586092","7","61","44","46","42","26","0.750488","-0.186035","-0.620789","-0.129333","-0.015267","0.007634","0","9.267652","-1.043164","1.512109","-0.334961","0.119629","-0.055029","0.033496","0.070581","-0.350513"
"E","1617445466.5761883","7","63","47","48","43","26","0.750427","-0.185913","-0.620972","-0.12915","-0.007634","0","0","9.310718","-1.077856","1.56355","-0.293091","0.08374","0","-0.021533","0.063403","-0.29668"
"E","1617445466.5663126","7","61","45","44","42","30","0.750366","-0.186035","-0.621033","-0.129089","0.007634","-0.007634","-0.007634","9.289185","-1.144849","1.571924","-0.314624","0.019141","0.00957","-0.061011","0.00957","-0.308643"
"E","1617445466.556125","7","60","41","58","43","27","0.750366","-0.186218","-0.620911","-0.12915","0.007634","-0.015267","-0.007634","9.236547","-1.214233","1.549194","-0.366064","-0.046655","-0.013159","-0.078955","-0.061011","-0.354102"
"E","1617445466.5462005","7","63","43","40","42","26","0.750427","-0.186401","-0.620789","-0.129272","0","-0.015267","-0.007634","9.203052","-1.227393","1.534839","-0.399561","-0.058618","-0.029907","-0.076563","-0.080151","-0.388794"
"E","1617445466.536137","7","62","43","45","41","26","0.750488","-0.186401","-0.620728","-0.129272","-0.007634","-0.007634","-0.007634","9.185107","-1.199878","1.512109","-0.417505","-0.029907","-0.053833","-0.046655","-0.065796","-0.413916"
"E","1617445466.526199","7","61","42","41","40","26","0.750549","-0.186218","-0.620728","-0.129211","-0.015267","-0.007634","-0.007634","9.176733","-1.149634","1.486987","-0.425879","0.016748","-0.081348","-0.003589","-0.035889","-0.43186"
"E","1617445466.5162437","7","60","74","41","42","26","0.75061","-0.186035","-0.620728","-0.129089","-0.022901","0","0","9.19707","-1.110156","1.470239","-0.405542","0.056226","-0.099292","0.031104","-0.007178","-0.419897"
"E","1617445466.5061307","7","61","43","44","42","25","0.750549","-0.185791","-0.620911","-0.128967","-0.015267","0.015267","0","9.273633","-1.09939","1.471436","-0.328979","0.063403","-0.094507","0.045459","0.002393","-0.344531"
"E","1617445466.4962735","7","64","47","36","41","28","0.750427","-0.185669","-0.621094","-0.128906","-0.007634","0.015267","0","9.332251","-1.110156","1.48938","-0.271558","0.05144","-0.072974","0.0323","0.003589","-0.283521"
"E","1617445466.4861937","7","58","45","45","41","26","0.750305","-0.185608","-0.621277","-0.128845","0","0.007634","0","9.34541","-1.15083","1.490576","-0.259595","0.00957","-0.068188","0.013159","-0.029907","-0.265576"
"E","1617445466.4763114","7","63","44","43","40","26","0.750244","-0.185669","-0.621338","-0.128967","0.007634","0","-0.007634","9.308325","-1.185522","1.478613","-0.29668","-0.025122","-0.078955","0.001196","-0.068188","-0.300269"
"E","1617445466.466153","7","64","45","46","43","26","0.750244","-0.185791","-0.621277","-0.129028","0.007634","-0.007634","-0.007634","9.268847","-1.196289","1.467847","-0.336157","-0.034692","-0.089722","0","-0.082544","-0.33855"
"E","1617445466.456139","7","60","43","40","41","27","0.750244","-0.185913","-0.621216","-0.12915","0","-0.015267","-0.007634","9.224585","-1.197485","1.45708","-0.38042","-0.035889","-0.101685","0","-0.090918","-0.384009"
"E","1617445466.4461944","7","63","46","42","43","26","0.750305","-0.185974","-0.621094","-0.129211","0","-0.007634","-0.007634","9.191089","-1.191504","1.441528","-0.41272","-0.028711","-0.119629","0.011963","-0.093311","-0.419897"
"E","1617445466.4361694","7","55","43","41","42","23","0.750366","-0.185974","-0.621033","-0.129211","-0.007634","-0.007634","-0.007634","9.19707","-1.179541","1.439136","-0.406738","-0.016748","-0.123218","0.021533","-0.08374","-0.415112"
"E","1617445466.4263203","7","61","42","44","42","27","0.750427","-0.185913","-0.620972","-0.129211","-0.007634","0","-0.007634","9.226977","-1.158008","1.451099","-0.376831","0.003589","-0.112451","0.026318","-0.059814","-0.387598"
"E","1617445466.4161594","7","63","43","42","42","25","0.750427","-0.185791","-0.621033","-0.12915","-0.015267","0","0","9.265259","-1.132886","1.475024","-0.33855","0.027515","-0.088525","0.022729","-0.026318","-0.34812"
"E","1617445466.4061491","7","64","44","40","42","27","0.750427","-0.185608","-0.621033","-0.129089","-0.015267","0","0","9.284399","-1.107764","1.512109","-0.319409","0.050244","-0.052637","0.004785","0.00957","-0.326587"
"E","1617445466.3964057","7","61","43","41","39","26","0.750488","-0.185425","-0.621094","-0.129028","-0.015267","-0.007634","0","9.276026","-1.083838","1.536035","-0.327783","0.071777","-0.028711","-0.007178","0.039478","-0.333765"
"E","1617445466.3862913","7","60","45","44","43","28","0.750488","-0.185303","-0.621094","-0.129028","-0.007634","-0.007634","0.007634","9.282007","-1.068286","1.546802","-0.321802","0.086133","-0.017944","-0.00957","0.057422","-0.327783"
"E","1617445466.3762774","7","59","43","40","39","27","0.750488","-0.185242","-0.621155","-0.12915","0","-0.007634","0.007634","9.30354","-1.069482","1.547998","-0.301465","0.082544","-0.016748","-0.008374","0.055029","-0.307446"
"E","1617445466.3662477","7","59","44","44","41","26","0.750427","-0.185242","-0.621155","-0.129333","0.007634","-0.007634","0.007634","9.286792","-1.081445","1.528857","-0.318213","0.068188","-0.035889","-0.001196","0.033496","-0.325391"
"E","1617445466.3563492","7","61","45","41","43","26","0.750427","-0.185303","-0.621094","-0.129517","0.007634","-0.007634","0","9.266455","-1.098193","1.491772","-0.33855","0.050244","-0.07417","0.020337","0","-0.349316"
"E","1617445466.3462408","7","61","45","38","41","26","0.750427","-0.185364","-0.621033","-0.129639","0","-0.007634","-0.007634","9.244922","-1.107764","1.455884","-0.360083","0.039478","-0.110059","0.043066","-0.025122","-0.374438"
"E","1617445466.3363776","7","60","45","42","40","26","0.750488","-0.185425","-0.620911","-0.1297","-0.007634","-0.007634","-0.007634","9.237744","-1.112549","1.436743","-0.366064","0.035889","-0.131592","0.059814","-0.038281","-0.384009"
"E","1617445466.3261387","7","61","43","41","42","26","0.75061","-0.185364","-0.62085","-0.129578","-0.015267","-0.007634","-0.007634","9.265259","-1.095801","1.443921","-0.33855","0.053833","-0.126807","0.068188","-0.019141","-0.35769"
"E","1617445466.316214","7","61","45","42","40","23","0.750732","-0.185181","-0.620789","-0.129395","-0.022901","-0.007634","-0.015267","9.289185","-1.069482","1.481006","-0.314624","0.080151","-0.093311","0.053833","0.019141","-0.332568"
"E","1617445466.3062043","7","59","46","41","42","26","0.750854","-0.185059","-0.620728","-0.129028","-0.015267","-0.007634","-0.015267","9.282007","-1.065894","1.516895","-0.320605","0.087329","-0.058618","0.025122","0.040674","-0.333765"
"E","1617445466.2962902","7","59","42","42","42","26","0.750977","-0.18512","-0.620605","-0.128723","0","-0.007634","-0.015267","9.256885","-1.100586","1.537231","-0.344531","0.057422","-0.040674","-0.007178","0.020337","-0.350513"
"E","1617445466.286379","7","58","44","54","40","26","0.751038","-0.185364","-0.620544","-0.128662","0.015267","-0.007634","-0.015267","9.256885","-1.17356","1.543213","-0.344531","-0.00957","-0.035889","-0.039478","-0.035889","-0.342139"
"E","1617445466.2764466","7","60","43","42","39","25","0.750977","-0.18573","-0.620422","-0.128723","0.022901","0","-0.007634","9.255689","-1.233374","1.54082","-0.344531","-0.0646","-0.037085","-0.062207","-0.086133","-0.334961"
"E","1617445466.2662218","7","59","44","44","41","26","0.750854","-0.186096","-0.620422","-0.129028","0.015267","0","0","9.247314","-1.244141","1.537231","-0.352905","-0.07417","-0.038281","-0.066992","-0.095703","-0.342139"
"E","1617445466.2562697","7","59","45","41","40","26","0.750732","-0.186096","-0.620483","-0.129333","-0.007634","-0.007634","0.007634","9.212622","-1.180737","1.538428","-0.388794","-0.014355","-0.035889","-0.050244","-0.04187","-0.384009"
"E","1617445466.2462249","7","62","42","41","44","26","0.750732","-0.185791","-0.620544","-0.129456","-0.030534","-0.007634","0.015267","9.148023","-1.074268","1.537231","-0.453394","0.084937","-0.037085","-0.019141","0.043066","-0.459375"
"E","1617445466.2363317","7","60","43","41","41","26","0.750793","-0.185303","-0.620667","-0.129395","-0.038168","-0.007634","0.007634","9.102564","-0.980957","1.515698","-0.500049","0.171069","-0.059814","0.026318","0.108862","-0.519189"
"E","1617445466.2264264","7","60","36","41","41","26","0.750854","-0.184814","-0.62085","-0.129211","-0.030534","0","0","9.073853","-0.937891","1.475024","-0.529956","0.209351","-0.100488","0.072974","0.124414","-0.559863"
"E","1617445466.2163477","7","56","43","42","39","26","0.750732","-0.184692","-0.620972","-0.128967","0","0.015267","-0.007634","9.095386","-0.989331","1.425977","-0.508423","0.15791","-0.145947","0.095703","0.059814","-0.539526"
"E","1617445466.2063155","7","65","42","41","40","25","0.750549","-0.184998","-0.621155","-0.128845","0.022901","0.022901","-0.015267","9.154004","-1.096997","1.37334","-0.449805","0.055029","-0.192603","0.105273","-0.050244","-0.477319"
"E","1617445466.1965086","7","58","43","43","42","26","0.750244","-0.185547","-0.621338","-0.128906","0.038168","0.022901","-0.015267","9.244922","-1.190308","1.347021","-0.360083","-0.031104","-0.210547","0.102881","-0.132788","-0.381616"
"E","1617445466.186134","7","59","43","41","40","26","0.749878","-0.186157","-0.621521","-0.12915","0.030534","0.022901","-0.007634","9.276026","-1.256104","1.349414","-0.328979","-0.093311","-0.198584","0.071777","-0.183032","-0.342139"
"E","1617445466.1769712","7","57","46","40","39","25","0.749634","-0.186584","-0.621704","-0.129395","0.015267","0.015267","-0.007634","9.29397","-1.259692","1.364966","-0.313428","-0.094507","-0.177051","0.055029","-0.174658","-0.322998"
"E","1617445466.1664865","7","60","45","42","40","25","0.749573","-0.186584","-0.621765","-0.129517","-0.015267","0","-0.007634","9.277222","-1.181934","1.416406","-0.330176","-0.017944","-0.124414","0.038281","-0.082544","-0.340942"
"E","1617445466.156222","7","59","44","42","42","26","0.749634","-0.186218","-0.621765","-0.129456","-0.038168","-0.015267","0","9.2198","-1.058716","1.458276","-0.387598","0.099292","-0.08374","0.040674","0.037085","-0.404346"
"E","1617445466.146303","7","61","44","41","38","26","0.749939","-0.18573","-0.621643","-0.129211","-0.045802","-0.030534","0","9.150415","-0.958228","1.485791","-0.456982","0.197388","-0.063403","0.050244","0.131592","-0.480908"
"E","1617445466.1364777","7","60","43","41","42","26","0.750305","-0.185242","-0.621338","-0.128906","-0.022901","-0.030534","0","9.095386","-0.943872","1.473828","-0.509619","0.209351","-0.086133","0.0646","0.130396","-0.537134"
"E","1617445466.1263115","7","58","43","38","41","26","0.750549","-0.18512","-0.621155","-0.128784","0","-0.007634","-0.007634","9.109741","-1.009668","1.465454","-0.494067","0.144751","-0.100488","0.052637","0.066992","-0.516797"
"E","1617445466.1163073","7","58","44","41","43","26","0.750549","-0.185364","-0.621094","-0.128784","0.022901","0.007634","-0.007634","9.191089","-1.10896","1.460669","-0.41272","0.049048","-0.105273","0.0323","-0.016748","-0.427075"
"E","1617445466.1063454","7","60","41","42","38","26","0.750305","-0.185791","-0.621216","-0.129028","0.030534","0.022901","0","9.284399","-1.187915","1.475024","-0.320605","-0.026318","-0.08374","0","-0.071777","-0.324194"
"E","1617445466.0961788","7","61","43","42","40","26","0.75","-0.186157","-0.62146","-0.129272","0.022901","0.022901","0","9.348999","-1.227393","1.491772","-0.257202","-0.0646","-0.059814","-0.023926","-0.093311","-0.253613"
"E","1617445466.0870345","7","62","43","41","40","26","0.749634","-0.186401","-0.621704","-0.129456","0.007634","0.015267","0","9.386084","-1.235767","1.524072","-0.221313","-0.07417","-0.017944","-0.057422","-0.082544","-0.210547"
"E","1617445466.076543","7","61","43","42","40","25","0.749451","-0.186462","-0.621887","-0.129456","-0.015267","-0.007634","-0.007634","9.325073","-1.196289","1.519287","-0.282324","-0.034692","-0.017944","-0.052637","-0.049048","-0.275146"
"E","1617445466.06643","7","61","43","41","40","25","0.749573","-0.186218","-0.621887","-0.129395","-0.030534","-0.022901","-0.007634","9.222193","-1.136475","1.490576","-0.386401","0.021533","-0.049048","-0.021533","-0.016748","-0.388794"
"E","1617445466.0564482","7","59","41","41","40","26","0.749817","-0.185791","-0.621765","-0.12915","-0.038168","-0.022901","0","9.169556","-1.062305","1.467847","-0.437842","0.093311","-0.077759","0.022729","0.0323","-0.452197"
"E","1617445466.0464594","7","59","41","41","41","26","0.750122","-0.185364","-0.621582","-0.128845","-0.030534","-0.022901","0","9.137256","-1.02522","1.434351","-0.468945","0.129199","-0.118433","0.068188","0.046655","-0.492871"
"E","1617445466.0362036","7","61","41","41","40","26","0.750305","-0.18512","-0.62146","-0.128723","-0.007634","-0.007634","0","9.154004","-1.055127","1.397266","-0.452197","0.099292","-0.160303","0.095703","0.001196","-0.479712"
"E","1617445466.0262322","7","58","41","43","40","26","0.750305","-0.185059","-0.62146","-0.128723","0.007634","0.007634","0","9.228174","-1.101782","1.379321","-0.376831","0.05144","-0.179443","0.10647","-0.045459","-0.403149"
"E","1617445466.016206","7","61","42","41","43","27","0.750183","-0.185181","-0.621582","-0.128906","0.015267","0.015267","0","9.291577","-1.144849","1.366162","-0.314624","0.007178","-0.189014","0.108862","-0.087329","-0.33855"
"E","1617445466.0062275","7","60","43","42","42","26","0.75","-0.185303","-0.621704","-0.129089","0.007634","0.015267","0","9.332251","-1.172363","1.380518","-0.275146","-0.020337","-0.169873","0.087329","-0.101685","-0.293091"
"E","1617445465.9962912","7","57","43","40","41","25","0.749817","-0.185364","-0.621826","-0.129272","-0.007634","0.007634","0","9.338232","-1.158008","1.410425","-0.269165","-0.008374","-0.136377","0.0646","-0.076563","-0.283521"
"E","1617445465.6671069","7","58","43","41","39","26","0.75061","-0.186218","-0.620911","-0.128174","0.007634","-0.007634","-0.007634","9.224585","-1.225","1.570728","-0.378027","-0.044263","0.005981","-0.098096","-0.05144","-0.363672"
"E","1617445465.6572063","7","60","43","40","42","24","0.750549","-0.186401","-0.62085","-0.128235","0.007634","0","-0.007634","9.2521","-1.236963","1.581494","-0.349316","-0.055029","0.016748","-0.10647","-0.055029","-0.332568"
"E","1617445465.647191","7","63","41","41","41","26","0.750427","-0.186584","-0.620972","-0.128296","0","0","-0.007634","9.253296","-1.220215","1.571924","-0.349316","-0.037085","0.010767","-0.093311","-0.04187","-0.334961"
"E","1617445465.6371143","7","60","44","42","42","26","0.750366","-0.186646","-0.620972","-0.128357","-0.007634","-0.007634","0","9.212622","-1.196289","1.516895","-0.388794","-0.013159","-0.04187","-0.044263","-0.044263","-0.385205"
"E","1617445465.627102","7","60","41","41","40","26","0.750427","-0.186401","-0.620972","-0.128418","-0.022901","-0.015267","0.007634","9.182714","-1.136475","1.47981","-0.419897","0.04187","-0.080151","0.005981","-0.013159","-0.428271"
"E","1617445465.617014","7","60","44","44","42","26","0.750549","-0.186035","-0.620972","-0.128357","-0.030534","-0.015267","0.007634","9.161181","-1.05752","1.455884","-0.441431","0.11604","-0.107666","0.057422","0.039478","-0.462964"
"E","1617445465.6071255","7","61","41","41","40","26","0.750671","-0.185608","-0.620911","-0.128296","-0.015267","-0.007634","0.007634","9.154004","-1.022827","1.429565","-0.447412","0.145947","-0.137573","0.095703","0.053833","-0.477319"
"E","1617445465.59736","7","59","41","41","41","24","0.750732","-0.185425","-0.620972","-0.128357","0","0","0.007634","9.186304","-1.05752","1.393677","-0.416309","0.107666","-0.174658","0.118433","0.003589","-0.448608"
"E","1617445465.587292","7","59","44","41","39","28","0.75061","-0.185425","-0.621094","-0.12854","0.015267","0.015267","0.007634","9.259277","-1.106567","1.387695","-0.344531","0.056226","-0.178247","0.113647","-0.039478","-0.372046"
"E","1617445465.577288","7","59","45","41","44","26","0.750305","-0.185608","-0.621277","-0.128723","0.015267","0.022901","0","9.311914","-1.153223","1.399658","-0.291895","0.008374","-0.159106","0.087329","-0.072974","-0.312231"
"E","1617445465.567359","7","61","45","42","40","26","0.75","-0.185852","-0.621521","-0.128906","0.015267","0.022901","0","9.334643","-1.186719","1.404443","-0.270361","-0.023926","-0.145947","0.065796","-0.095703","-0.284717"
"E","1617445465.5571327","7","60","45","40","42","26","0.749817","-0.186035","-0.621704","-0.12915","0","0.015267","0","9.343018","-1.172363","1.429565","-0.26438","-0.011963","-0.11604","0.045459","-0.070581","-0.275146"
"E","1617445465.547191","7","59","45","40","41","26","0.749695","-0.185974","-0.621887","-0.129211","-0.015267","0","0","9.343018","-1.113745","1.484595","-0.265576","0.043066","-0.057422","0.016748","0.002393","-0.27395"
"E","1617445465.537347","7","60","45","42","43","26","0.749695","-0.185669","-0.621948","-0.129089","-0.030534","-0.015267","0","9.287989","-1.041968","1.515698","-0.320605","0.112451","-0.026318","0.008374","0.076563","-0.331372"
"E","1617445465.5270605","7","63","43","44","41","26","0.749939","-0.185303","-0.621826","-0.128845","-0.030534","-0.022901","0","9.205444","-1.001294","1.513306","-0.401953","0.151929","-0.034692","0.016748","0.105273","-0.416309"
"E","1617445465.5173092","7","60","44","38","41","26","0.750244","-0.184937","-0.621643","-0.128601","-0.022901","-0.022901","0","9.169556","-1.014453","1.512109","-0.436646","0.137573","-0.043066","0.010767","0.088525","-0.451001"
"E","1617445465.5073807","7","61","43","42","38","26","0.750427","-0.184875","-0.621399","-0.128479","0","-0.015267","-0.007634","9.182714","-1.083838","1.49895","-0.42229","0.069385","-0.062207","0.001196","0.019141","-0.43186"
"E","1617445465.4973643","7","59","41","38","43","24","0.750488","-0.184998","-0.621338","-0.128479","0.015267","0","-0.007634","9.235352","-1.17356","1.504932","-0.369653","-0.016748","-0.057422","-0.027515","-0.053833","-0.368457"
"E","1617445465.4872673","7","60","43","40","41","26","0.750305","-0.185242","-0.621399","-0.128601","0.015267","0.015267","-0.007634","9.297559","-1.230981","1.518091","-0.307446","-0.072974","-0.039478","-0.055029","-0.093311","-0.297876"
"E","1617445465.477357","7","65","43","38","39","25","0.750122","-0.185425","-0.621582","-0.128662","0","0.015267","-0.007634","9.333447","-1.230981","1.538428","-0.272754","-0.071777","-0.014355","-0.070581","-0.080151","-0.260791"
"E","1617445465.4673982","7","60","41","45","27","26","0.749939","-0.185486","-0.621826","-0.128662","-0.007634","0.007634","-0.007634","9.323877","-1.197485","1.543213","-0.283521","-0.038281","-0.003589","-0.066992","-0.045459","-0.27395"
"E","1617445465.457205","7","61","42","42","40","26","0.749878","-0.185364","-0.621948","-0.128601","-0.022901","0","-0.007634","9.273633","-1.143652","1.528857","-0.333765","0.011963","-0.015552","-0.045459","-0.008374","-0.330176"
"E","1617445465.447309","7","60","41","40","39","24","0.749939","-0.18512","-0.622009","-0.128357","-0.030534","-0.007634","-0.007634","9.23894","-1.063501","1.52168","-0.368457","0.092114","-0.023926","-0.010767","0.057422","-0.375635"
"E","1617445465.437425","7","59","43","40","43","26","0.750061","-0.184814","-0.621948","-0.128113","-0.030534","-0.022901","-0.007634","9.205444","-1.010864","1.503735","-0.401953","0.143555","-0.044263","0.021533","0.094507","-0.417505"
"E","1617445465.4271915","7","61","43","38","41","26","0.750305","-0.184631","-0.621765","-0.127747","-0.015267","-0.022901","-0.015267","9.146826","-0.99292","1.484595","-0.458179","0.165088","-0.069385","0.04187","0.100488","-0.478516"
"E","1617445465.417423","7","57","44","41","39","26","0.750488","-0.184692","-0.621582","-0.127563","0","-0.007634","-0.015267","9.169556","-1.045557","1.481006","-0.434253","0.11604","-0.076563","0.031104","0.053833","-0.451001"
"E","1617445465.4074328","7","59","42","40","42","26","0.750549","-0.184998","-0.621521","-0.127502","0.015267","0","-0.015267","9.215014","-1.130493","1.470239","-0.38999","0.037085","-0.088525","0.017944","-0.019141","-0.399561"
"E","1617445465.3973465","7","61","42","41","41","25","0.750427","-0.185425","-0.621399","-0.127563","0.022901","0","-0.015267","9.226977","-1.207056","1.454687","-0.375635","-0.0323","-0.101685","0.002393","-0.087329","-0.379224"
"E","1617445465.387179","7","58","41","37","38","25","0.750366","-0.185791","-0.621399","-0.127747","0.015267","0","-0.007634","9.2198","-1.256104","1.437939","-0.384009","-0.078955","-0.117236","-0.003589","-0.136377","-0.385205"
"E","1617445465.3773098","7","61","44","41","43","26","0.750305","-0.186035","-0.621338","-0.12793","0.007634","-0.007634","-0.007634","9.203052","-1.24773","1.430762","-0.400757","-0.069385","-0.123218","0.001196","-0.131592","-0.403149"
"E","1617445465.3673282","7","60","44","40","40","26","0.750305","-0.186035","-0.621277","-0.128052","-0.015267","-0.007634","0","9.201856","-1.198682","1.428369","-0.400757","-0.021533","-0.126807","0.023926","-0.089722","-0.409131"
"E","1617445465.3572483","7","59","41","38","40","26","0.750427","-0.185791","-0.621277","-0.128052","-0.022901","-0.015267","0","9.189893","-1.126904","1.425977","-0.413916","0.045459","-0.131592","0.053833","-0.0323","-0.43186"
"E","1617445465.3474488","7","57","43","41","39","23","0.75061","-0.185425","-0.621155","-0.127991","-0.022901","-0.015267","0.007634","9.175537","-1.074268","1.430762","-0.427075","0.094507","-0.132788","0.072974","0.00957","-0.449805"
"E","1617445465.337978","7","59","40","41","40","26","0.750732","-0.18512","-0.621094","-0.127869","-0.015267","-0.007634","0","9.186304","-1.062305","1.436743","-0.416309","0.104077","-0.130396","0.077759","0.020337","-0.440234"
"E","1617445465.3271325","7","59","44","40","38","26","0.750793","-0.184998","-0.621094","-0.127808","0","0","0","9.2198","-1.101782","1.446314","-0.382812","0.0646","-0.122021","0.059814","-0.00957","-0.401953"
"E","1617445465.3171709","7","62","44","42","42","26","0.750732","-0.18512","-0.621094","-0.127869","0.015267","0.007634","-0.007634","9.28081","-1.167578","1.465454","-0.321802","0","-0.101685","0.026318","-0.056226","-0.331372"
"E","1617445465.3081093","7","59","44","41","41","25","0.75061","-0.185364","-0.621155","-0.127991","0.015267","0.007634","-0.007634","9.305933","-1.227393","1.470239","-0.29668","-0.057422","-0.093311","0","-0.102881","-0.297876"
"E","1617445465.2973328","7","60","43","40","40","26","0.750549","-0.185486","-0.621216","-0.128113","0","0","-0.007634","9.283203","-1.217822","1.492969","-0.320605","-0.049048","-0.068188","-0.022729","-0.086133","-0.318213"
"E","1617445465.2874398","7","57","43","41","41","26","0.750549","-0.185486","-0.621155","-0.128113","-0.015267","-0.015267","-0.007634","9.246119","-1.15083","1.504932","-0.356494","0.017944","-0.057422","-0.010767","-0.021533","-0.360083"
"E","1617445465.2772644","7","60","44","41","40","24","0.750671","-0.185303","-0.621094","-0.127991","-0.022901","-0.022901","0","9.215014","-1.087427","1.501343","-0.387598","0.080151","-0.0646","0.014355","0.028711","-0.399561"
"E","1617445465.2672071","7","58","25","41","43","26","0.750916","-0.184937","-0.620972","-0.127869","-0.022901","-0.022901","0","9.192286","-1.035986","1.484595","-0.410327","0.129199","-0.087329","0.050244","0.062207","-0.430664"
"E","1617445465.2573605","7","60","43","41","40","26","0.751099","-0.184692","-0.62085","-0.127747","-0.015267","-0.015267","0","9.192286","-1.012061","1.458276","-0.409131","0.151929","-0.118433","0.087329","0.069385","-0.437842"
"E","1617445465.247963","7","59","44","40","42","21","0.751221","-0.18457","-0.620728","-0.127686","-0.007634","-0.007634","0","9.231763","-1.03479","1.442725","-0.369653","0.129199","-0.137573","0.102881","0.04187","-0.399561"
"E","1617445465.237988","7","60","44","40","43","26","0.751221","-0.184631","-0.620728","-0.127625","0.007634","0","-0.007634","9.254492","-1.082642","1.423584","-0.345728","0.082544","-0.155518","0.104077","-0.005981","-0.373242"
"E","1617445465.228031","7","61","45","42","42","26","0.75116","-0.184875","-0.620667","-0.127686","0.015267","0.007634","-0.007634","9.267652","-1.148438","1.419995","-0.332568","0.019141","-0.159106","0.082544","-0.0646","-0.352905"
"E","1617445465.217899","7","61","44","44","88","26","0.751038","-0.185242","-0.620728","-0.127808","0.015267","0.015267","-0.015267","9.302343","-1.209448","1.440332","-0.297876","-0.037085","-0.135181","0.044263","-0.102881","-0.308643"
"E","1617445465.2079046","7","57","42","42","42","26","0.750854","-0.185608","-0.62085","-0.127869","0.015267","0.015267","-0.007634","9.358569","-1.240552","1.48938","-0.242847","-0.0646","-0.080151","-0.003589","-0.101685","-0.242847"
"E","1617445465.197984","7","60","44","40","44","26","0.750732","-0.185791","-0.620911","-0.12793","0","0","-0.007634","9.362158","-1.2573","1.524072","-0.239258","-0.080151","-0.043066","-0.04187","-0.099292","-0.230884"
"E","1617445465.1880405","7","61","43","41","41","26","0.750732","-0.185791","-0.620911","-0.12793","-0.015267","-0.015267","-0.007634","9.291577","-1.217822","1.537231","-0.309839","-0.040674","-0.029907","-0.05144","-0.061011","-0.302661"
"E","1617445465.1780047","7","61","45","40","41","26","0.750916","-0.185547","-0.620728","-0.127869","-0.022901","-0.022901","-0.007634","9.211426","-1.144849","1.550391","-0.388794","0.029907","-0.021533","-0.044263","0.002393","-0.387598"
"E","1617445465.167962","7","59","45","42","41","27","0.751221","-0.185242","-0.620544","-0.127747","-0.030534","-0.022901","0","9.150415","-1.068286","1.550391","-0.449805","0.105273","-0.029907","-0.016748","0.063403","-0.456982"
"E","1617445465.157326","7","61","45","41","42","26","0.751404","-0.184875","-0.620422","-0.127563","-0.022901","-0.015267","0","9.119311","-1.033594","1.530054","-0.479712","0.137573","-0.055029","0.010767","0.081348","-0.494067"
"E","1617445465.147131","7","61","43","42","43","25","0.751526","-0.184753","-0.620361","-0.127441","0","0","0","9.140844","-1.070679","1.49895","-0.458179","0.100488","-0.088525","0.029907","0.033496","-0.474927"
"E","1617445465.1379192","7","60","45","41","42","26","0.751465","-0.184875","-0.620422","-0.127502","0.007634","0.007634","0","9.175537","-1.126904","1.473828","-0.423486","0.045459","-0.111255","0.033496","-0.022729","-0.437842"
"E","1617445465.1279192","7","59","47","42","41","26","0.751282","-0.185059","-0.620544","-0.127625","0.007634","0.015267","0","9.212622","-1.165186","1.467847","-0.387598","0.007178","-0.113647","0.026318","-0.057422","-0.398364"
"E","1617445465.1179984","7","59","43","42","40","26","0.751038","-0.185181","-0.620728","-0.127747","0","0.015267","0","9.234156","-1.154419","1.473828","-0.366064","0.016748","-0.101685","0.023926","-0.043066","-0.376831"
"E","1617445465.107948","7","60","45","44","41","26","0.750854","-0.185242","-0.620972","-0.127808","-0.007634","0.007634","0","9.247314","-1.123315","1.483398","-0.355298","0.046655","-0.086133","0.025122","-0.008374","-0.367261"
"E","1617445465.0980716","7","59","43","41","39","26","0.750732","-0.185181","-0.621155","-0.127747","-0.007634","0","0","9.22937","-1.092212","1.473828","-0.373242","0.076563","-0.092114","0.040674","0.013159","-0.388794"
"E","1617445465.0879223","7","61","43","41","44","26","0.750671","-0.18512","-0.621216","-0.127747","-0.007634","0","0.007634","9.188696","-1.110156","1.428369","-0.413916","0.057422","-0.135181","0.062207","-0.022729","-0.433057"
"E","1617445465.0780015","7","62","42","43","41","26","0.750671","-0.184937","-0.621277","-0.127747","-0.015267","0","0","9.17793","-1.111353","1.403247","-0.425879","0.053833","-0.160303","0.081348","-0.037085","-0.448608"
"E","1617445465.0681336","7","60","44","42","41","26","0.750671","-0.184753","-0.621338","-0.127747","-0.015267","0.007634","0","9.185107","-1.098193","1.399658","-0.418701","0.063403","-0.163892","0.089722","-0.029907","-0.443823"
"E","1617445465.0580034","7","61","45","44","42","27","0.75061","-0.184631","-0.62146","-0.127686","-0.007634","0.015267","0","9.231763","-1.083838","1.425977","-0.372046","0.076563","-0.135181","0.078955","-0.003589","-0.394775"
"E","1617445465.04819","7","61","44","41","42","26","0.750488","-0.184631","-0.621643","-0.127563","0","0.015267","-0.007634","9.254492","-1.102978","1.449902","-0.350513","0.057422","-0.107666","0.050244","-0.008374","-0.367261"
"E","1617445465.0380137","7","61","43","38","32","10","0.750305","-0.184753","-0.621826","-0.127502","0","0.015267","-0.007634","9.270044","-1.14126","1.461865","-0.336157","0.021533","-0.089722","0.022729","-0.0323","-0.345728"
"E","1617445465.0280344","7","63","42","41","43","26","0.750122","-0.184875","-0.622009","-0.127502","-0.007634","0.015267","-0.007634","9.321485","-1.163989","1.503735","-0.284717","0","-0.043066","-0.016748","-0.028711","-0.284717"
"E","1617445465.0179431","7","64","45","45","43","26","0.75","-0.184875","-0.622131","-0.12738","-0.015267","-0.007634","-0.007634","9.321485","-1.142456","1.547998","-0.284717","0.021533","0.003589","-0.049048","0.00957","-0.279932"
"E","1617445465.0082333","7","59","43","41","40","26","0.750122","-0.184753","-0.62207","-0.127197","-0.022901","-0.022901","-0.007634","9.209033","-1.113745","1.52168","-0.397168","0.05144","-0.023926","-0.033496","0.020337","-0.398364"
"E","1617445464.997992","7","61","45","41","44","25","0.750427","-0.18457","-0.621826","-0.127075","-0.015267","-0.030534","-0.007634","9.137256","-1.081445","1.507324","-0.467749","0.08374","-0.045459","-0.014355","0.037085","-0.474927"
