"Alphabet","timestamp","user_id","flex_1","flex_2","flex_3","flex_4","flex_5","Qw","Qx","Qy","Qz","GYRx","GYRy","GYRz","ACCx","ACCy","ACCz","ACCx_body","ACCy_body","ACCz_body","ACCx_world","ACCy_world","ACCz_world"
"F","1617445541.5305855","7","6","39","-23","-23","-15","0.724731","-0.290771","-0.619202","-0.082397","0.015267","-0.015267","-0.007634","8.801099","-2.971582","0.586182","-0.462964","0.15791","-0.040674","0.008374","-0.003589","-0.490479"
"F","1617445541.5204964","7","4","37","-23","-21","-12","0.724792","-0.290955","-0.61908","-0.082581","0.007634","-0.007634","-0.007634","8.863306","-2.981152","0.581396","-0.401953","0.149536","-0.047852","0.023926","0","-0.430664"
"F","1617445541.5104284","7","5","40","-22","-23","-16","0.724792","-0.291016","-0.619019","-0.082642","0","-0.007634","0","8.918335","-2.995508","0.592163","-0.345728","0.135181","-0.037085","0.019141","0.007178","-0.372046"
"F","1617445541.5004866","7","5","37","-21","-22","-13","0.724792","-0.291016","-0.619019","-0.082703","-0.007634","0","0","8.961401","-3.032593","0.592163","-0.303857","0.098096","-0.037085","0.010767","-0.011963","-0.320605"
"F","1617445541.4904668","7","6","38","-18","-21","-11","0.724792","-0.291016","-0.619019","-0.082703","-0.007634","0","-0.007634","8.991308","-3.017041","0.608911","-0.27395","0.113647","-0.020337","0.010767","0.015552","-0.295483"
"F","1617445541.4803686","7","3","37","-27","-19","-12","0.724731","-0.291016","-0.61908","-0.082642","0","-0.007634","0","8.991308","-3.026611","0.604126","-0.272754","0.104077","-0.023926","0.00957","0.005981","-0.291895"
"F","1617445541.4711175","7","3","36","-21","-18","-15","0.724731","-0.291016","-0.61908","-0.082642","0","-0.007634","0","8.933887","-3.044556","0.569434","-0.330176","0.086133","-0.058618","0.017944","-0.039478","-0.343335"
"F","1617445541.4604106","7","3","39","-22","-22","-11","0.724731","-0.291077","-0.61908","-0.082764","0","0","0","8.893213","-3.048145","0.541919","-0.372046","0.081348","-0.086133","0.029907","-0.066992","-0.382812"
"F","1617445541.4504285","7","4","37","-26","-22","-15","0.72467","-0.291077","-0.61908","-0.082825","0.007634","0","0","8.886035","-3.049341","0.515601","-0.379224","0.078955","-0.111255","0.049048","-0.084937","-0.38999"
"F","1617445541.4405277","7","4","39","-21","-17","-12","0.724548","-0.291138","-0.619202","-0.083008","0.007634","0.007634","0","8.897998","-3.045752","0.504834","-0.368457","0.080151","-0.118433","0.057422","-0.084937","-0.38042"
"F","1617445541.4311554","7","5","37","-20","-21","-13","0.724426","-0.291138","-0.619324","-0.08313","0","0.007634","0","8.912354","-3.031396","0.49646","-0.355298","0.092114","-0.124414","0.071777","-0.075366","-0.373242"
"F","1617445541.4203768","7","-16","40","-22","-24","-15","0.724304","-0.291138","-0.619446","-0.083191","0","0.007634","0","8.924316","-3.013452","0.48689","-0.343335","0.108862","-0.130396","0.087329","-0.061011","-0.367261"
"F","1617445541.411176","7","5","40","-22","-19","-12","0.724182","-0.291077","-0.619568","-0.083252","-0.007634","0.007634","0","8.917139","-2.989526","0.489282","-0.351709","0.130396","-0.12561","0.092114","-0.043066","-0.381616"
"F","1617445541.401148","7","3","38","-22","-21","-12","0.724182","-0.290955","-0.619629","-0.083191","-0.015267","0","0","8.903979","-2.957227","0.498853","-0.364868","0.161499","-0.11604","0.095703","-0.015552","-0.403149"
"F","1617445541.39058","7","3","36","-20","-22","-12","0.724243","-0.290833","-0.61969","-0.083069","-0.015267","0","-0.007634","8.884839","-2.935693","0.522778","-0.385205","0.183032","-0.092114","0.081348","0.008374","-0.428271"
"F","1617445541.3811305","7","3","39","-22","-18","-13","0.724365","-0.29071","-0.619629","-0.082886","-0.007634","-0.007634","-0.007634","8.871679","-2.930908","0.553882","-0.397168","0.189014","-0.0646","0.058618","0.025122","-0.439038"
"F","1617445541.3710792","7","5","35","-27","-21","-13","0.724426","-0.290771","-0.619568","-0.082764","-0.007634","-0.007634","-0.007634","8.854932","-2.95603","0.583789","-0.41272","0.16748","-0.034692","0.019141","0.019141","-0.44502"
"F","1617445541.361252","7","5","37","-22","-23","-11","0.724487","-0.290833","-0.619446","-0.082642","0","-0.007634","-0.015267","8.846558","-2.987134","0.614893","-0.419897","0.13877","-0.005981","-0.019141","0.008374","-0.441431"
"F","1617445541.3511057","7","5","39","-21","-20","-11","0.724548","-0.290955","-0.619324","-0.082642","0","-0.007634","-0.015267","8.825025","-3.001489","0.626855","-0.440234","0.126807","0.003589","-0.038281","0","-0.455786"
"F","1617445541.3412223","7","3","36","-23","-19","-13","0.724609","-0.290955","-0.619202","-0.082581","-0.007634","-0.007634","-0.007634","8.821436","-2.993115","0.655566","-0.442627","0.136377","0.029907","-0.056226","0.020337","-0.459375"
"F","1617445541.331216","7","2","37","-23","-19","-16","0.72467","-0.290955","-0.619202","-0.082458","-0.015267","-0.007634","-0.007634","8.826221","-2.967993","0.683081","-0.437842","0.162695","0.056226","-0.065796","0.056226","-0.461768"
"F","1617445541.3212612","7","5","39","-23","-21","-12","0.724731","-0.290894","-0.619202","-0.082336","-0.015267","0","-0.007634","8.827417","-2.940479","0.693848","-0.436646","0.191406","0.065796","-0.059814","0.084937","-0.468945"
"F","1617445541.311211","7","3","39","-22","-22","-16","0.72467","-0.290833","-0.619263","-0.082214","-0.007634","0","-0.007634","8.808276","-2.921338","0.675903","-0.455786","0.210547","0.050244","-0.040674","0.087329","-0.494067"
"F","1617445541.3012695","7","3","38","-24","-18","-13","0.72467","-0.290894","-0.619324","-0.082031","-0.007634","0","-0.007634","8.795117","-2.905786","0.642407","-0.468945","0.229687","0.017944","-0.007178","0.08374","-0.515601"
"F","1617445541.2910848","7","3","39","-20","-21","-12","0.724548","-0.290955","-0.619385","-0.081909","0","0.007634","-0.007634","8.781958","-2.906982","0.598145","-0.480908","0.229687","-0.022729","0.022729","0.058618","-0.52876"
"F","1617445541.2813296","7","5","40","-22","-21","-12","0.724426","-0.291138","-0.619507","-0.081909","0.007634","0.007634","-0.007634","8.764013","-2.927319","0.556274","-0.498853","0.211743","-0.059814","0.043066","0.020337","-0.543115"
"F","1617445541.2711549","7","5","37","-22","-21","-12","0.724243","-0.291321","-0.619629","-0.081848","0.007634","0.007634","-0.007634","8.748462","-2.939282","0.512012","-0.514404","0.200977","-0.099292","0.068188","-0.011963","-0.556274"
"F","1617445541.261239","7","5","39","-22","-21","-15","0.72406","-0.291504","-0.619751","-0.081848","0.007634","0.007634","-0.007634","8.75564","-2.952441","0.479712","-0.507227","0.19021","-0.126807","0.087329","-0.033496","-0.5479"
"F","1617445541.2512536","7","4","38","-23","-18","-14","0.723938","-0.291687","-0.619812","-0.081787","0","0.007634","-0.007634","8.753247","-2.954834","0.474927","-0.508423","0.19021","-0.128003","0.088525","-0.034692","-0.549097"
"F","1617445541.2413392","7","5","37","-21","-21","-13","0.723816","-0.29187","-0.619934","-0.081665","0","0.007634","-0.007634","8.741284","-2.959619","0.465356","-0.520386","0.187817","-0.132788","0.088525","-0.04187","-0.559863"
"F","1617445541.2313526","7","1","37","-23","-21","-16","0.723694","-0.291931","-0.619995","-0.081543","-0.007634","0.007634","-0.007634","8.730517","-2.964404","0.452197","-0.529956","0.185425","-0.142358","0.093311","-0.05144","-0.568237"
"F","1617445541.2212136","7","6","39","-22","-22","-13","0.723694","-0.291992","-0.619995","-0.081421","-0.007634","0.007634","-0.007634","8.74248","-2.967993","0.439038","-0.516797","0.184229","-0.155518","0.107666","-0.056226","-0.556274"
"F","1617445541.2114284","7","5","37","-22","-23","-13","0.723633","-0.292053","-0.620056","-0.081299","-0.007634","0","-0.015267","8.748462","-2.966797","0.434253","-0.510815","0.186621","-0.15791","0.112451","-0.055029","-0.551489"
"F","1617445541.2013905","7","3","37","-26","-22","-13","0.723633","-0.292114","-0.620056","-0.081116","-0.007634","0","-0.015267","8.735303","-2.967993","0.423486","-0.522778","0.189014","-0.16748","0.118433","-0.061011","-0.564648"
"F","1617445541.1912556","7","3","39","-23","-23","-32","0.723694","-0.292175","-0.619995","-0.080994","-0.007634","-0.007634","-0.015267","8.716162","-2.977563","0.409131","-0.540723","0.181836","-0.183032","0.124414","-0.078955","-0.5802"
"F","1617445541.1813495","7","6","39","-22","-22","-23","0.723755","-0.292175","-0.619934","-0.080872","-0.007634","0","-0.007634","8.726929","-2.982349","0.404346","-0.529956","0.179443","-0.19021","0.131592","-0.082544","-0.569434"
"F","1617445541.171288","7","3","37","-20","-19","-15","0.723816","-0.292175","-0.619873","-0.080688","-0.007634","0","-0.007634","8.748462","-3.008667","0.403149","-0.507227","0.155518","-0.192603","0.126807","-0.098096","-0.540723"
"F","1617445541.1615186","7","3","39","-20","-21","-15","0.723877","-0.292297","-0.619812","-0.080627","0","-0.007634","-0.007634","8.766406","-3.063696","0.388794","-0.489282","0.102881","-0.206958","0.117236","-0.143555","-0.507227"
"F","1617445541.1512258","7","8","39","-23","-20","-15","0.723877","-0.292358","-0.61969","-0.080627","0","-0.007634","-0.007634","8.775976","-3.116333","0.38042","-0.477319","0.05144","-0.216528","0.104077","-0.187817","-0.479712"
"F","1617445541.1414762","7","6","39","-22","-22","-13","0.723938","-0.292419","-0.619568","-0.080688","0","-0.007634","-0.007634","8.769995","-3.137866","0.386401","-0.483301","0.031104","-0.212939","0.089722","-0.204565","-0.478516"
"F","1617445541.1312697","7","4","37","-21","-21","-15","0.724121","-0.292358","-0.619446","-0.080688","-0.015267","-0.015267","-0.007634","8.749659","-3.118726","0.406738","-0.503638","0.050244","-0.197388","0.080151","-0.185425","-0.503638"
"F","1617445541.1214306","7","4","35","-23","-23","-16","0.724304","-0.292175","-0.619324","-0.080688","-0.015267","-0.015267","-0.007634","8.741284","-3.090015","0.424683","-0.512012","0.077759","-0.184229","0.080151","-0.15791","-0.519189"
"F","1617445541.1114204","7","5","37","-20","-20","-14","0.724548","-0.291931","-0.619141","-0.080627","-0.022901","-0.015267","-0.007634","8.735303","-3.061304","0.456982","-0.517993","0.105273","-0.159106","0.070581","-0.123218","-0.532349"
"F","1617445541.1012309","7","3","42","-22","-21","-15","0.724792","-0.291687","-0.618958","-0.080505","-0.022901","-0.022901","0","8.73291","-3.048145","0.48689","-0.519189","0.118433","-0.136377","0.057422","-0.100488","-0.537134"
"F","1617445541.0912771","7","5","39","-22","-22","-13","0.725098","-0.291382","-0.618774","-0.080505","-0.022901","-0.022901","0","8.730517","-3.046948","0.521582","-0.522778","0.117236","-0.110059","0.033496","-0.088525","-0.53833"
"F","1617445541.0813692","7","5","39","-21","-21","-11","0.725403","-0.291016","-0.618591","-0.080505","-0.030534","-0.022901","0","8.737696","-3.031396","0.559863","-0.515601","0.129199","-0.080151","0.014355","-0.061011","-0.533545"
"F","1617445541.071318","7","1","37","-22","-21","-13","0.725769","-0.290588","-0.618347","-0.080444","-0.030534","-0.022901","0","8.75564","-3.021826","0.606519","-0.497656","0.136377","-0.044263","-0.007178","-0.031104","-0.516797"
"F","1617445541.0613434","7","7","39","-23","-19","-15","0.726013","-0.290222","-0.618225","-0.080383","-0.022901","-0.015267","0","8.793921","-3.031396","0.661548","-0.460571","0.123218","0.003589","-0.046655","-0.008374","-0.47373"
"F","1617445541.0515563","7","2","40","-22","-23","-11","0.726257","-0.289978","-0.618042","-0.080322","-0.015267","-0.015267","0","8.827417","-3.066089","0.71897","-0.425879","0.088525","0.053833","-0.098096","-0.002393","-0.425879"
"F","1617445541.0413744","7","3","37","-20","-22","-12","0.72644","-0.289856","-0.61792","-0.080261","-0.007634","-0.015267","-0.007634","8.844165","-3.109155","0.763232","-0.409131","0.045459","0.093311","-0.14834","-0.011963","-0.393579"
"F","1617445541.031423","7","5","39","-21","-21","-23","0.726562","-0.289795","-0.617798","-0.080261","-0.007634","-0.015267","-0.007634","8.835791","-3.143848","0.799121","-0.417505","0.010767","0.12561","-0.194995","-0.026318","-0.388794"
"F","1617445541.0213428","7","6","41","-20","-18","-13","0.726685","-0.289734","-0.617676","-0.080322","-0.015267","-0.015267","0","8.817846","-3.137866","0.826636","-0.435449","0.015552","0.149536","-0.216528","-0.014355","-0.405542"
"F","1617445541.0114217","7","4","38","-22","-22","-12","0.726868","-0.289551","-0.617615","-0.080383","-0.022901","-0.015267","0","8.793921","-3.086426","0.846973","-0.460571","0.0646","0.165088","-0.212939","0.027515","-0.443823"
"F","1617445541.001228","7","3","38","-22","-21","-15","0.72699","-0.289185","-0.617554","-0.080322","-0.030534","-0.015267","0","8.781958","-3.01106","0.852954","-0.472534","0.136377","0.166284","-0.181836","0.08374","-0.477319"
"F","1617445540.9911766","7","4","37","-6","-20","-12","0.727173","-0.288818","-0.617554","-0.0802","-0.030534","-0.007634","0","8.77478","-2.939282","0.860132","-0.480908","0.205762","0.169873","-0.154321","0.141162","-0.507227"
"F","1617445540.9811523","7","4","37","-22","-17","-13","0.727234","-0.288513","-0.617615","-0.080017","-0.015267","-0.007634","0","8.77478","-2.910571","0.849365","-0.480908","0.23208","0.156714","-0.131592","0.155518","-0.516797"
"F","1617445540.971707","7","5","39","-22","-15","-12","0.727234","-0.288391","-0.617737","-0.079956","-0.007634","0.007634","0","8.789136","-2.920142","0.818262","-0.467749","0.221313","0.126807","-0.107666","0.133984","-0.503638"
"F","1617445540.961321","7","4","39","-22","-19","-9","0.727051","-0.288391","-0.61792","-0.079895","0","0.015267","0","8.81665","-2.948853","0.794336","-0.440234","0.192603","0.107666","-0.098096","0.107666","-0.468945"
"F","1617445540.95127","7","3","38","-22","-22","-12","0.726807","-0.288513","-0.618164","-0.079834","0","0.015267","0","8.833399","-2.967993","0.773999","-0.423486","0.174658","0.094507","-0.092114","0.089722","-0.448608"
"F","1617445540.9413335","7","5","37","-22","-19","-17","0.726562","-0.288574","-0.618469","-0.079773","0","0.015267","-0.007634","8.821436","-2.970386","0.750073","-0.436646","0.171069","0.078955","-0.082544","0.075366","-0.461768"
"F","1617445540.9313345","7","4","39","-20","-20","-11","0.726318","-0.288696","-0.618713","-0.079651","0","0.015267","-0.007634","8.791529","-2.971582","0.716577","-0.466553","0.172266","0.052637","-0.065796","0.055029","-0.491675"
"F","1617445540.9213457","7","6","40","-28","-22","-15","0.726074","-0.288879","-0.618958","-0.079468","0","0.007634","-0.015267","8.762817","-2.98833","0.679492","-0.495264","0.15791","0.022729","-0.053833","0.020337","-0.516797"
"F","1617445540.911435","7","4","39","-23","-22","-11","0.72583","-0.289124","-0.61908","-0.079346","0.007634","0.007634","-0.015267","8.728125","-3.018237","0.6125","-0.527563","0.131592","-0.035889","-0.022729","-0.038281","-0.541919"
"F","1617445540.90125","7","6","38","-23","-20","-7","0.725647","-0.289368","-0.619202","-0.079285","0.007634","0.007634","-0.007634","8.720947","-3.034985","0.567041","-0.534741","0.117236","-0.076563","0.002393","-0.072974","-0.546704"
"F","1617445540.8915026","7","5","37","-20","-20","-15","0.725525","-0.289551","-0.619324","-0.079285","0","0.007634","-0.007634","8.726929","-3.021826","0.533545","-0.529956","0.132788","-0.105273","0.034692","-0.07417","-0.549097"
"F","1617445540.8812647","7","3","39","-21","-22","-17","0.725403","-0.289551","-0.619446","-0.079224","-0.007634","0.007634","-0.007634","8.736499","-2.982349","0.510815","-0.519189","0.172266","-0.124414","0.072974","-0.049048","-0.553882"
"F","1617445540.8713205","7","3","37","-21","-17","-13","0.725342","-0.289551","-0.619507","-0.079163","-0.007634","0.007634","-0.007634","8.73291","-2.948853","0.502441","-0.522778","0.205762","-0.131592","0.094507","-0.026318","-0.568237"
"F","1617445540.8613522","7","4","37","-23","-23","-15","0.725281","-0.289612","-0.619629","-0.079102","0","0.007634","-0.007634","8.741284","-2.932105","0.49646","-0.515601","0.223706","-0.135181","0.107666","-0.011963","-0.567041"
"F","1617445540.851385","7","5","39","-22","-18","-9","0.725159","-0.289673","-0.61969","-0.078979","0.007634","0.007634","-0.007634","8.760425","-2.94646","0.509619","-0.495264","0.210547","-0.118433","0.090918","-0.00957","-0.543115"
"F","1617445540.8413234","7","4","37","-22","-22","-11","0.725037","-0.289856","-0.619751","-0.078979","0.007634","0.007634","0","8.766406","-2.983545","0.510815","-0.489282","0.175854","-0.113647","0.071777","-0.033496","-0.525171"
"F","1617445540.8313687","7","6","39","-22","-16","-23","0.724915","-0.290039","-0.619812","-0.079102","0.007634","0","0","8.743677","-3.005078","0.515601","-0.512012","0.154321","-0.105273","0.050244","-0.052637","-0.539526"
"F","1617445540.8212862","7","5","39","-20","-23","-11","0.724854","-0.2901","-0.619751","-0.079285","0","-0.007634","0","8.712573","-2.983545","0.526367","-0.543115","0.174658","-0.094507","0.044263","-0.038281","-0.574219"
"F","1617445540.8113658","7","4","40","-23","-20","-12","0.724915","-0.290161","-0.619751","-0.079346","0","-0.007634","-0.007634","8.687451","-2.935693","0.533545","-0.568237","0.22251","-0.088525","0.056226","-0.002393","-0.613696"
"F","1617445540.8013794","7","4","40","-21","-22","-16","0.724976","-0.2901","-0.619629","-0.079407","-0.007634","-0.015267","0","8.6719","-2.892627","0.532349","-0.583789","0.26438","-0.092114","0.075366","0.025122","-0.642407"
"F","1617445540.7913816","7","4","39","-23","-21","-11","0.725037","-0.2901","-0.619507","-0.079407","0","-0.007634","0","8.669507","-2.885449","0.520386","-0.584985","0.272754","-0.10647","0.090918","0.025122","-0.645996"
"F","1617445540.7814484","7","3","40","-20","-22","-12","0.725098","-0.290161","-0.619446","-0.079468","0","-0.007634","0","8.69104","-2.906982","0.512012","-0.563452","0.251221","-0.11604","0.093311","0.007178","-0.619678"
"F","1617445540.7712922","7","3","37","-22","-22","-11","0.725098","-0.290222","-0.619385","-0.079529","0","0","0","8.712573","-2.927319","0.513208","-0.541919","0.230884","-0.11604","0.088525","-0.002393","-0.593359"
"F","1617445540.7614653","7","5","39","-22","-23","-14","0.725098","-0.290222","-0.619446","-0.079529","-0.007634","0","0","8.726929","-2.93689","0.519189","-0.52876","0.221313","-0.108862","0.081348","-0.003589","-0.576611"
"F","1617445540.751422","7","3","40","-22","-18","-9","0.725037","-0.290222","-0.619507","-0.079468","-0.007634","0.007634","0","8.754443","-2.950049","0.526367","-0.500049","0.208154","-0.100488","0.07417","-0.003589","-0.545508"
"F","1617445540.741449","7","5","39","-22","-21","-13","0.724976","-0.290222","-0.619629","-0.079346","-0.007634","0.007634","-0.007634","8.786743","-2.982349","0.525171","-0.468945","0.177051","-0.098096","0.0646","-0.020337","-0.50603"
"F","1617445540.7316177","7","2","39","-20","-22","-12","0.724915","-0.290161","-0.619751","-0.079224","-0.007634","0","-0.007634","8.793921","-3.014648","0.501245","-0.461768","0.144751","-0.120825","0.069385","-0.056226","-0.490479"
"F","1617445540.7214177","7","2","36","-21","-21","-15","0.724854","-0.2901","-0.619812","-0.079041","-0.015267","0","-0.007634","8.783154","-3.029004","0.470142","-0.471338","0.131592","-0.149536","0.086133","-0.084937","-0.49646"
"F","1617445540.7114086","7","3","36","1","-20","-12","0.724976","-0.290039","-0.619812","-0.078857","-0.015267","-0.007634","-0.007634","8.780762","-3.033789","0.433057","-0.47373","0.129199","-0.189014","0.118433","-0.107666","-0.500049"
"F","1617445540.7014873","7","4","39","-23","-22","-16","0.725037","-0.289917","-0.619751","-0.078613","-0.022901","0","-0.007634","8.791529","-3.039771","0.41272","-0.461768","0.124414","-0.210547","0.136377","-0.119629","-0.489282"
"F","1617445540.6921425","7","9","38","-22","-22","-13","0.72522","-0.289734","-0.61969","-0.07843","-0.022901","0","-0.007634","8.81665","-3.051733","0.401953","-0.436646","0.113647","-0.226099","0.150732","-0.130396","-0.462964"
"F","1617445540.681427","7","2","35","-23","-20","-14","0.725342","-0.28949","-0.61969","-0.078186","-0.022901","0","-0.007634","8.827417","-3.056519","0.424683","-0.425879","0.108862","-0.205762","0.132788","-0.120825","-0.449805"
"F","1617445540.6720245","7","1","37","-23","-23","-13","0.725403","-0.289307","-0.61969","-0.078003","-0.015267","0","-0.007634","8.814258","-3.070874","0.449805","-0.437842","0.094507","-0.183032","0.104077","-0.124414","-0.45459"
"F","1617445540.662237","7","3","39","-22","-24","-13","0.725525","-0.289185","-0.619629","-0.07782","-0.015267","0","-0.007634","8.810669","-3.105567","0.489282","-0.441431","0.061011","-0.145947","0.056226","-0.132788","-0.44502"
"F","1617445540.6521213","7","1","37","-23","-16","-16","0.725586","-0.289062","-0.619629","-0.077759","-0.007634","0","0","8.819043","-3.137866","0.556274","-0.433057","0.027515","-0.080151","-0.013159","-0.124414","-0.42229"
"F","1617445540.641458","7","3","39","-22","-24","-12","0.725647","-0.28894","-0.619629","-0.077759","-0.007634","-0.007634","-0.007634","8.80708","-3.155811","0.624463","-0.44502","0.008374","-0.013159","-0.082544","-0.108862","-0.423486"
"F","1617445540.6320832","7","5","40","-22","-23","-12","0.725708","-0.288879","-0.619568","-0.077759","-0.007634","-0.015267","0","8.76521","-3.149829","0.668726","-0.48689","0.014355","0.027515","-0.123218","-0.093311","-0.461768"
"F","1617445540.6215806","7","3","37","-24","-22","-16","0.725891","-0.288696","-0.619446","-0.07782","-0.015267","-0.022901","0","8.726929","-3.123511","0.698633","-0.526367","0.038281","0.052637","-0.142358","-0.069385","-0.504834"
"F","1617445540.6122663","7","4","41","-22","-19","-16","0.726074","-0.288391","-0.619385","-0.077881","-0.022901","-0.015267","0.007634","8.731714","-3.07207","0.72854","-0.522778","0.086133","0.076563","-0.139966","-0.016748","-0.515601"
"F","1617445540.6020784","7","0","35","-20","-20","-15","0.726257","-0.287964","-0.619324","-0.077942","-0.022901","-0.015267","0.007634","8.737696","-3.009863","0.739307","-0.517993","0.142358","0.081348","-0.11604","0.0323","-0.52876"
"F","1617445540.5913904","7","5","38","-22","-21","-15","0.726379","-0.287537","-0.619385","-0.077942","-0.030534","-0.007634","0.007634","8.764013","-2.939282","0.758447","-0.492871","0.208154","0.096899","-0.093311","0.100488","-0.525171"
"F","1617445540.5813086","7","4","37","-22","-7","-12","0.72644","-0.28717","-0.619507","-0.07782","-0.022901","0","0.007634","8.780762","-2.890234","0.756055","-0.477319","0.253613","0.093311","-0.065796","0.139966","-0.525171"
"F","1617445540.5720916","7","3","36","-23","-24","-13","0.726379","-0.286926","-0.61969","-0.077759","-0.015267","0.007634","0.007634","8.813062","-2.88186","0.746484","-0.446216","0.258398","0.086133","-0.050244","0.14834","-0.497656"
"F","1617445540.562116","7","1","37","-20","-21","-15","0.726257","-0.286743","-0.619934","-0.077698","-0.007634","0.015267","0.007634","8.854932","-2.896216","0.72854","-0.405542","0.240454","0.071777","-0.037085","0.136377","-0.45459"
"F","1617445540.5521145","7","5","39","-21","-21","-12","0.726074","-0.286743","-0.620178","-0.077637","0","0.015267","0","8.893213","-2.918945","0.708203","-0.368457","0.217725","0.057422","-0.027515","0.118433","-0.413916"
"F","1617445540.5420938","7","4","38","-23","-22","-13","0.72583","-0.286865","-0.620361","-0.077576","0","0.007634","-0.007634","8.887232","-2.942871","0.671118","-0.373242","0.193799","0.026318","-0.013159","0.081348","-0.41272"
"F","1617445540.532063","7","3","36","-23","-18","-16","0.725647","-0.286987","-0.620544","-0.077515","0","0.007634","-0.007634","8.862109","-2.953638","0.629248","-0.399561","0.184229","-0.008374","0.005981","0.049048","-0.436646"
"F","1617445540.5221193","7","5","39","-22","-22","-13","0.725525","-0.287048","-0.620667","-0.077332","-0.007634","0.007634","-0.007634","8.864502","-2.963208","0.588574","-0.395972","0.177051","-0.045459","0.034692","0.025122","-0.433057"
"F","1617445540.5121462","7","5","39","-22","-23","-13","0.725403","-0.287109","-0.620789","-0.077148","-0.007634","0.007634","-0.015267","8.856128","-2.9656","0.553882","-0.403149","0.177051","-0.076563","0.059814","0.007178","-0.442627"
"F","1617445540.5020957","7","3","37","-23","-22","-15","0.725342","-0.28717","-0.620911","-0.076904","-0.007634","0.007634","-0.015267","8.845362","-2.960815","0.52876","-0.413916","0.185425","-0.098096","0.080151","0","-0.455786"
"F","1617445540.4955251","7","4","37","-22","-23","-15","0.72522","-0.287231","-0.621033","-0.07666","-0.007634","0.007634","-0.007634","8.820239","-2.972778","0.508423","-0.437842","0.175854","-0.114844","0.084937","-0.020337","-0.477319"
"F","1617445540.4820423","7","5","37","-23","-17","-15","0.725098","-0.287292","-0.621155","-0.076477","-0.007634","0.015267","-0.007634","8.805883","-2.985938","0.494067","-0.452197","0.165088","-0.12561","0.086133","-0.039478","-0.488086"
"F","1617445540.4720836","7","5","40","-26","-24","-15","0.724976","-0.287354","-0.621277","-0.076355","-0.007634","0.015267","-0.007634","8.80708","-3.006274","0.492871","-0.451001","0.145947","-0.122021","0.07417","-0.052637","-0.479712"
"F","1617445540.463253","7","33","39","-26","-21","-16","0.724854","-0.287415","-0.62146","-0.076172","-0.007634","0.007634","-0.007634","8.799902","-3.015845","0.500049","-0.458179","0.13877","-0.111255","0.061011","-0.055029","-0.483301"
"F","1617445540.452182","7","5","37","-23","-20","-15","0.724792","-0.287476","-0.621521","-0.07605","-0.007634","0","-0.015267","8.771192","-3.018237","0.512012","-0.485693","0.13877","-0.096899","0.043066","-0.055029","-0.508423"
"F","1617445540.4421265","7","3","37","-24","-21","-26","0.724792","-0.287537","-0.621521","-0.075867","-0.007634","-0.007634","-0.015267","8.736499","-3.021826","0.510815","-0.519189","0.137573","-0.096899","0.034692","-0.0646","-0.540723"
"F","1617445540.432422","7","1","37","-24","-20","-17","0.724854","-0.287537","-0.62146","-0.075745","-0.007634","-0.007634","-0.015267","8.717359","-3.026611","0.512012","-0.53833","0.135181","-0.098096","0.029907","-0.071777","-0.557471"
"F","1617445540.4221778","7","6","39","-22","-21","-15","0.724915","-0.287537","-0.621399","-0.075684","-0.007634","-0.007634","-0.007634","8.722143","-3.026611","0.529956","-0.532349","0.136377","-0.081348","0.017944","-0.061011","-0.551489"
"F","1617445540.412145","7","4","36","-22","-20","-12","0.724976","-0.287598","-0.621277","-0.075562","-0.007634","-0.007634","-0.007634","8.741284","-3.037378","0.531152","-0.512012","0.128003","-0.081348","0.017944","-0.062207","-0.52876"
"F","1617445540.4022431","7","4","46","-24","-19","-12","0.725037","-0.287598","-0.621216","-0.075562","0","-0.007634","-0.007634","8.748462","-3.038574","0.555078","-0.504834","0.128003","-0.059814","0.001196","-0.050244","-0.521582"
"F","1617445540.3920765","7","5","37","-21","-19","-12","0.725037","-0.287659","-0.621216","-0.0755","0","0","-0.007634","8.759229","-3.048145","0.574219","-0.494067","0.119629","-0.039478","-0.016748","-0.043066","-0.507227"
"F","1617445540.3821936","7","4","37","-4","-22","-13","0.725037","-0.28772","-0.621216","-0.0755","0","0","-0.007634","8.77478","-3.061304","0.596948","-0.478516","0.107666","-0.016748","-0.038281","-0.038281","-0.48689"
"F","1617445540.3723354","7","13","39","-21","-20","-13","0.724976","-0.28772","-0.621216","-0.075439","-0.007634","0","-0.007634","8.783154","-3.064893","0.62207","-0.468945","0.104077","0.008374","-0.059814","-0.026318","-0.474927"
"F","1617445540.3621314","7","3","37","-21","-61","-47","0.724976","-0.287781","-0.621277","-0.075378","-0.007634","-0.007634","-0.007634","8.766406","-3.060107","0.636426","-0.485693","0.110059","0.023926","-0.07417","-0.016748","-0.491675"
"F","1617445540.3521984","7","4","35","-24","-20","-15","0.724976","-0.287781","-0.621216","-0.075317","-0.007634","-0.007634","-0.007634","8.734106","-3.049341","0.6125","-0.516797","0.122021","0","-0.055029","-0.027515","-0.526367"
"F","1617445540.3423102","7","4","38","-23","-20","-15","0.725037","-0.28772","-0.621216","-0.075256","-0.015267","-0.007634","-0.007634","8.720947","-3.033789","0.596948","-0.531152","0.137573","-0.016748","-0.035889","-0.026318","-0.546704"
"F","1617445540.3321795","7","5","37","-23","-24","-13","0.725098","-0.287598","-0.621155","-0.075195","-0.015267","-0.007634","-0.007634","8.724536","-3.003882","0.582593","-0.526367","0.16748","-0.033496","-0.007178","-0.00957","-0.552686"
"F","1617445540.322194","7","5","36","-22","-22","-23","0.725159","-0.287476","-0.621216","-0.075073","-0.015267","0","-0.007634","8.729321","-2.991919","0.565845","-0.522778","0.179443","-0.050244","0.013159","-0.007178","-0.553882"
"F","1617445540.3123567","7","4","37","-22","-29","-10","0.725159","-0.287415","-0.621277","-0.074951","-0.007634","0.007634","-0.007634","8.750854","-2.9979","0.558667","-0.501245","0.173462","-0.057422","0.020337","-0.010767","-0.532349"
"F","1617445540.3021696","7","4","37","-22","-22","-15","0.725037","-0.287415","-0.621399","-0.074829","0","0.007634","-0.007634","8.778369","-3.023022","0.569434","-0.472534","0.149536","-0.043066","0.003589","-0.015552","-0.49646"
"F","1617445540.2923632","7","4","38","-24","-20","-15","0.724915","-0.287476","-0.621521","-0.074768","0","0.007634","-0.007634","8.789136","-3.054126","0.576611","-0.461768","0.118433","-0.0323","-0.016748","-0.033496","-0.476123"
"F","1617445540.2822218","7","4","37","-23","-21","-12","0.724792","-0.287537","-0.621582","-0.074768","0","0","-0.007634","8.78435","-3.055322","0.582593","-0.466553","0.118433","-0.022729","-0.025122","-0.029907","-0.479712"
"F","1617445540.2722137","7","3","40","-22","-20","-15","0.724792","-0.287659","-0.621582","-0.074707","-0.007634","-0.007634","-0.015267","8.747266","-3.040967","0.582593","-0.503638","0.135181","-0.022729","-0.026318","-0.025122","-0.520386"
"F","1617445540.2622983","7","4","38","-22","-49","-15","0.724854","-0.28772","-0.621521","-0.074646","-0.007634","-0.015267","-0.015267","8.71018","-3.027808","0.563452","-0.540723","0.149536","-0.043066","-0.00957","-0.033496","-0.56106"
"F","1617445540.2521913","7","4","38","-24","-20","-12","0.724976","-0.287781","-0.621338","-0.074585","0","-0.015267","-0.007634","8.682666","-3.023022","0.541919","-0.565845","0.156714","-0.068188","0.008374","-0.046655","-0.588574"
"F","1617445540.2422156","7","2","35","-23","-12","-23","0.725098","-0.287842","-0.621216","-0.074585","0","-0.007634","-0.007634","8.69104","-3.036182","0.537134","-0.557471","0.145947","-0.075366","0.010767","-0.056226","-0.577808"
"F","1617445540.2321937","7","1","37","-20","-24","-16","0.725098","-0.287842","-0.621155","-0.074646","-0.007634","-0.007634","-0.007634","8.722143","-3.039771","0.546704","-0.526367","0.141162","-0.066992","0.008374","-0.049048","-0.546704"
"F","1617445540.222347","7","5","37","-19","-22","-15","0.725159","-0.287781","-0.621094","-0.074646","-0.007634","0","0","8.75205","-3.037378","0.573022","-0.49646","0.143555","-0.04187","-0.004785","-0.026318","-0.516797"
"F","1617445540.212365","7","3","39","-22","-20","-11","0.725159","-0.287781","-0.621155","-0.074585","-0.007634","0","0","8.768799","-3.043359","0.582593","-0.479712","0.13877","-0.0323","-0.010767","-0.021533","-0.498853"
"F","1617445540.2022085","7","4","36","-20","-21","-15","0.725098","-0.28772","-0.621155","-0.074585","-0.007634","0","0","8.773584","-3.054126","0.581396","-0.47373","0.126807","-0.0323","-0.015552","-0.029907","-0.489282"
"F","1617445540.192536","7","2","39","-26","-22","-13","0.725098","-0.28772","-0.621216","-0.074646","-0.007634","-0.007634","0","8.775976","-3.055322","0.579004","-0.472534","0.124414","-0.034692","-0.014355","-0.0323","-0.488086"
"F","1617445540.1822495","7","3","37","-22","-20","-13","0.725098","-0.287659","-0.621216","-0.074646","-0.007634","-0.007634","-0.007634","8.760425","-3.023022","0.576611","-0.488086","0.155518","-0.037085","-0.001196","-0.011963","-0.513208"
"F","1617445540.172201","7","-16","37","-24","-23","-13","0.725159","-0.287537","-0.621216","-0.074585","-0.015267","-0.007634","0","8.743677","-2.984741","0.564648","-0.50603","0.193799","-0.050244","0.022729","0.007178","-0.543115"
"F","1617445540.1623206","7","3","39","-28","-22","-16","0.725281","-0.287415","-0.621155","-0.074524","-0.015267","-0.007634","0","8.747266","-2.953638","0.552686","-0.502441","0.223706","-0.065796","0.050244","0.025122","-0.550293"
"F","1617445540.1522095","7","4","36","-22","-21","-15","0.725342","-0.287292","-0.621155","-0.074524","-0.007634","-0.007634","0","8.771192","-2.944067","0.551489","-0.478516","0.23208","-0.068188","0.062207","0.037085","-0.531152"
"F","1617445540.1421714","7","3","37","-22","-18","-13","0.725403","-0.287231","-0.621094","-0.074463","-0.007634","-0.007634","0","8.783154","-2.953638","0.5479","-0.466553","0.223706","-0.07417","0.065796","0.029907","-0.516797"
"F","1617445540.1323774","7","5","40","-23","-19","28","0.725403","-0.287231","-0.621094","-0.074463","0","-0.007634","0","8.792725","-2.976367","0.564648","-0.456982","0.200977","-0.057422","0.043066","0.021533","-0.500049"
"F","1617445540.1224022","7","6","39","-21","-21","-51","0.725403","-0.287354","-0.621033","-0.074524","0","-0.007634","-0.007634","8.804688","-3.008667","0.575415","-0.443823","0.168677","-0.046655","0.021533","0.003589","-0.476123"
"F","1617445540.112264","7","5","26","-22","-24","-23","0.725403","-0.287415","-0.620972","-0.074524","0.007634","0","-0.007634","8.81665","-3.038574","0.592163","-0.43186","0.139966","-0.029907","-0.002393","-0.007178","-0.45459"
"F","1617445540.1022382","7","4","40","-22","-18","-11","0.725403","-0.287598","-0.620911","-0.074585","0.007634","-0.007634","-0.007634","8.815454","-3.060107","0.607715","-0.43186","0.120825","-0.014355","-0.025122","-0.014355","-0.447412"
"F","1617445540.092269","7","5","13","-20","-20","-16","0.725403","-0.28772","-0.62085","-0.074585","0","-0.007634","-0.007634","8.79751","-3.073267","0.62207","-0.449805","0.108862","0","-0.046655","-0.021533","-0.459375"
"F","1617445540.0822475","7","4","39","-21","-22","-11","0.725403","-0.287781","-0.620789","-0.074585","-0.007634","-0.015267","-0.007634","8.769995","-3.05293","0.625659","-0.476123","0.130396","0.002393","-0.044263","-0.00957","-0.490479"
"F","1617445540.0722146","7","4","43","-22","-18","-11","0.725525","-0.28772","-0.620728","-0.074585","-0.015267","-0.015267","-0.007634","8.75564","-3.027808","0.62207","-0.491675","0.155518","-0.003589","-0.031104","0.003589","-0.514404"
"F","1617445540.0621798","7","6","36","-20","-22","-17","0.725708","-0.287537","-0.620605","-0.074463","-0.022901","-0.007634","-0.007634","8.754443","-2.993115","0.631641","-0.491675","0.19021","0","-0.017944","0.033496","-0.525171"
"F","1617445540.0524032","7","5","39","-20","-21","-15","0.72583","-0.287354","-0.620605","-0.07428","-0.022901","-0.007634","-0.007634","8.749659","-2.969189","0.628052","-0.49646","0.214136","-0.004785","-0.004785","0.050244","-0.53833"
"F","1617445540.04224","7","3","39","-22","-21","-9","0.725891","-0.287231","-0.620544","-0.074036","-0.015267","-0.007634","-0.007634","8.741284","-2.973975","0.614893","-0.503638","0.211743","-0.020337","0.004785","0.038281","-0.544312"
"F","1617445539.203509","7","3","36","-24","-20","-15","0.72522","-0.285522","-0.622437","-0.071411","0","0.007634","0","8.810669","-2.969189","0.650781","-0.435449","0.217725","0.04187","-0.028711","0.090918","-0.478516"
"F","1617445539.1933048","7","5","39","-22","-20","-11","0.725037","-0.285583","-0.62262","-0.071472","0.007634","0.007634","0","8.819043","-3.002686","0.637622","-0.428271","0.183032","0.033496","-0.035889","0.059814","-0.460571"
"F","1617445539.183483","7","6","35","-23","-20","-17","0.724792","-0.285767","-0.622803","-0.071594","0.007634","0.007634","-0.007634","8.813062","-3.026611","0.610107","-0.434253","0.15791","0.013159","-0.031104","0.027515","-0.459375"
"F","1617445539.173341","7","4","39","-21","-21","-12","0.72467","-0.28595","-0.622864","-0.071655","0.007634","0","-0.007634","8.798706","-3.036182","0.569434","-0.448608","0.149536","-0.023926","-0.005981","-0.001196","-0.472534"
"F","1617445539.163406","7","5","39","-20","-22","-15","0.724609","-0.286133","-0.622864","-0.071655","0","0","-0.007634","8.793921","-3.032593","0.555078","-0.453394","0.155518","-0.035889","0.004785","-0.003589","-0.479712"
"F","1617445539.1533537","7","5","36","-18","-19","-12","0.724548","-0.286255","-0.622864","-0.071594","0","0","-0.015267","8.786743","-3.029004","0.541919","-0.459375","0.161499","-0.047852","0.016748","-0.005981","-0.488086"
"F","1617445539.1432068","7","5","38","-22","-18","-13","0.724487","-0.286377","-0.622864","-0.071472","0","0","-0.015267","8.779566","-3.032593","0.529956","-0.465356","0.160303","-0.057422","0.022729","-0.014355","-0.494067"
"F","1617445539.1332707","7","4","36","-24","-23","-13","0.724426","-0.286499","-0.622925","-0.07135","0","0.007634","-0.007634","8.789136","-3.049341","0.525171","-0.455786","0.147144","-0.059814","0.021533","-0.023926","-0.480908"
"F","1617445539.1237495","7","3","37","-23","-21","-13","0.724304","-0.286682","-0.622986","-0.071289","0","0.007634","-0.007634","8.787939","-3.060107","0.515601","-0.455786","0.13877","-0.065796","0.022729","-0.033496","-0.478516"
"F","1617445539.1134956","7","3","36","-24","-23","-23","0.724182","-0.286804","-0.623108","-0.071228","0.007634","0.007634","-0.007634","8.773584","-3.068481","0.492871","-0.470142","0.131592","-0.084937","0.0323","-0.052637","-0.490479"
"F","1617445539.103945","7","5","36","-26","-21","-13","0.72406","-0.286987","-0.623169","-0.071228","0.007634","0","-0.015267","8.754443","-3.055322","0.460571","-0.489282","0.147144","-0.113647","0.061011","-0.059814","-0.515601"
"F","1617445539.0933695","7","3","38","-22","-22","-15","0.723999","-0.28717","-0.623169","-0.071228","0.007634","0","-0.015267","8.728125","-3.040967","0.430664","-0.515601","0.163892","-0.141162","0.086133","-0.066992","-0.5479"
"F","1617445539.0832138","7","3","38","-21","-25","-12","0.723938","-0.287354","-0.623108","-0.071167","0.007634","0","-0.015267","8.70061","-3.019433","0.41272","-0.540723","0.187817","-0.15791","0.10647","-0.062207","-0.5802"
"F","1617445539.0740235","7","4","40","-20","-21","-15","0.723938","-0.287476","-0.623047","-0.071167","0","0","-0.015267","8.683863","-3.007471","0.406738","-0.557471","0.202173","-0.163892","0.114844","-0.057422","-0.600537"
"F","1617445539.0635066","7","2","36","-23","-22","-13","0.723938","-0.287659","-0.622986","-0.071106","0","0","-0.015267","8.680273","-3.002686","0.399561","-0.559863","0.210547","-0.171069","0.124414","-0.055029","-0.606519"
"F","1617445539.053292","7","3","37","-24","-22","-23","0.723938","-0.287781","-0.622925","-0.071045","0","0","-0.007634","8.680273","-3.003882","0.388794","-0.558667","0.211743","-0.181836","0.133984","-0.059814","-0.606519"
"F","1617445539.0433574","7","1","39","-26","-22","-5","0.723938","-0.287903","-0.622925","-0.071045","0","0","-0.007634","8.694629","-3.009863","0.384009","-0.544312","0.206958","-0.185425","0.137573","-0.062207","-0.590967"
"F","1617445539.034017","7","4","39","-22","-18","-15","0.723877","-0.287903","-0.622986","-0.070984","-0.007634","0","-0.007634","8.725733","-3.007471","0.38042","-0.513208","0.209351","-0.187817","0.14834","-0.052637","-0.563452"
"F","1617445539.0241492","7","3","39","-26","-21","-15","0.723877","-0.287903","-0.622986","-0.070862","-0.007634","0","-0.007634","8.744873","-3.000293","0.384009","-0.492871","0.218921","-0.184229","0.153125","-0.038281","-0.546704"
"F","1617445539.0137162","7","5","40","-20","-18","-12","0.723938","-0.287903","-0.622925","-0.07074","-0.007634","-0.007634","-0.007634","8.756836","-3.008667","0.399561","-0.480908","0.211743","-0.169873","0.139966","-0.033496","-0.532349"
"F","1617445539.00415","7","3","40","-20","-22","-12","0.723999","-0.287903","-0.622864","-0.070618","-0.007634","-0.007634","-0.007634","8.747266","-3.042163","0.413916","-0.489282","0.18064","-0.156714","0.112451","-0.055029","-0.52876"
"F","1617445538.9940772","7","5","40","-22","-23","-15","0.724182","-0.287903","-0.622681","-0.070557","-0.007634","-0.007634","-0.015267","8.72334","-3.057715","0.427075","-0.512012","0.16748","-0.14834","0.094507","-0.066992","-0.545508"
"F","1617445538.9839556","7","3","40","-22","-23","-11","0.724304","-0.287903","-0.622498","-0.070374","-0.015267","-0.015267","-0.015267","8.704199","-3.060107","0.456982","-0.529956","0.16748","-0.122021","0.068188","-0.058618","-0.56106"
"F","1617445538.9740577","7","4","41","-19","-22","-13","0.724487","-0.287842","-0.622375","-0.07019","-0.015267","-0.007634","-0.015267","8.699414","-3.056519","0.472534","-0.533545","0.173462","-0.111255","0.059814","-0.049048","-0.565845"
"F","1617445538.9634335","7","3","39","-22","-22","-23","0.72467","-0.28772","-0.622253","-0.070007","-0.022901","-0.007634","-0.007634","8.699414","-3.050537","0.504834","-0.533545","0.181836","-0.08374","0.039478","-0.028711","-0.567041"
"F","1617445538.9539945","7","3","33","12","-20","-13","0.724854","-0.287537","-0.622131","-0.069824","-0.015267","-0.007634","-0.007634","8.707788","-3.044556","0.523975","-0.523975","0.189014","-0.069385","0.0323","-0.013159","-0.559863"
"F","1617445538.9442284","7","3","37","-23","-26","-14","0.724976","-0.287476","-0.62207","-0.069641","-0.015267","-0.007634","-0.007634","8.719751","-3.058911","0.533545","-0.510815","0.175854","-0.062207","0.022729","-0.016748","-0.541919"
"F","1617445538.9339986","7","6","37","-22","-19","-12","0.725037","-0.287354","-0.622009","-0.069458","-0.015267","0","-0.007634","8.734106","-3.081641","0.539526","-0.495264","0.154321","-0.057422","0.011963","-0.027515","-0.520386"
"F","1617445538.9241588","7","5","37","-20","-22","-15","0.725098","-0.287231","-0.622009","-0.069336","-0.015267","0","-0.007634","8.75564","-3.092407","0.552686","-0.47373","0.143555","-0.046655","0.002393","-0.026318","-0.495264"
"F","1617445538.9140327","7","6","37","-20","-20","-23","0.725159","-0.287109","-0.622009","-0.069153","-0.022901","0","-0.007634","8.77478","-3.090015","0.5802","-0.45459","0.147144","-0.020337","-0.013159","-0.004785","-0.477319"
"F","1617445538.9040906","7","4","39","-22","-22","-16","0.725281","-0.286987","-0.622009","-0.068909","-0.022901","-0.007634","-0.007634","8.773584","-3.088818","0.607715","-0.455786","0.150732","0.004785","-0.033496","0.00957","-0.478516"
"F","1617445538.894122","7","4","37","-22","-21","-11","0.725342","-0.286804","-0.622009","-0.068665","-0.022901","-0.007634","-0.007634","8.749659","-3.101978","0.626855","-0.478516","0.137573","0.021533","-0.058618","0.001196","-0.494067"
"F","1617445538.884215","7","3","37","-20","-20","-15","0.725464","-0.286621","-0.621948","-0.068481","-0.022901","-0.007634","-0.007634","8.724536","-3.107959","0.635229","-0.503638","0.131592","0.026318","-0.071777","-0.007178","-0.515601"
"F","1617445538.874009","7","4","36","-23","-20","-13","0.725586","-0.286499","-0.621948","-0.068298","-0.015267","-0.007634","-0.007634","8.717359","-3.115137","0.645996","-0.510815","0.12561","0.035889","-0.08374","-0.00957","-0.519189"
"F","1617445538.8641222","7","1","37","-22","-17","-16","0.725586","-0.286377","-0.622009","-0.068176","-0.007634","0","0","8.71377","-3.151025","0.6448","-0.514404","0.089722","0.034692","-0.100488","-0.040674","-0.510815"
"F","1617445538.8541827","7","3","38","-20","-21","-15","0.725586","-0.286316","-0.62207","-0.068115","0","0.007634","-0.007634","8.72334","-3.189307","0.660352","-0.504834","0.05144","0.050244","-0.129199","-0.062207","-0.489282"
"F","1617445538.8442194","7","4","35","-22","-19","-13","0.725464","-0.286377","-0.622192","-0.068115","0","0.007634","-0.007634","8.740088","-3.22041","0.678296","-0.488086","0.020337","0.071777","-0.15791","-0.072974","-0.461768"
"F","1617445538.8341498","7","5","39","-20","-21","-13","0.725342","-0.286377","-0.622314","-0.068054","-0.007634","0.007634","-0.007634","8.748462","-3.226392","0.695044","-0.479712","0.014355","0.092114","-0.175854","-0.0646","-0.449805"
"F","1617445538.824208","7","4","40","-20","-18","-11","0.72522","-0.286377","-0.622437","-0.067993","-0.007634","0","-0.007634","8.75205","-3.214429","0.714185","-0.476123","0.026318","0.114844","-0.189014","-0.043066","-0.449805"
"F","1617445538.8140788","7","6","39","-19","-21","-12","0.725159","-0.286377","-0.622559","-0.067932","-0.007634","0","-0.007634","8.74248","-3.200073","0.720166","-0.48689","0.040674","0.123218","-0.192603","-0.029907","-0.46416"
"F","1617445538.804057","7","3","37","-20","-21","-12","0.725098","-0.286316","-0.62262","-0.067932","-0.007634","-0.007634","0","8.71377","-3.177344","0.69624","-0.515601","0.062207","0.100488","-0.168677","-0.031104","-0.500049"
"F","1617445538.7941716","7","5","40","-22","-21","-13","0.725098","-0.286194","-0.622681","-0.067993","-0.007634","-0.007634","0","8.682666","-3.141455","0.662744","-0.5479","0.095703","0.066992","-0.131592","-0.027515","-0.543115"
"F","1617445538.7842026","7","1","38","-21","-22","-12","0.725037","-0.286072","-0.622742","-0.068054","-0.007634","0","0.007634","8.674292","-3.110352","0.645996","-0.556274","0.123218","0.05144","-0.107666","-0.015552","-0.56106"
"F","1617445538.7740865","7","5","39","-23","-22","-12","0.724976","-0.285889","-0.622925","-0.068115","-0.007634","0.007634","0.007634","8.680273","-3.073267","0.630444","-0.552686","0.156714","0.037085","-0.078955","0.004785","-0.569434"
"F","1617445538.7641098","7","5","37","-23","-19","-13","0.724854","-0.285767","-0.623169","-0.068176","0","0.015267","0.007634","8.688647","-3.051733","0.610107","-0.545508","0.174658","0.021533","-0.055029","0.014355","-0.569434"
"F","1617445538.754078","7","1","37","-23","-21","-15","0.724609","-0.285767","-0.623413","-0.068359","0.007634","0.015267","0.007634","8.728125","-3.05293","0.598145","-0.508423","0.169873","0.015552","-0.044263","0.016748","-0.533545"
"F","1617445538.7440925","7","5","38","-21","-22","-15","0.724304","-0.285889","-0.623718","-0.068481","0.022901","0.015267","0.007634","8.747266","-3.069678","0.577808","-0.490479","0.150732","0.003589","-0.038281","0","-0.510815"
"F","1617445538.7339158","7","3","37","-22","-20","-11","0.723999","-0.286133","-0.623901","-0.068787","0.022901","0.007634","0","8.737696","-3.087622","0.535937","-0.501245","0.130396","-0.029907","-0.020337","-0.035889","-0.516797"
"F","1617445538.731834","7","3","37","-24","-21","-2","0.723755","-0.286438","-0.624023","-0.069092","0.022901","0","0","8.729321","-3.092407","0.488086","-0.509619","0.12561","-0.071777","0.010767","-0.062207","-0.525171"
"F","1617445538.7302947","7","3","36","-22","-20","-17","0.723572","-0.286682","-0.624084","-0.069397","0.015267","0","0","8.724536","-3.080444","0.449805","-0.515601","0.136377","-0.105273","0.044263","-0.071777","-0.535937"
"F","1617445538.7040308","7","2","37","-23","-20","-11","0.72345","-0.286865","-0.624084","-0.069702","0.007634","-0.007634","0","8.724536","-3.045752","0.443823","-0.515601","0.168677","-0.108862","0.062207","-0.047852","-0.546704"
"F","1617445538.694238","7","5","39","-22","-20","-12","0.72345","-0.286865","-0.624084","-0.069885","0","-0.007634","0","8.722143","-2.9979","0.437842","-0.519189","0.214136","-0.114844","0.087329","-0.013159","-0.565845"
"F","1617445538.6843622","7","5","37","-22","-20","-13","0.72345","-0.286804","-0.624084","-0.070007","-0.007634","-0.007634","0","8.725733","-2.953638","0.439038","-0.516797","0.256006","-0.114844","0.10647","0.020337","-0.576611"
"F","1617445538.6740615","7","4","40","-22","-20","-11","0.723511","-0.286743","-0.624084","-0.070068","-0.007634","0","0","8.759229","-2.921338","0.425879","-0.484497","0.287109","-0.129199","0.139966","0.047852","-0.557471"
"F","1617445538.6642866","7","5","36","-23","-21","-15","0.723511","-0.286621","-0.624084","-0.070007","-0.007634","0","0","8.805883","-2.918945","0.425879","-0.436646","0.288306","-0.129199","0.150732","0.061011","-0.513208"
"F","1617445538.6541674","7","4","39","-20","-20","-12","0.723572","-0.28656","-0.624084","-0.070007","-0.007634","-0.007634","0","8.841772","-2.932105","0.423486","-0.401953","0.275146","-0.132788","0.155518","0.057422","-0.476123"
"F","1617445538.6441216","7","1","37","-23","-20","-15","0.723572","-0.28656","-0.624023","-0.069946","0","-0.007634","-0.007634","8.845362","-2.953638","0.405542","-0.397168","0.25481","-0.151929","0.163892","0.0323","-0.466553"
"F","1617445538.6342924","7","4","37","-24","-22","-15","0.723694","-0.286621","-0.623901","-0.069946","0","-0.015267","-0.007634","8.827417","-2.995508","0.394775","-0.415112","0.214136","-0.165088","0.151929","-0.011963","-0.470142"
"F","1617445538.624292","7","3","37","-24","-22","-14","0.723816","-0.286743","-0.623718","-0.069946","0","-0.015267","-0.007634","8.80708","-3.040967","0.397168","-0.434253","0.171069","-0.166284","0.129199","-0.052637","-0.474927"
"F","1617445538.6141348","7","3","39","-21","-20","-11","0.723999","-0.286804","-0.623474","-0.069885","-0.007634","-0.015267","-0.015267","8.792725","-3.058911","0.399561","-0.447412","0.156714","-0.168677","0.122021","-0.069385","-0.482104"
"F","1617445538.6044004","7","1","36","-26","-24","-15","0.724182","-0.286804","-0.62323","-0.069824","-0.007634","-0.007634","-0.007634","8.791529","-3.069678","0.424683","-0.446216","0.147144","-0.149536","0.100488","-0.066992","-0.477319"
"F","1617445538.5944138","7","4","37","-22","-20","-13","0.724365","-0.286743","-0.623108","-0.069702","-0.015267","-0.007634","-0.007634","8.805883","-3.090015","0.456982","-0.43186","0.129199","-0.120825","0.070581","-0.0646","-0.455786"
"F","1617445538.5841951","7","4","40","-19","-22","-12","0.724487","-0.286621","-0.623047","-0.069519","-0.015267","0","-0.007634","8.821436","-3.112744","0.495264","-0.416309","0.107666","-0.086133","0.033496","-0.061011","-0.43186"
"F","1617445538.5742452","7","2","38","-21","-18","-15","0.724548","-0.28656","-0.622986","-0.069397","-0.015267","0","-0.007634","8.821436","-3.125903","0.541919","-0.415112","0.095703","-0.040674","-0.00957","-0.046655","-0.424683"
"F","1617445538.5642464","7","4","40","-24","-20","-12","0.724609","-0.286377","-0.623047","-0.069214","-0.022901","0","-0.007634","8.805883","-3.135474","0.587378","-0.430664","0.086133","0.002393","-0.053833","-0.037085","-0.433057"
"F","1617445538.5542357","7","3","39","-21","-24","-16","0.72467","-0.286194","-0.623047","-0.069031","-0.022901","0","-0.007634","8.792725","-3.145044","0.6125","-0.443823","0.076563","0.025122","-0.081348","-0.037085","-0.441431"
"F","1617445538.5442777","7","3","36","-22","-20","-13","0.724731","-0.286011","-0.623108","-0.068787","-0.022901","-0.007634","-0.007634","8.759229","-3.145044","0.630444","-0.477319","0.076563","0.043066","-0.104077","-0.037085","-0.471338"
"F","1617445538.5344198","7","7","37","-24","-21","-17","0.724792","-0.285828","-0.623108","-0.068604","-0.022901","0","-0.007634","8.725733","-3.142651","0.628052","-0.509619","0.078955","0.038281","-0.105273","-0.045459","-0.503638"
"F","1617445538.5243907","7","3","33","-23","-24","-12","0.724792","-0.285645","-0.623169","-0.068359","-0.015267","0","-0.007634","8.704199","-3.142651","0.62207","-0.531152","0.080151","0.0323","-0.104077","-0.053833","-0.523975"
"F","1617445538.5144317","7","6","38","-22","-23","-15","0.724792","-0.285522","-0.623291","-0.068237","-0.015267","0.007634","0","8.694629","-3.160596","0.608911","-0.540723","0.061011","0.020337","-0.105273","-0.077759","-0.527563"
"F","1617445538.5043612","7","2","41","-23","-20","-17","0.72467","-0.285461","-0.623474","-0.068176","-0.007634","0.007634","0","8.70061","-3.167773","0.604126","-0.535937","0.052637","0.019141","-0.10647","-0.08374","-0.520386"
"F","1617445538.493993","7","1","39","-23","-21","-14","0.724548","-0.285278","-0.623718","-0.068054","-0.007634","0.015267","0","8.689844","-3.164185","0.590967","-0.5479","0.055029","0.010767","-0.100488","-0.089722","-0.533545"
"F","1617445538.484383","7","2","36","-23","-20","-13","0.724426","-0.285156","-0.623962","-0.067993","-0.015267","0.007634","0","8.663526","-3.131885","0.592163","-0.575415","0.084937","0.015552","-0.096899","-0.069385","-0.569434"
"F","1617445538.474277","7","4","35","-22","-23","-12","0.724304","-0.284973","-0.624207","-0.067932","-0.015267","0.007634","0","8.643188","-3.080444","0.590967","-0.596948","0.133984","0.017944","-0.080151","-0.033496","-0.605322"
"F","1617445538.4643214","7","4","40","-21","-21","-13","0.724182","-0.284729","-0.624451","-0.06781","-0.015267","0.007634","0","8.640796","-3.032593","0.58977","-0.600537","0.178247","0.020337","-0.063403","0.002393","-0.623267"
"F","1617445538.4541118","7","4","39","-22","-22","-16","0.72406","-0.284546","-0.624634","-0.067688","-0.015267","0.007634","0","8.643188","-3.001489","0.588574","-0.598145","0.206958","0.022729","-0.05144","0.028711","-0.630444"
"F","1617445538.4442165","7","1","38","-23","-22","-15","0.723938","-0.284485","-0.624817","-0.067627","-0.007634","0","0","8.634814","-2.990723","0.57063","-0.607715","0.216528","0.008374","-0.035889","0.026318","-0.642407"
"F","1617445538.4342346","7","3","39","-23","-23","-15","0.723877","-0.284485","-0.624939","-0.067688","0.007634","0","0","8.636011","-3.000293","0.537134","-0.607715","0.205762","-0.021533","-0.014355","0.002393","-0.641211"
"F","1617445538.42432","7","5","36","-21","-22","-7","0.723755","-0.284607","-0.625","-0.067749","0.007634","-0.007634","0","8.625244","-3.008667","0.500049","-0.618481","0.198584","-0.056226","0.008374","-0.021533","-0.650781"
"F","1617445538.4144664","7","3","48","-21","-20","-16","0.723694","-0.28479","-0.625","-0.067932","0.015267","-0.007634","0","8.613281","-3.017041","0.447412","-0.630444","0.19021","-0.10647","0.045459","-0.057422","-0.662744"
"F","1617445538.4043465","7","3","35","-24","-21","-12","0.723633","-0.284973","-0.624939","-0.068115","0.015267","-0.007634","0","8.636011","-3.027808","0.399561","-0.607715","0.179443","-0.154321","0.087329","-0.08374","-0.640015"
"F","1617445538.3944688","7","4","38","-22","-20","-23","0.723572","-0.285156","-0.624878","-0.06842","0.015267","-0.007634","0","8.685059","-3.038574","0.379224","-0.558667","0.16748","-0.173462","0.108862","-0.090918","-0.590967"
"F","1617445538.3843255","7","1","38","-20","-22","-15","0.723511","-0.285278","-0.624817","-0.068726","0.015267","-0.007634","0.007634","8.714966","-3.039771","0.355298","-0.52876","0.163892","-0.197388","0.133984","-0.098096","-0.563452"
"F","1617445538.374205","7","3","39","-24","-20","-17","0.723572","-0.2854","-0.624695","-0.069092","0.015267","-0.015267","0.007634","8.736499","-3.025415","0.340942","-0.508423","0.175854","-0.212939","0.156714","-0.090918","-0.549097"
"F","1617445538.364236","7","4","35","-24","-21","-15","0.723694","-0.285461","-0.624512","-0.069458","0.007634","-0.022901","0.007634","8.748462","-3.009863","0.336157","-0.497656","0.189014","-0.22251","0.173462","-0.081348","-0.543115"
"F","1617445538.3542714","7","1","35","-23","-24","-11","0.723938","-0.2854","-0.624207","-0.069824","0.007634","-0.030534","0.007634","8.75205","-2.984741","0.344531","-0.495264","0.210547","-0.22251","0.183032","-0.063403","-0.5479"
"F","1617445538.3444123","7","3","39","-22","-22","-8","0.724243","-0.285278","-0.62384","-0.070251","0","-0.038168","0.007634","8.74248","-2.952441","0.354102","-0.504834","0.238062","-0.22251","0.193799","-0.04187","-0.565845"
"F","1617445538.334202","7","3","36","-25","-22","-17","0.72467","-0.285095","-0.623413","-0.070618","0","-0.038168","0.015267","8.756836","-2.929712","0.375635","-0.491675","0.256006","-0.214136","0.197388","-0.019141","-0.559863"
"F","1617445538.3243225","7","1","39","-20","-27","-17","0.725098","-0.284912","-0.622925","-0.071045","0","-0.038168","0.015267","8.802295","-2.920142","0.409131","-0.446216","0.260791","-0.193799","0.19021","0.005981","-0.516797"
"F","1617445538.3145225","7","3","36","-22","-23","-23","0.725464","-0.284729","-0.622559","-0.071472","0.007634","-0.038168","0.015267","8.865698","-2.921338","0.446216","-0.385205","0.25481","-0.168677","0.179443","0.028711","-0.455786"
"F","1617445538.304142","7","3","39","-23","-21","-17","0.72583","-0.284546","-0.622131","-0.07196","0.007634","-0.038168","0.015267","8.918335","-2.927319","0.494067","-0.332568","0.242847","-0.132788","0.153125","0.050244","-0.400757"
"F","1617445538.2943103","7","-1","39","-23","-18","-12","0.726135","-0.284424","-0.621765","-0.072449","0.007634","-0.038168","0.015267","8.951831","-2.933301","0.544312","-0.300269","0.230884","-0.092114","0.119629","0.069385","-0.363672"
"F","1617445538.2844436","7","1","38","-20","-19","-15","0.726501","-0.284241","-0.621399","-0.072998","0","-0.045802","0.015267","8.974561","-2.912964","0.598145","-0.279932","0.245239","-0.050244","0.094507","0.107666","-0.345728"
"F","1617445538.2742195","7","3","39","-20","22","-12","0.726868","-0.284058","-0.620972","-0.073425","0","-0.045802","0.015267","8.975757","-2.880664","0.650781","-0.278735","0.271558","-0.00957","0.071777","0.150732","-0.350513"
"F","1617445538.2646992","7","5","40","-22","-22","-16","0.727295","-0.283875","-0.620483","-0.073853","-0.007634","-0.045802","0.007634","8.967382","-2.834009","0.715381","-0.288306","0.313428","0.040674","0.045459","0.209351","-0.369653"
"F","1617445538.254094","7","4","37","-22","-18","-15","0.727722","-0.283691","-0.620056","-0.074097","-0.007634","-0.045802","0.007634","8.953028","-2.795727","0.772803","-0.302661","0.349316","0.084937","0.020337","0.257202","-0.391187"
"F","1617445538.244971","7","4","40","-22","-20","-15","0.728149","-0.283569","-0.619629","-0.07428","-0.007634","-0.045802","0","8.947046","-2.776587","0.826636","-0.308643","0.367261","0.126807","-0.008374","0.293091","-0.399561"
"F","1617445538.2346044","7","2","36","-23","-22","-15","0.728516","-0.283447","-0.619141","-0.074402","-0.007634","-0.038168","0","8.957812","-2.787354","0.869702","-0.295483","0.356494","0.15791","-0.037085","0.302661","-0.381616"
"F","1617445538.2249956","7","1","37","-22","-21","-11","0.728882","-0.283508","-0.618774","-0.074402","-0.007634","-0.030534","-0.007634","8.993701","-2.819653","0.902002","-0.259595","0.327783","0.18064","-0.062207","0.299072","-0.336157"
"F","1617445538.2143145","7","3","38","-24","-20","-11","0.729065","-0.283569","-0.618469","-0.07428","-0.007634","-0.022901","-0.015267","9.031982","-2.871094","0.931909","-0.217725","0.279932","0.204565","-0.095703","0.282324","-0.279932"
"F","1617445538.2050488","7","3","35","-23","-17","-15","0.729187","-0.283752","-0.618286","-0.073975","-0.007634","-0.015267","-0.022901","9.057104","-2.93689","0.935498","-0.19021","0.221313","0.205762","-0.117236","0.240454","-0.234473"
"F","1617445538.1944828","7","5","38","-22","-21","-13","0.729248","-0.284058","-0.618164","-0.073608","-0.007634","-0.007634","-0.030534","9.051123","-3.003882","0.927124","-0.193799","0.163892","0.197388","-0.137573","0.187817","-0.220117"
"F","1617445538.1851747","7","4","38","-20","-22","-12","0.729187","-0.284424","-0.618103","-0.073181","-0.007634","0","-0.038168","9.022412","-3.074463","0.888843","-0.218921","0.102881","0.161499","-0.139966","0.112451","-0.227295"
"F","1617445538.1749675","7","1","39","-23","-21","-13","0.729126","-0.28479","-0.618103","-0.072693","-0.007634","0.007634","-0.038168","8.970972","-3.122314","0.831421","-0.267969","0.065796","0.107666","-0.122021","0.04187","-0.265576"
"F","1617445538.1650977","7","1","35","-22","-20","-27","0.729004","-0.285095","-0.618164","-0.072144","-0.007634","0.015267","-0.038168","8.912354","-3.171362","0.765625","-0.322998","0.027515","0.046655","-0.099292","-0.033496","-0.309839"
"F","1617445538.155178","7","5","37","-22","-21","-16","0.728821","-0.2854","-0.618286","-0.071655","-0.015267","0.022901","-0.030534","8.870483","-3.207251","0.697437","-0.362476","0.001196","-0.013159","-0.069385","-0.095703","-0.342139"
"F","1617445538.1450732","7","-3","37","-26","-22","-13","0.728516","-0.285583","-0.618591","-0.071106","-0.015267","0.030534","-0.030534","8.819043","-3.22041","0.626855","-0.411523","-0.003589","-0.07417","-0.029907","-0.142358","-0.391187"
"F","1617445538.135262","7","4","35","-20","-23","-14","0.72821","-0.285645","-0.618958","-0.070618","-0.022901","0.038168","-0.022901","8.772388","-3.214429","0.565845","-0.456982","0.004785","-0.12561","0.007178","-0.173462","-0.440234"
"F","1617445538.12508","7","3","38","-22","-22","-15","0.727844","-0.285645","-0.619446","-0.070068","-0.022901","0.045802","-0.015267","8.730517","-3.195288","0.525171","-0.497656","0.028711","-0.154321","0.034692","-0.178247","-0.488086"
"F","1617445538.1150398","7","3","39","-23","-22","-15","0.727478","-0.285461","-0.620056","-0.06958","-0.022901","0.045802","-0.007634","8.674292","-3.167773","0.488086","-0.555078","0.056226","-0.178247","0.056226","-0.183032","-0.552686"
"F","1617445538.1050978","7","3","36","-21","-21","-12","0.727051","-0.285339","-0.620605","-0.069153","-0.022901","0.045802","-0.007634","8.624048","-3.13667","0.446216","-0.605322","0.087329","-0.208154","0.084937","-0.185425","-0.6125"
"F","1617445538.0952291","7","1","35","-22","-24","-15","0.726746","-0.285217","-0.621094","-0.068726","-0.015267","0.038168","-0.007634","8.579785","-3.118726","0.405542","-0.650781","0.10647","-0.238062","0.111255","-0.196191","-0.662744"
"F","1617445538.085112","7","4","39","-22","-23","-18","0.72644","-0.285095","-0.621521","-0.06842","-0.015267","0.030534","-0.007634","8.56543","-3.105567","0.391187","-0.665137","0.119629","-0.244043","0.119629","-0.191406","-0.680689"
"F","1617445538.075109","7","4","40","-22","-22","-13","0.726196","-0.285034","-0.621887","-0.068176","-0.007634","0.022901","-0.007634","8.554663","-3.084033","0.398364","-0.6771","0.141162","-0.228491","0.113647","-0.169873","-0.698633"
"F","1617445538.065058","7","3","37","-24","-23","-15","0.726013","-0.285034","-0.622131","-0.067932","-0.007634","0.022901","-0.007634","8.570215","-3.084033","0.413916","-0.661548","0.143555","-0.206958","0.100488","-0.153125","-0.683081"
"F","1617445538.055079","7","5","37","-21","-23","-15","0.725891","-0.285095","-0.622314","-0.067749","0","0.015267","-0.007634","8.603711","-3.105567","0.441431","-0.628052","0.123218","-0.174658","0.070581","-0.145947","-0.642407"
"F","1617445538.0449977","7","3","37","-22","-48","-55","0.725708","-0.285095","-0.622437","-0.067688","0","0.007634","-0.007634","8.637207","-3.119922","0.477319","-0.593359","0.108862","-0.135181","0.037085","-0.129199","-0.60293"
"F","1617445538.0352588","7","2","37","-22","-21","-12","0.725647","-0.285156","-0.622559","-0.067627","-0.007634","0.007634","-0.007634","8.64917","-3.107959","0.519189","-0.582593","0.122021","-0.089722","0.007178","-0.092114","-0.594556"
"F","1617445538.0251355","7","1","38","-23","-23","-16","0.725647","-0.285034","-0.622559","-0.067505","-0.015267","0","-0.007634","8.653955","-3.091211","0.567041","-0.576611","0.13877","-0.043066","-0.023926","-0.053833","-0.590967"
"F","1617445538.0151684","7","3","36","-22","-24","-15","0.725769","-0.284912","-0.622559","-0.067261","-0.022901","0","-0.015267","8.661133","-3.063696","0.616089","-0.569434","0.16748","0.002393","-0.049048","-0.005981","-0.590967"
"F","1617445538.0050938","7","4","37","-23","-20","-16","0.72583","-0.28479","-0.622559","-0.067017","-0.022901","-0.007634","-0.015267","8.65874","-3.058911","0.650781","-0.571826","0.174658","0.035889","-0.075366","0.014355","-0.593359"
"F","1617445537.9950695","7","4","39","-21","-21","-13","0.725952","-0.284668","-0.622559","-0.06665","-0.015267","-0.007634","-0.015267","8.652759","-3.084033","0.666333","-0.576611","0.153125","0.050244","-0.098096","0.002393","-0.58977"
"F","1617445537.9851537","7","1","35","-23","-23","-23","0.725952","-0.284729","-0.622498","-0.066406","-0.007634","0","-0.015267","8.647974","-3.130688","0.666333","-0.579004","0.110059","0.050244","-0.118433","-0.0323","-0.577808"
"F","1617445537.9751108","7","4","35","-17","-22","-11","0.725952","-0.284851","-0.622498","-0.066223","0","0","-0.015267","8.643188","-3.184521","0.659155","-0.583789","0.059814","0.043066","-0.136377","-0.078955","-0.565845"
"F","1617445537.9651432","7","3","36","-22","-22","-12","0.72583","-0.285034","-0.622559","-0.066162","0.007634","0","-0.015267","8.632421","-3.238354","0.65437","-0.593359","0.008374","0.04187","-0.160303","-0.12561","-0.558667"
"F","1617445537.9551644","7","3","39","-22","-20","-12","0.725708","-0.285278","-0.62262","-0.066162","0.007634","0","-0.015267","8.625244","-3.264673","0.630444","-0.600537","-0.013159","0.022729","-0.154321","-0.154321","-0.558667"
"F","1617445537.9449894","7","3","38","-22","-22","-15","0.725525","-0.2854","-0.622742","-0.066223","0","0.007634","-0.007634","8.628833","-3.264673","0.616089","-0.596948","-0.014355","0.013159","-0.145947","-0.159106","-0.556274"
"F","1617445537.93497","7","5","39","-19","-21","-12","0.725403","-0.2854","-0.622864","-0.066284","0","0","0","8.6396","-3.241943","0.600537","-0.586182","0.005981","0","-0.123218","-0.145947","-0.552686"
"F","1617445537.925125","7","4","36","-23","-20","-11","0.725342","-0.285278","-0.622986","-0.066345","-0.007634","0","0","8.646777","-3.185718","0.581396","-0.5802","0.059814","-0.015552","-0.08374","-0.107666","-0.567041"
"F","1617445537.9152656","7","1","38","-22","-18","-16","0.725281","-0.285156","-0.623108","-0.066345","-0.015267","0","0","8.641993","-3.129492","0.545508","-0.586182","0.113647","-0.050244","-0.029907","-0.082544","-0.592163"
"F","1617445537.9052267","7","2","39","-21","-23","-15","0.725281","-0.284973","-0.623169","-0.066406","-0.007634","0","0.007634","8.641993","-3.084033","0.529956","-0.587378","0.155518","-0.065796","0.001196","-0.055029","-0.607715"
"F","1617445537.8952217","7","5","37","-22","-22","-15","0.725281","-0.284729","-0.623291","-0.066467","-0.007634","0","0.007634","8.665918","-3.060107","0.510815","-0.564648","0.174658","-0.084937","0.031104","-0.043066","-0.594556"
"F","1617445537.8851578","7","1","39","-26","-23","-12","0.725281","-0.284607","-0.623352","-0.06665","0","0","0.007634","8.688647","-3.038574","0.514404","-0.544312","0.192603","-0.081348","0.040674","-0.020337","-0.5802"
"F","1617445537.8752012","7","3","36","-23","-24","-13","0.72522","-0.284424","-0.623474","-0.066833","0","0","0.007634","8.730517","-3.024219","0.529956","-0.503638","0.200977","-0.065796","0.039478","0.003589","-0.544312"
"F","1617445537.865105","7","4","36","-23","-21","-16","0.72522","-0.284363","-0.623474","-0.067017","0.007634","-0.007634","0.007634","8.760425","-3.008667","0.546704","-0.474927","0.214136","-0.049048","0.037085","0.029907","-0.520386"
"F","1617445537.8552518","7","2","37","-20","-20","-15","0.72522","-0.284363","-0.623474","-0.067261","0.007634","-0.015267","0.007634","8.759229","-2.991919","0.567041","-0.477319","0.227295","-0.028711","0.025122","0.05144","-0.525171"
"F","1617445537.8450449","7","1","33","-23","-24","-12","0.725342","-0.284302","-0.623291","-0.067566","0","-0.022901","0.007634","8.737696","-2.95603","0.584985","-0.498853","0.259595","-0.015552","0.023926","0.078955","-0.556274"
"F","1617445537.834996","7","2","37","-22","-23","-16","0.725525","-0.28418","-0.623108","-0.067871","0","-0.022901","0.007634","8.73291","-2.903394","0.607715","-0.504834","0.308643","0","0.031104","0.126807","-0.576611"
"F","1617445537.8253114","7","1","35","-23","-20","-15","0.725708","-0.284058","-0.622864","-0.068176","0","-0.022901","0.007634","8.756836","-2.859131","0.642407","-0.482104","0.34812","0.027515","0.029907","0.179443","-0.565845"
"F","1617445537.8152642","7","-1","33","-22","-21","-13","0.725891","-0.283936","-0.622742","-0.068359","0","-0.015267","0.007634","8.809473","-2.832813","0.681885","-0.430664","0.372046","0.062207","0.021533","0.229687","-0.522778"
"F","1617445537.805261","7","3","37","-24","-23","-23","0.725952","-0.283813","-0.622681","-0.068542","0","-0.007634","0.007634","8.877661","-2.816064","0.711792","-0.362476","0.385205","0.089722","0.017944","0.271558","-0.461768"
"F","1617445537.7951572","7","3","37","-23","-23","-16","0.725952","-0.283813","-0.622681","-0.068726","0","-0.007634","0.007634","8.937475","-2.822046","0.717773","-0.303857","0.376831","0.095703","0.021533","0.282324","-0.403149"
"F","1617445537.7852194","7","3","38","-20","-19","-12","0.725891","-0.283936","-0.622742","-0.068787","0.007634","-0.007634","0","8.974561","-2.850757","0.704614","-0.267969","0.349316","0.084937","0.026318","0.263184","-0.361279"
"F","1617445537.7752278","7","3","38","-23","-20","-23","0.725769","-0.28418","-0.622742","-0.068909","0.007634","0","0","9.003271","-2.896216","0.6771","-0.238062","0.305054","0.059814","0.034692","0.221313","-0.319409"
"F","1617445537.7653298","7","1","38","-24","-24","-13","0.725586","-0.284424","-0.622803","-0.06897","0.007634","0","-0.007634","9.028394","-2.934497","0.630444","-0.212939","0.267969","0.017944","0.059814","0.175854","-0.287109"
"F","1617445537.7551088","7","1","36","-24","-23","-13","0.725464","-0.284729","-0.622803","-0.068909","0","0.007634","-0.015267","9.05232","-2.940479","0.574219","-0.187817","0.266772","-0.033496","0.108862","0.155518","-0.265576"
"F","1617445537.7451518","7","0","37","-20","-24","-17","0.725281","-0.284973","-0.622925","-0.068726","-0.007634","0.007634","-0.015267","9.07146","-2.944067","0.529956","-0.16748","0.266772","-0.071777","0.147144","0.141162","-0.248828"
"F","1617445537.7351527","7","4","37","-23","-22","-23","0.72522","-0.285217","-0.622986","-0.06842","-0.015267","0.015267","-0.022901","9.077441","-2.95603","0.483301","-0.160303","0.261987","-0.11604","0.184229","0.117236","-0.244043"
"F","1617445537.7252967","7","4","36","-26","-22","-13","0.725098","-0.2854","-0.623047","-0.067932","-0.015267","0.015267","-0.030534","9.076245","-2.975171","0.433057","-0.15791","0.251221","-0.161499","0.218921","0.086133","-0.240454"
"F","1617445537.715092","7","3","37","-23","-22","-15","0.725037","-0.285645","-0.623108","-0.067322","-0.015267","0.022901","-0.030534","9.060694","-3.014648","0.393579","-0.169873","0.221313","-0.197388","0.234473","0.040674","-0.244043"
"F","1617445537.365937","7","1","35","-21","-22","-15","0.724976","-0.28717","-0.623413","-0.057739","-0.015267","0","0","8.698217","-3.204858","0.543115","-0.484497","0.169873","-0.022729","-0.00957","-0.002393","-0.513208"
"F","1617445537.3555064","7","1","37","-23","-21","-15","0.724976","-0.287048","-0.623474","-0.057678","-0.007634","-0.007634","0","8.685059","-3.212036","0.550293","-0.497656","0.161499","-0.015552","-0.021533","-0.00957","-0.522778"
"F","1617445537.3461294","7","1","35","-26","-21","-15","0.724976","-0.287048","-0.623413","-0.057739","0.007634","-0.007634","0","8.670703","-3.234766","0.563452","-0.512012","0.137573","-0.003589","-0.046655","-0.027515","-0.526367"
"F","1617445537.3358605","7","0","39","-22","-22","-17","0.724976","-0.287109","-0.623413","-0.057861","0.007634","-0.007634","0","8.669507","-3.251514","0.596948","-0.514404","0.120825","0.028711","-0.082544","-0.026318","-0.521582"
"F","1617445537.3260567","7","0","35","-24","-22","-16","0.724976","-0.28717","-0.623352","-0.058044","0.007634","-0.015267","-0.007634","8.652759","-3.25271","0.619678","-0.531152","0.118433","0.05144","-0.10647","-0.021533","-0.534741"
"F","1617445537.3158865","7","1","36","-26","-20","-15","0.724976","-0.287354","-0.62323","-0.058167","0.007634","-0.015267","-0.007634","8.63003","-3.253906","0.618481","-0.552686","0.118433","0.049048","-0.108862","-0.028711","-0.555078"
"F","1617445537.3059678","7","0","36","-26","-21","-17","0.725037","-0.287476","-0.623169","-0.058289","0","-0.015267","-0.007634","8.606104","-3.233569","0.592163","-0.577808","0.13877","0.022729","-0.082544","-0.031104","-0.587378"
"F","1617445537.2959354","7","1","38","-24","-20","-13","0.725037","-0.287537","-0.623108","-0.058411","0","-0.007634","0","8.6073","-3.215625","0.559863","-0.576611","0.156714","-0.00957","-0.046655","-0.0323","-0.594556"
"F","1617445537.2860289","7","-1","37","-24","-24","-17","0.724976","-0.287476","-0.62323","-0.058533","-0.007634","0.007634","0.007634","8.641993","-3.184521","0.540723","-0.543115","0.184229","-0.026318","-0.011963","-0.008374","-0.573022"
"F","1617445537.275937","7","1","35","-26","-22","-23","0.724854","-0.287231","-0.623413","-0.058594","-0.015267","0.007634","0.007634","8.677881","-3.140259","0.509619","-0.508423","0.223706","-0.055029","0.037085","0.019141","-0.556274"
"F","1617445537.2659178","7","2","36","-23","-23","-15","0.724731","-0.286987","-0.623718","-0.058594","-0.022901","0.015267","0.015267","8.71018","-3.097192","0.47373","-0.478516","0.261987","-0.087329","0.088525","0.043066","-0.543115"
"F","1617445537.2560525","7","2","38","-23","-22","-11","0.724609","-0.286621","-0.624023","-0.058472","-0.022901","0.015267","0.015267","8.730517","-3.07207","0.439038","-0.459375","0.282324","-0.118433","0.129199","0.050244","-0.533545"
"F","1617445537.2460268","7","1","37","-24","-25","-23","0.724426","-0.286316","-0.624329","-0.058411","-0.015267","0.015267","0.007634","8.736499","-3.056519","0.417505","-0.455786","0.293091","-0.135181","0.149536","0.052637","-0.534741"
"F","1617445537.2358994","7","1","38","-23","-23","-15","0.724304","-0.286133","-0.624573","-0.058228","-0.015267","0.007634","0","8.730517","-3.067285","0.392383","-0.461768","0.281128","-0.156714","0.161499","0.029907","-0.537134"
"F","1617445537.2259102","7","2","35","-22","-23","-13","0.724304","-0.286011","-0.624695","-0.058105","-0.007634","0","0","8.701807","-3.090015","0.375635","-0.491675","0.258398","-0.172266","0.159106","-0.003589","-0.558667"
"F","1617445537.216252","7","1","37","-23","-22","-13","0.724304","-0.28595","-0.624695","-0.057983","-0.007634","0","-0.007634","8.682666","-3.119922","0.38042","-0.509619","0.228491","-0.16748","0.137573","-0.031104","-0.564648"
"F","1617445537.2059295","7","0","35","-22","-22","-16","0.724365","-0.28595","-0.624695","-0.057861","-0.007634","0","-0.007634","8.676684","-3.164185","0.41272","-0.515601","0.186621","-0.136377","0.090918","-0.05144","-0.555078"
"F","1617445537.1961255","7","2","39","-23","-24","-15","0.724365","-0.28595","-0.624634","-0.0578","0","-0.007634","-0.007634","8.673096","-3.215625","0.458179","-0.517993","0.136377","-0.090918","0.028711","-0.071777","-0.537134"
"F","1617445537.1861122","7","0","36","-25","-24","3","0.724487","-0.286011","-0.624512","-0.057739","-0.007634","-0.007634","-0.007634","8.65874","-3.246728","0.502441","-0.532349","0.107666","-0.050244","-0.021533","-0.080151","-0.53833"
"F","1617445537.1762772","7","1","35","-26","-21","-17","0.724548","-0.286011","-0.62439","-0.057678","-0.007634","-0.015267","-0.015267","8.646777","-3.256299","0.541919","-0.543115","0.099292","-0.011963","-0.061011","-0.071777","-0.543115"
"F","1617445537.1659837","7","0","37","-22","-22","-14","0.72467","-0.286011","-0.624268","-0.057617","-0.007634","-0.015267","-0.015267","8.632421","-3.257495","0.555078","-0.556274","0.099292","-0.002393","-0.072974","-0.070581","-0.555078"
"F","1617445537.1562157","7","0","37","-23","-21","-17","0.724854","-0.28595","-0.624146","-0.057495","-0.015267","-0.015267","-0.015267","8.631226","-3.251514","0.557471","-0.557471","0.10647","-0.004785","-0.068188","-0.065796","-0.558667"
"F","1617445537.1460657","7","1","37","-23","-22","-17","0.724976","-0.285889","-0.624023","-0.057373","-0.015267","-0.007634","-0.007634","8.644384","-3.235962","0.545508","-0.543115","0.124414","-0.020337","-0.043066","-0.055029","-0.552686"
"F","1617445537.1361234","7","1","37","-22","-23","-23","0.725037","-0.285828","-0.623962","-0.057312","-0.015267","-0.007634","0","8.680273","-3.22998","0.521582","-0.507227","0.130396","-0.045459","-0.010767","-0.05144","-0.522778"
"F","1617445537.1260471","7","2","38","-22","-23","-15","0.725037","-0.285645","-0.624023","-0.057251","-0.015267","0","0","8.717359","-3.234766","0.508423","-0.470142","0.123218","-0.058618","0.003589","-0.053833","-0.485693"
"F","1617445537.1161096","7","2","36","-22","-23","-17","0.725037","-0.285461","-0.624146","-0.05719","-0.015267","0","0","8.750854","-3.225195","0.497656","-0.437842","0.131592","-0.069385","0.023926","-0.043066","-0.459375"
"F","1617445537.1062047","7","1","33","-24","-33","-15","0.725037","-0.285339","-0.624207","-0.05719","-0.015267","0","0","8.762817","-3.209644","0.501245","-0.427075","0.144751","-0.065796","0.028711","-0.027515","-0.453394"
"F","1617445537.0962307","7","1","37","-24","-22","-15","0.725098","-0.285217","-0.624268","-0.057129","-0.007634","-0.007634","0","8.744873","-3.190503","0.508423","-0.446216","0.163892","-0.058618","0.027515","-0.013159","-0.477319"
"F","1617445537.0861442","7","3","37","-24","-21","-12","0.725159","-0.285095","-0.624207","-0.057068","-0.007634","-0.007634","-0.007634","8.716162","-3.171362","0.527563","-0.47373","0.181836","-0.04187","0.014355","0.001196","-0.508423"
"F","1617445537.076224","7","0","37","-23","-22","-13","0.725281","-0.285095","-0.624084","-0.057068","0","-0.007634","-0.007634","8.693433","-3.174951","0.550293","-0.49646","0.179443","-0.022729","-0.007178","0.002393","-0.527563"
"F","1617445537.06605","7","2","37","-23","-24","-23","0.725342","-0.285095","-0.624023","-0.057068","0","-0.007634","-0.007634","8.675488","-3.192895","0.573022","-0.514404","0.161499","-0.001196","-0.038281","-0.005981","-0.537134"
"F","1617445537.0559838","7","1","38","-21","-23","-13","0.725342","-0.285156","-0.623962","-0.057129","0","-0.007634","-0.007634","8.662329","-3.20127","0.583789","-0.527563","0.153125","0.007178","-0.05144","-0.013159","-0.546704"
"F","1617445537.046214","7","1","39","-22","-22","-16","0.725342","-0.285217","-0.623901","-0.057251","0","-0.007634","0","8.640796","-3.198877","0.576611","-0.5479","0.155518","0","-0.049048","-0.019141","-0.565845"
"F","1617445537.0362463","7","4","37","-23","-23","-15","0.725403","-0.285217","-0.62384","-0.057312","-0.007634","-0.015267","0","8.634814","-3.177344","0.562256","-0.555078","0.177051","-0.015552","-0.027515","-0.010767","-0.581396"
"F","1617445537.026134","7","1","39","-22","-18","2","0.725464","-0.285095","-0.623779","-0.057312","-0.015267","-0.015267","0","8.640796","-3.141455","0.544312","-0.5479","0.210547","-0.034692","0.003589","0.008374","-0.587378"
"F","1617445537.016048","7","3","39","-21","-24","-23","0.725586","-0.284912","-0.623718","-0.057251","-0.015267","-0.015267","0","8.655151","-3.119922","0.515601","-0.534741","0.230884","-0.066992","0.044263","0.013159","-0.583789"
"F","1617445537.0061677","7","3","37","-22","-21","-16","0.725769","-0.284729","-0.623657","-0.05719","-0.015267","-0.007634","0","8.669507","-3.116333","0.500049","-0.520386","0.234473","-0.087329","0.065796","0.010767","-0.573022"
"F","1617445536.9962344","7","1","40","-24","-22","-12","0.72583","-0.284546","-0.623596","-0.05719","-0.007634","-0.007634","0","8.698217","-3.125903","0.491675","-0.491675","0.22251","-0.098096","0.076563","0.003589","-0.541919"
"F","1617445536.986195","7","1","36","-26","-22","-15","0.725952","-0.284485","-0.623596","-0.05719","-0.007634","-0.007634","0","8.712573","-3.13667","0.503638","-0.478516","0.211743","-0.088525","0.065796","0.002393","-0.526367"
"F","1617445536.975993","7","1","36","-20","-21","-13","0.726013","-0.284363","-0.623474","-0.05719","-0.007634","-0.007634","0","8.707788","-3.148633","0.533545","-0.482104","0.198584","-0.061011","0.035889","0.003589","-0.522778"
"F","1617445536.966174","7","3","39","-20","-23","-15","0.726135","-0.284302","-0.623413","-0.057251","-0.007634","-0.007634","0","8.706592","-3.145044","0.579004","-0.484497","0.200977","-0.019141","0","0.026318","-0.523975"
"F","1617445536.9561908","7","-3","37","-23","-25","-16","0.726257","-0.284241","-0.623291","-0.057251","-0.007634","-0.015267","0","8.693433","-3.131885","0.610107","-0.497656","0.214136","0.007178","-0.019141","0.046655","-0.53833"
"F","1617445536.946014","7","1","39","-22","-23","-23","0.726318","-0.28418","-0.62323","-0.057251","-0.007634","-0.015267","0","8.682666","-3.133081","0.628052","-0.507227","0.212939","0.023926","-0.037085","0.050244","-0.546704"
"F","1617445536.936378","7","1","39","-23","-26","-23","0.726379","-0.284241","-0.623169","-0.057312","0","-0.007634","0","8.689844","-3.161792","0.630444","-0.501245","0.184229","0.023926","-0.047852","0.028711","-0.531152"
"F","1617445536.9259691","7","0","36","-23","-22","-23","0.726379","-0.284302","-0.623108","-0.057434","0.007634","-0.007634","0","8.706592","-3.208447","0.605322","-0.484497","0.137573","0","-0.044263","-0.016748","-0.501245"
"F","1617445536.916168","7","2","39","-21","-22","-17","0.726318","-0.284363","-0.623108","-0.057617","0","-0.007634","0","8.730517","-3.227588","0.563452","-0.460571","0.11604","-0.040674","-0.013159","-0.047852","-0.47373"
"F","1617445536.906063","7","4","37","-21","-21","-23","0.726318","-0.284302","-0.623108","-0.057739","-0.007634","-0.007634","0","8.75205","-3.209644","0.532349","-0.439038","0.131592","-0.072974","0.025122","-0.044263","-0.460571"
"F","1617445536.8962977","7","3","39","-23","-22","-17","0.726379","-0.28418","-0.623169","-0.057739","-0.015267","0","0","8.76521","-3.164185","0.504834","-0.428271","0.175854","-0.100488","0.071777","-0.017944","-0.467749"
"F","1617445536.8862653","7","1","36","-22","-21","-15","0.72644","-0.283936","-0.623169","-0.057617","-0.022901","0","0","8.781958","-3.122314","0.497656","-0.410327","0.216528","-0.110059","0.101685","0.015552","-0.465356"
"F","1617445536.8764317","7","2","37","-22","-21","-16","0.726501","-0.283813","-0.623169","-0.057434","-0.015267","0.007634","0","8.804688","-3.124707","0.50603","-0.387598","0.214136","-0.102881","0.099292","0.022729","-0.442627"
"F","1617445536.8663628","7","3","37","-24","-21","-15","0.72644","-0.283691","-0.623291","-0.057373","-0.007634","0.007634","0","8.836987","-3.172559","0.529956","-0.356494","0.165088","-0.077759","0.062207","0.002393","-0.394775"
"F","1617445536.8562207","7","3","39","-23","-20","-13","0.726379","-0.283691","-0.623413","-0.057312","-0.007634","0.007634","0","8.831006","-3.219214","0.556274","-0.362476","0.118433","-0.049048","0.015552","-0.022729","-0.382812"
"F","1617445536.846257","7","4","37","-23","-21","-15","0.726318","-0.28363","-0.623474","-0.057312","-0.015267","0","0","8.789136","-3.22041","0.559863","-0.404346","0.11604","-0.044263","0.001196","-0.033496","-0.421094"
"F","1617445536.8363292","7","2","36","-20","-26","-40","0.726379","-0.283447","-0.623535","-0.057251","-0.015267","0","-0.007634","8.748462","-3.177344","0.575415","-0.446216","0.15791","-0.028711","-0.001196","-0.002393","-0.47373"
"F","1617445536.8261666","7","1","36","-20","-24","-15","0.72644","-0.283264","-0.623535","-0.057129","-0.022901","0","-0.007634","8.716162","-3.129492","0.588574","-0.478516","0.204565","-0.017944","0.001196","0.0323","-0.519189"
"F","1617445536.8160863","7","1","36","-22","-24","-13","0.72644","-0.283203","-0.623596","-0.056885","-0.007634","0","-0.007634","8.68147","-3.110352","0.575415","-0.512012","0.226099","-0.029907","0.013159","0.034692","-0.558667"
"F","1617445536.8063478","7","3","35","-22","-24","-15","0.72644","-0.283325","-0.623535","-0.056763","0.007634","0","-0.007634","8.65874","-3.154614","0.539526","-0.533545","0.185425","-0.065796","0.022729","-0.021533","-0.567041"
"F","1617445536.7962728","7","-1","36","-22","-21","-13","0.726318","-0.28363","-0.623535","-0.056763","0.015267","0.007634","-0.007634","8.66831","-3.235962","0.49646","-0.522778","0.107666","-0.105273","0.025122","-0.102881","-0.533545"
"F","1617445536.7861707","7","0","38","-22","-22","-15","0.726196","-0.283875","-0.623596","-0.056946","0.007634","0.007634","-0.007634","8.704199","-3.296973","0.48689","-0.488086","0.046655","-0.111255","0.011963","-0.147144","-0.479712"
"F","1617445536.7761292","7","1","37","-23","-22","-23","0.726074","-0.283875","-0.623657","-0.057068","-0.007634","0","0","8.718554","-3.289795","0.504834","-0.47373","0.05144","-0.090918","0","-0.129199","-0.466553"
"F","1617445536.7663827","7","3","39","-21","-25","-13","0.726135","-0.283691","-0.623718","-0.057007","-0.030534","0","-0.007634","8.719751","-3.228784","0.545508","-0.47373","0.111255","-0.05144","-0.008374","-0.059814","-0.484497"
"F","1617445536.7570317","7","3","39","-21","-21","-16","0.726257","-0.283325","-0.623779","-0.056763","-0.038168","-0.007634","-0.007634","8.708984","-3.158203","0.5802","-0.484497","0.18064","-0.020337","-0.007178","0.008374","-0.516797"
"F","1617445536.7469168","7","4","37","-21","-21","-15","0.72644","-0.282959","-0.623718","-0.056396","-0.038168","-0.007634","-0.007634","8.698217","-3.118726","0.613696","-0.494067","0.220117","0.007178","-0.016748","0.052637","-0.537134"
"F","1617445536.736393","7","0","36","-22","-22","-13","0.726562","-0.282776","-0.623718","-0.055969","-0.015267","-0.007634","-0.015267","8.686255","-3.139062","0.635229","-0.50603","0.203369","0.026318","-0.043066","0.044263","-0.541919"
"F","1617445536.7262206","7","-1","38","-23","-18","-13","0.726624","-0.282837","-0.623596","-0.055786","0","-0.007634","-0.015267","8.674292","-3.21084","0.620874","-0.515601","0.135181","0.010767","-0.061011","-0.021533","-0.52876"
"F","1617445536.7162898","7","0","37","-23","-22","-16","0.726624","-0.28302","-0.623535","-0.055725","0.007634","0","-0.007634","8.675488","-3.283813","0.610107","-0.513208","0.065796","0","-0.081348","-0.08374","-0.503638"
"F","1617445536.706929","7","2","37","-20","-21","-16","0.726562","-0.283203","-0.623596","-0.055786","0.007634","0","-0.007634","8.689844","-3.308936","0.617285","-0.500049","0.04187","0.00957","-0.098096","-0.095703","-0.482104"
"F","1617445536.6969695","7","1","38","-27","-24","-15","0.726501","-0.283203","-0.623596","-0.055908","-0.007634","-0.007634","-0.007634","8.664721","-3.27544","0.608911","-0.525171","0.072974","0.002393","-0.08374","-0.080151","-0.516797"
"F","1617445536.6861358","7","1","37","-23","-24","-15","0.726562","-0.283142","-0.623596","-0.055908","-0.015267","-0.007634","-0.007634","8.647974","-3.212036","0.606519","-0.541919","0.136377","0","-0.057422","-0.033496","-0.553882"
"F","1617445536.6763487","7","3","37","-23","-18","-50","0.726624","-0.282959","-0.623535","-0.055847","-0.015267","-0.007634","0","8.63003","-3.151025","0.593359","-0.559863","0.196191","-0.015552","-0.021533","0.003589","-0.592163"
"F","1617445536.666107","7","0","37","-22","-24","-23","0.726746","-0.282776","-0.623535","-0.055725","-0.015267","-0.007634","0","8.625244","-3.110352","0.583789","-0.564648","0.235669","-0.028711","0.004785","0.028711","-0.611304"
"F","1617445536.656355","7","4","37","-23","-26","-13","0.726807","-0.282654","-0.623535","-0.055725","-0.007634","0","0","8.64917","-3.098389","0.573022","-0.541919","0.246436","-0.040674","0.025122","0.038281","-0.594556"
"F","1617445536.6461425","7","3","40","-22","-24","-15","0.726746","-0.282593","-0.623596","-0.055725","0","0","0","8.682666","-3.101978","0.573022","-0.508423","0.24165","-0.039478","0.028711","0.044263","-0.56106"
"F","1617445536.6370213","7","4","36","-24","-21","-15","0.726685","-0.282593","-0.623657","-0.055725","0.007634","0","0","8.703003","-3.116333","0.567041","-0.488086","0.227295","-0.043066","0.029907","0.035889","-0.537134"
"F","1617445536.626357","7","3","39","-22","-16","-12","0.726562","-0.282776","-0.623718","-0.055786","0.007634","0.007634","0","8.704199","-3.152222","0.549097","-0.48689","0.192603","-0.058618","0.028711","0","-0.525171"
"F","1617445536.6163256","7","2","38","-21","-24","-15","0.72644","-0.282959","-0.623779","-0.055847","0.015267","0.007634","-0.007634","8.712573","-3.189307","0.535937","-0.478516","0.156714","-0.068188","0.023926","-0.031104","-0.50603"
"F","1617445536.606038","7","3","39","-19","-21","-13","0.726257","-0.283142","-0.623901","-0.055969","0.007634","0.007634","0","8.716162","-3.208447","0.534741","-0.474927","0.136377","-0.0646","0.013159","-0.045459","-0.495264"
"F","1617445536.5968804","7","1","40","-22","-22","-15","0.726135","-0.283203","-0.624023","-0.05603","-0.007634","0","0","8.704199","-3.191699","0.533545","-0.48689","0.153125","-0.062207","0.015552","-0.034692","-0.512012"
"F","1617445536.5869465","7","1","37","-22","-24","-15","0.726074","-0.283081","-0.624084","-0.05603","-0.015267","0","0","8.697021","-3.147437","0.535937","-0.494067","0.194995","-0.058618","0.029907","0","-0.532349"
"F","1617445536.576414","7","1","35","-24","-23","-15","0.726135","-0.282898","-0.624146","-0.055908","-0.022901","-0.007634","0","8.694629","-3.092407","0.525171","-0.497656","0.248828","-0.070581","0.062207","0.037085","-0.555078"
"F","1617445536.5663142","7","3","39","-27","-26","-13","0.726257","-0.282654","-0.624146","-0.055786","-0.022901","-0.007634","0","8.689844","-3.054126","0.510815","-0.503638","0.285913","-0.087329","0.092114","0.058618","-0.574219"
"F","1617445536.55631","7","3","37","-19","-20","-12","0.726379","-0.282532","-0.624084","-0.055603","-0.015267","-0.007634","0","8.689844","-3.048145","0.501245","-0.502441","0.293091","-0.100488","0.10647","0.058618","-0.576611"
"F","1617445536.5462613","7","2","35","-22","-22","-15","0.72644","-0.282471","-0.624023","-0.055542","0","0","0","8.714966","-3.078052","0.490479","-0.477319","0.26438","-0.112451","0.110059","0.035889","-0.544312"
"F","1617445536.5369956","7","0","40","-20","-22","-15","0.726379","-0.282593","-0.624023","-0.055542","0.007634","0","0","8.75564","-3.125903","0.491675","-0.435449","0.217725","-0.110059","0.096899","0.00957","-0.489282"
"F","1617445536.5268962","7","3","35","-22","-23","-16","0.726257","-0.282776","-0.624084","-0.055603","0.015267","0","-0.007634","8.783154","-3.195288","0.489282","-0.407935","0.149536","-0.108862","0.071777","-0.038281","-0.440234"
"F","1617445536.5170083","7","2","38","-22","-23","-12","0.726135","-0.283081","-0.624084","-0.055725","0.015267","0","-0.007634","8.791529","-3.26228","0.482104","-0.399561","0.084937","-0.112451","0.049048","-0.090918","-0.410327"
"F","1617445536.5068257","7","-1","33","-24","-23","-23","0.726074","-0.283325","-0.624023","-0.055847","0.007634","-0.007634","-0.015267","8.768799","-3.282617","0.47373","-0.421094","0.065796","-0.119629","0.04187","-0.117236","-0.423486"
"F","1617445536.4970443","7","1","37","-24","-23","-15","0.726074","-0.283508","-0.623962","-0.055908","0","-0.015267","-0.015267","8.73291","-3.269458","0.47373","-0.456982","0.081348","-0.119629","0.040674","-0.113647","-0.462964"
"F","1617445536.487034","7","3","37","-23","-22","-12","0.726257","-0.283569","-0.623779","-0.055847","-0.015267","-0.015267","-0.015267","8.695826","-3.234766","0.47373","-0.492871","0.118433","-0.124414","0.053833","-0.094507","-0.509619"
"F","1617445536.4769173","7","3","37","-27","-22","-13","0.72644","-0.283447","-0.623596","-0.055725","-0.022901","-0.015267","-0.007634","8.682666","-3.191699","0.485693","-0.504834","0.162695","-0.117236","0.063403","-0.057422","-0.535937"
"F","1617445536.4670694","7","2","37","-22","-26","-16","0.726685","-0.283142","-0.623413","-0.055542","-0.030534","-0.015267","-0.007634","8.694629","-3.148633","0.512012","-0.492871","0.204565","-0.098096","0.066992","-0.010767","-0.537134"
"F","1617445536.456998","7","3","39","-22","-21","-16","0.726929","-0.282837","-0.623352","-0.055298","-0.030534","-0.007634","0","8.699414","-3.105567","0.545508","-0.488086","0.247632","-0.070581","0.062207","0.039478","-0.546704"
"F","1617445536.4470313","7","1","37","-21","-22","-23","0.727112","-0.282532","-0.623291","-0.055054","-0.022901","-0.007634","0","8.705396","-3.100781","0.574219","-0.482104","0.252417","-0.046655","0.044263","0.056226","-0.540723"
"F","1617445536.4370055","7","1","36","-22","-20","-15","0.727173","-0.282349","-0.623291","-0.054932","-0.007634","0","0","8.70061","-3.133081","0.583789","-0.48689","0.218921","-0.038281","0.021533","0.031104","-0.533545"
"F","1617445536.4270043","7","2","35","-24","-22","-16","0.727173","-0.282349","-0.623291","-0.054871","0","-0.007634","0","8.688647","-3.185718","0.586182","-0.497656","0.16748","-0.035889","-0.003589","-0.011963","-0.525171"
"F","1617445536.4171505","7","0","39","-22","-22","-13","0.727173","-0.28241","-0.62323","-0.054993","0.007634","-0.007634","-0.007634","8.665918","-3.216821","0.608911","-0.520386","0.136377","-0.014355","-0.040674","-0.033496","-0.534741"
"F","1617445536.4070065","7","2","37","-26","-21","-17","0.727173","-0.282532","-0.623169","-0.055054","0","-0.007634","-0.007634","8.650366","-3.22041","0.640015","-0.535937","0.132788","0.015552","-0.071777","-0.027515","-0.546704"
"F","1617445536.3970394","7","1","37","-22","-24","-23","0.727234","-0.282593","-0.623108","-0.055115","0","-0.007634","-0.007634","8.633618","-3.221606","0.653174","-0.552686","0.132788","0.027515","-0.086133","-0.026318","-0.56106"
"F","1617445536.3872206","7","4","41","-23","-22","-13","0.727295","-0.282593","-0.623047","-0.055115","-0.007634","-0.007634","-0.007634","8.643188","-3.222803","0.661548","-0.543115","0.131592","0.034692","-0.090918","-0.020337","-0.551489"
"F","1617445536.3770812","7","2","36","-26","-23","-12","0.727295","-0.282593","-0.622986","-0.055054","-0.007634","-0.007634","-0.007634","8.644384","-3.221606","0.668726","-0.540723","0.133984","0.040674","-0.094507","-0.015552","-0.549097"
"F","1617445536.3671107","7","3","37","-23","-22","-16","0.727356","-0.282532","-0.622986","-0.054993","-0.007634","-0.007634","-0.007634","8.643188","-3.22041","0.651978","-0.541919","0.135181","0.022729","-0.078955","-0.022729","-0.552686"
"F","1617445536.3570683","7","3","33","-23","-19","-16","0.727356","-0.282532","-0.622986","-0.054871","-0.007634","0","-0.007634","8.655151","-3.223999","0.623267","-0.529956","0.132788","-0.004785","-0.053833","-0.034692","-0.541919"
"F","1617445536.3470814","7","3","37","-22","-21","-15","0.727295","-0.282593","-0.623047","-0.05481","0","0.007634","-0.007634","8.679077","-3.238354","0.598145","-0.504834","0.119629","-0.027515","-0.033496","-0.050244","-0.515601"
"F","1617445536.3369513","7","3","37","-24","-22","-12","0.727173","-0.282654","-0.623169","-0.054688","0","0.015267","-0.007634","8.71018","-3.268262","0.596948","-0.47373","0.092114","-0.025122","-0.040674","-0.063403","-0.476123"
"F","1617445536.3272114","7","1","39","-22","-22","-15","0.72699","-0.282776","-0.623352","-0.054688","0","0.007634","-0.007634","8.708984","-3.295776","0.582593","-0.476123","0.0646","-0.033496","-0.045459","-0.092114","-0.470142"
"F","1617445536.3172176","7","-1","39","-22","-23","-13","0.726868","-0.282837","-0.623474","-0.054688","-0.007634","0","-0.007634","8.663526","-3.287402","0.552686","-0.521582","0.072974","-0.059814","-0.028711","-0.110059","-0.516797"
"F","1617445536.3070557","7","3","40","-22","-24","-15","0.726807","-0.282776","-0.623535","-0.054688","-0.007634","0","0","8.622851","-3.247925","0.535937","-0.562256","0.111255","-0.075366","-0.007178","-0.096899","-0.569434"
"F","1617445536.2971356","7","-3","37","-22","-21","-32","0.726807","-0.282593","-0.623596","-0.054626","-0.015267","-0.007634","0","8.600122","-3.196484","0.521582","-0.584985","0.160303","-0.090918","0.021533","-0.069385","-0.608911"
"F","1617445536.2871735","7","3","40","-22","-20","-16","0.726929","-0.28241","-0.623596","-0.054565","-0.015267","-0.007634","0","8.573804","-3.137866","0.501245","-0.6125","0.218921","-0.113647","0.061011","-0.038281","-0.655566"
"F","1617445536.2771366","7","1","37","-26","-20","-13","0.72699","-0.282227","-0.623657","-0.054565","-0.007634","0","0.007634","8.571411","-3.11394","0.485693","-0.616089","0.240454","-0.130396","0.08374","-0.028711","-0.667529"
"F","1617445536.2671604","7","0","38","-22","-21","-12","0.726929","-0.282043","-0.623718","-0.054565","0","0.007634","0.007634","8.609693","-3.131885","0.490479","-0.577808","0.218921","-0.124414","0.077759","-0.033496","-0.623267"
"F","1617445536.2571588","7","3","37","-24","-25","-13","0.726807","-0.281982","-0.62384","-0.054688","0.007634","0.007634","0.007634","8.665918","-3.170166","0.498853","-0.522778","0.177051","-0.113647","0.062207","-0.047852","-0.557471"
"F","1617445536.2469788","7","2","36","-23","-23","-14","0.726746","-0.281982","-0.623962","-0.054871","0.007634","-0.007634","0.007634","8.675488","-3.192895","0.514404","-0.515601","0.151929","-0.095703","0.038281","-0.058618","-0.540723"
"F","1617445536.2373347","7","2","37","-22","-28","-13","0.726746","-0.282043","-0.623962","-0.055115","0","-0.015267","0","8.656347","-3.186914","0.516797","-0.535937","0.155518","-0.093311","0.033496","-0.059814","-0.56106"
"F","1617445536.2272146","7","0","38","-25","-24","-15","0.726868","-0.281982","-0.623779","-0.055298","0","-0.022901","0","8.662329","-3.158203","0.544312","-0.529956","0.181836","-0.070581","0.025122","-0.025122","-0.563452"
"F","1617445536.217039","7","2","39","-19","-22","-15","0.727051","-0.28186","-0.623596","-0.055481","-0.007634","-0.022901","0","8.662329","-3.1271","0.56106","-0.529956","0.210547","-0.059814","0.028711","0.003589","-0.571826"
"F","1617445536.2070131","7","3","40","-24","-21","-17","0.727295","-0.281799","-0.623352","-0.055603","-0.007634","-0.022901","0","8.667114","-3.105567","0.569434","-0.525171","0.23208","-0.057422","0.035889","0.023926","-0.574219"
"F","1617445536.1971738","7","1","39","-20","-23","-12","0.727478","-0.281738","-0.623108","-0.055725","0","-0.022901","0","8.687451","-3.11394","0.575415","-0.504834","0.22251","-0.057422","0.035889","0.021533","-0.552686"
"F","1617445536.187021","7","1","37","-22","-22","-15","0.727661","-0.281616","-0.622986","-0.055847","-0.007634","-0.015267","0.007634","8.754443","-3.140259","0.593359","-0.437842","0.193799","-0.045459","0.027515","0.021533","-0.478516"
"F","1617445536.1770732","7","3","39","-23","-21","-15","0.727783","-0.281494","-0.622925","-0.055969","-0.007634","-0.015267","0.007634","8.817846","-3.164185","0.624463","-0.375635","0.16748","-0.016748","0.004785","0.029907","-0.410327"
"F","1617445536.1672974","7","4","37","-22","-23","-15","0.727844","-0.281372","-0.622864","-0.05603","-0.015267","-0.015267","0","8.838183","-3.161792","0.625659","-0.355298","0.16748","-0.017944","0.00957","0.034692","-0.391187"
"F","1617445536.157171","7","0","38","-24","-20","-15","0.728027","-0.281189","-0.622742","-0.05603","-0.015267","-0.015267","0","8.831006","-3.160596","0.626855","-0.363672","0.16748","-0.022729","0.011963","0.031104","-0.399561"
"F","1617445536.1471317","7","1","38","-22","-22","-12","0.728149","-0.281128","-0.62262","-0.055969","-0.007634","-0.015267","-0.007634","8.811865","-3.1594","0.629248","-0.381616","0.168677","-0.022729","0.008374","0.027515","-0.416309"
"F","1617445536.1370914","7","3","37","-22","-23","-15","0.728333","-0.281067","-0.622437","-0.055908","-0.007634","-0.015267","-0.007634","8.802295","-3.171362","0.635229","-0.38999","0.15791","-0.022729","0.002393","0.015552","-0.419897"
"F","1617445536.1272523","7","3","37","-22","-23","-15","0.728394","-0.281006","-0.622375","-0.055847","-0.007634","-0.007634","-0.007634","8.804688","-3.200073","0.650781","-0.387598","0.130396","-0.008374","-0.020337","0","-0.407935"
"F","1617445536.1171694","7","1","35","-23","-24","-15","0.728516","-0.280945","-0.622314","-0.055847","-0.007634","-0.007634","-0.007634","8.808276","-3.212036","0.674707","-0.385205","0.117236","0.010767","-0.043066","0","-0.399561"
"F","1617445536.1071403","7","0","36","-22","-22","-13","0.728577","-0.280884","-0.622253","-0.055725","-0.015267","-0.007634","-0.007634","8.78435","-3.197681","0.701025","-0.407935","0.132788","0.035889","-0.063403","0.017944","-0.424683"
"F","1617445536.0972738","7","0","40","-24","-22","-23","0.728577","-0.280823","-0.622253","-0.055664","-0.007634","-0.007634","-0.007634","8.758032","-3.183325","0.711792","-0.433057","0.147144","0.046655","-0.071777","0.028711","-0.452197"
"F","1617445536.0870464","7","2","36","-24","-24","-17","0.728638","-0.280823","-0.622192","-0.055542","-0.007634","0","-0.007634","8.730517","-3.180933","0.709399","-0.460571","0.151929","0.04187","-0.071777","0.022729","-0.479712"
"F","1617445536.0771046","7","2","33","-24","-24","-12","0.728577","-0.280884","-0.622253","-0.05542","-0.007634","0","-0.007634","8.718554","-3.182129","0.703418","-0.471338","0.151929","0.038281","-0.070581","0.017944","-0.490479"
"F","1617445536.0671897","7","-1","37","-26","-22","-16","0.728516","-0.280945","-0.622314","-0.055298","-0.007634","0","-0.007634","8.711377","-3.183325","0.690259","-0.478516","0.153125","0.027515","-0.062207","0.011963","-0.498853"
"F","1617445536.057237","7","1","37","-21","27","-23","0.728516","-0.280945","-0.622375","-0.055237","-0.007634","0","-0.007634","8.705396","-3.184521","0.675903","-0.484497","0.153125","0.014355","-0.052637","0.003589","-0.504834"
"F","1617445536.04732","7","-1","37","-21","-24","-13","0.728455","-0.281006","-0.622437","-0.055115","0","0","-0.007634","8.687451","-3.184521","0.659155","-0.502441","0.154321","0","-0.043066","-0.005981","-0.522778"
"F","1617445536.0371127","7","0","37","-23","-21","-12","0.728333","-0.281128","-0.622498","-0.054993","0","0.007634","-0.007634","8.675488","-3.197681","0.634033","-0.513208","0.143555","-0.021533","-0.031104","-0.028711","-0.531152"
"F","1617445536.027284","7","2","36","-26","-22","-23","0.72821","-0.28125","-0.62262","-0.054993","0","0.007634","-0.007634","8.680273","-3.22041","0.60293","-0.508423","0.122021","-0.049048","-0.015552","-0.058618","-0.521582"
"F","1617445536.0173466","7","2","38","-23","-22","-15","0.728027","-0.28125","-0.622742","-0.054932","-0.007634","0.015267","-0.007634","8.698217","-3.216821","0.586182","-0.490479","0.12561","-0.061011","0","-0.056226","-0.50603"
"F","1617445536.0072083","7","1","37","-19","-20","-13","0.727905","-0.281189","-0.622925","-0.054871","-0.015267","0.007634","0","8.704199","-3.179736","0.586182","-0.484497","0.161499","-0.057422","0.013159","-0.022729","-0.512012"
"F","1617445535.9972427","7","1","36","-23","-26","-9","0.727844","-0.281067","-0.623108","-0.054688","-0.015267","0.007634","0","8.699414","-3.139062","0.594556","-0.490479","0.202173","-0.046655","0.020337","0.013159","-0.531152"
"F","1617445535.987645","7","3","36","-22","-22","-14","0.727783","-0.280945","-0.62323","-0.054565","-0.015267","0","0","8.673096","-3.118726","0.599341","-0.516797","0.221313","-0.039478","0.016748","0.025122","-0.562256"
"F","1617445535.9771843","7","1","37","-22","-20","-11","0.727783","-0.280823","-0.623291","-0.054443","-0.007634","-0.007634","0","8.634814","-3.115137","0.577808","-0.555078","0.224902","-0.061011","0.028711","0.008374","-0.600537"
"F","1617445535.9673252","7","0","37","-26","-24","-16","0.727844","-0.280762","-0.623291","-0.054382","-0.007634","-0.007634","0","8.620459","-3.107959","0.57063","-0.569434","0.23208","-0.069385","0.035889","0.005981","-0.617285"
"F","1617445535.9572742","7","3","36","-22","-21","-13","0.727905","-0.28064","-0.623291","-0.054321","-0.007634","-0.007634","0","8.631226","-3.103174","0.573022","-0.559863","0.236865","-0.068188","0.039478","0.013159","-0.610107"
"F","1617445535.947183","7","1","36","-24","-22","-15","0.727905","-0.28064","-0.62323","-0.054321","0","0","-0.007634","8.633618","-3.110352","0.571826","-0.556274","0.229687","-0.070581","0.039478","0.007178","-0.604126"
"F","1617445535.9371445","7","3","40","-23","-24","-16","0.727844","-0.280762","-0.62323","-0.054321","0.007634","0","-0.007634","8.645581","-3.143848","0.563452","-0.543115","0.197388","-0.077759","0.034692","-0.017944","-0.581396"
"F","1617445535.927619","7","1","37","-24","-20","-15","0.727783","-0.280945","-0.62323","-0.054382","0.015267","0","-0.007634","8.6719","-3.197681","0.550293","-0.516797","0.144751","-0.088525","0.026318","-0.061011","-0.539526"
"F","1617445535.9173632","7","1","40","-20","-24","-16","0.727661","-0.281189","-0.623291","-0.054504","0.015267","0","-0.007634","8.701807","-3.250317","0.5479","-0.48689","0.093311","-0.087329","0.010767","-0.095703","-0.494067"
"F","1617445535.9079895","7","1","38","-20","-22","-11","0.727539","-0.281372","-0.623352","-0.054688","0.007634","0","-0.007634","8.725733","-3.261084","0.549097","-0.46416","0.082544","-0.082544","0.005981","-0.095703","-0.467749"
"F","1617445535.897287","7","1","38","-22","-21","-14","0.727539","-0.281433","-0.623291","-0.054749","-0.007634","-0.007634","-0.007634","8.719751","-3.233569","0.556274","-0.470142","0.110059","-0.076563","0.011963","-0.071777","-0.483301"
"F","1617445535.887541","7","1","38","-21","-23","-12","0.727661","-0.281311","-0.623169","-0.05481","-0.015267","-0.022901","-0.007634","8.687451","-3.184521","0.559863","-0.502441","0.15791","-0.076563","0.025122","-0.040674","-0.529956"
"F","1617445535.8769915","7","1","37","-17","-21","-14","0.727905","-0.281189","-0.622986","-0.05481","-0.015267","-0.022901","0","8.65874","-3.134277","0.571826","-0.531152","0.208154","-0.070581","0.034692","-0.002393","-0.573022"
"F","1617445535.4781232","7","1","36","-22","-21","-13","0.728516","-0.279663","-0.623291","-0.051453","0.007634","0.007634","0","8.685059","-3.079248","0.581396","-0.49646","0.284717","-0.071777","0.075366","0.068188","-0.567041"
"F","1617445535.46814","7","3","36","-22","-24","-16","0.728271","-0.279907","-0.623413","-0.051514","0.022901","0.015267","-0.007634","8.708984","-3.139062","0.531152","-0.471338","0.226099","-0.11604","0.094507","0.004785","-0.526367"
"F","1617445535.4581122","7","-1","35","-23","-25","-23","0.727966","-0.280334","-0.623535","-0.051575","0.030534","0.007634","-0.015267","8.734106","-3.202466","0.482104","-0.44502","0.166284","-0.156714","0.111255","-0.056226","-0.483301"
"F","1617445535.4480696","7","2","37","-21","-22","-15","0.727722","-0.280884","-0.623657","-0.051758","0.038168","0.015267","-0.015267","8.736499","-3.280225","0.423486","-0.443823","0.093311","-0.206958","0.124414","-0.141162","-0.460571"
"F","1617445535.4380436","7","-3","34","-24","-23","-16","0.727417","-0.281433","-0.623718","-0.051941","0.030534","0.015267","-0.007634","8.758032","-3.349609","0.395972","-0.419897","0.027515","-0.227295","0.119629","-0.19978","-0.416309"
"F","1617445535.4280548","7","0","36","-23","-23","-12","0.727112","-0.28186","-0.62384","-0.052185","0.022901","0.015267","-0.007634","8.787939","-3.396265","0.384009","-0.38999","-0.016748","-0.230884","0.110059","-0.230884","-0.373242"
"F","1617445535.4178977","7","1","36","-22","-23","-16","0.726868","-0.282104","-0.624023","-0.052368","0.007634","0.015267","0","8.792725","-3.396265","0.393579","-0.386401","-0.016748","-0.214136","0.096899","-0.221313","-0.368457"
"F","1617445535.4081569","7","4","35","-22","-22","-12","0.726685","-0.282043","-0.624146","-0.052551","-0.007634","0.007634","0","8.781958","-3.357983","0.418701","-0.397168","0.015552","-0.185425","0.08374","-0.184229","-0.388794"
"F","1617445535.3979526","7","-3","33","-27","-24","-13","0.726685","-0.281799","-0.624329","-0.052551","-0.015267","0.007634","0.007634","8.769995","-3.298169","0.47373","-0.411523","0.071777","-0.129199","0.055029","-0.113647","-0.417505"
"F","1617445535.3879542","7","0","37","-22","3","-23","0.726685","-0.281494","-0.624451","-0.05249","-0.022901","0.007634","0.007634","8.758032","-3.232373","0.525171","-0.424683","0.133984","-0.078955","0.034692","-0.04187","-0.448608"
"F","1617445535.3781433","7","0","37","-23","-21","-11","0.726746","-0.281067","-0.624573","-0.052368","-0.030534","0","0.007634","8.74248","-3.176147","0.576611","-0.441431","0.185425","-0.028711","0.00957","0.019141","-0.478516"
"F","1617445535.3680944","7","22","37","-23","-24","-17","0.726868","-0.280762","-0.624634","-0.052246","-0.022901","-0.007634","0","8.718554","-3.148633","0.618481","-0.467749","0.210547","0.00957","-0.017944","0.05144","-0.509619"
"F","1617445535.3579893","7","-1","36","-23","-22","-7","0.72699","-0.280518","-0.624573","-0.052124","-0.015267","-0.007634","0","8.703003","-3.139062","0.661548","-0.482104","0.218921","0.049048","-0.052637","0.072974","-0.522778"
"F","1617445535.3481","7","1","37","-23","-24","-15","0.72699","-0.280457","-0.624573","-0.052002","0","-0.007634","-0.007634","8.697021","-3.151025","0.691455","-0.488086","0.208154","0.078955","-0.084937","0.076563","-0.522778"
"F","1617445535.3381715","7","2","37","-21","-25","-15","0.72699","-0.280579","-0.624573","-0.052002","0.007634","-0.007634","-0.007634","8.703003","-3.202466","0.681885","-0.482104","0.15791","0.069385","-0.096899","0.0323","-0.501245"
"F","1617445535.328235","7","0","36","-24","-22","-16","0.726868","-0.280884","-0.624512","-0.052063","0.022901","0","-0.015267","8.717359","-3.267066","0.656763","-0.465356","0.096899","0.046655","-0.099292","-0.023926","-0.465356"
"F","1617445535.3180676","7","-1","41","-25","-25","-23","0.726685","-0.28125","-0.624573","-0.052185","0.022901","0.007634","-0.015267","8.734106","-3.302954","0.632837","-0.448608","0.063403","0.028711","-0.093311","-0.056226","-0.440234"
"F","1617445535.3081388","7","0","33","10","-26","-17","0.726501","-0.281616","-0.624634","-0.052307","0.015267","0.007634","-0.007634","8.749659","-3.316113","0.607715","-0.433057","0.052637","0.008374","-0.076563","-0.070581","-0.42229"
"F","1617445535.298268","7","1","37","-26","-22","-14","0.726257","-0.28186","-0.624756","-0.052429","0.007634","0","-0.007634","8.749659","-3.300561","0.569434","-0.433057","0.069385","-0.022729","-0.04187","-0.071777","-0.430664"
"F","1617445535.2882073","7","0","37","-23","-23","-16","0.726196","-0.281921","-0.624878","-0.052551","-0.007634","0","0","8.734106","-3.244336","0.539526","-0.449805","0.124414","-0.049048","0","-0.043066","-0.466553"
"F","1617445535.2780776","7","3","35","-26","-24","-17","0.726135","-0.281799","-0.624939","-0.052551","-0.022901","0","0","8.720947","-3.166577","0.532349","-0.462964","0.19978","-0.056226","0.035889","0.011963","-0.504834"
"F","1617445535.2682192","7","2","37","-23","-66","27","0.726196","-0.281494","-0.625","-0.052429","-0.022901","0","0","8.699414","-3.069678","0.531152","-0.485693","0.294287","-0.058618","0.072974","0.08374","-0.558667"
"F","1617445535.2582424","7","1","33","-23","-23","-14","0.726257","-0.281311","-0.625122","-0.052246","-0.015267","0.007634","-0.007634","8.685059","-3.007471","0.52876","-0.501245","0.356494","-0.061011","0.098096","0.130396","-0.595752"
"F","1617445535.2479606","7","0","36","-26","-24","-16","0.726135","-0.28125","-0.625244","-0.052002","0","0.015267","-0.007634","8.704199","-3.013452","0.515601","-0.480908","0.351709","-0.071777","0.110059","0.126807","-0.575415"
"F","1617445535.238114","7","0","37","-23","-23","-15","0.725952","-0.281494","-0.625366","-0.051819","0.022901","0.015267","-0.007634","8.743677","-3.080444","0.50603","-0.440234","0.289502","-0.075366","0.095703","0.08374","-0.515601"
"F","1617445535.2279997","7","0","37","-24","-20","-16","0.725647","-0.281982","-0.625549","-0.05188","0.038168","0.015267","-0.015267","8.759229","-3.179736","0.491675","-0.423486","0.193799","-0.080151","0.063403","0.005981","-0.467749"
"F","1617445535.2181983","7","-1","35","-26","-25","-23","0.725281","-0.282593","-0.62561","-0.052002","0.038168","0","-0.015267","8.738892","-3.26228","0.468945","-0.441431","0.117236","-0.093311","0.038281","-0.068188","-0.458179"
"F","1617445535.2081263","7","2","36","-24","-21","-14","0.725098","-0.283203","-0.625549","-0.052246","0.030534","-0.007634","-0.015267","8.693433","-3.301758","0.441431","-0.485693","0.081348","-0.11604","0.033496","-0.122021","-0.489282"
"F","1617445535.198102","7","1","35","-22","-26","-16","0.725037","-0.28363","-0.625427","-0.052429","0.007634","-0.015267","-0.015267","8.650366","-3.299365","0.42229","-0.52876","0.088525","-0.133984","0.043066","-0.136377","-0.532349"
"F","1617445535.1881046","7","-1","36","-26","-24","-17","0.725159","-0.283813","-0.625183","-0.05249","-0.015267","-0.015267","-0.015267","8.624048","-3.239551","0.428271","-0.552686","0.150732","-0.131592","0.062207","-0.090918","-0.576611"
"F","1617445535.178077","7","2","37","-22","-25","-15","0.725403","-0.283691","-0.625","-0.052307","-0.030534","-0.015267","-0.015267","8.609693","-3.147437","0.440234","-0.567041","0.245239","-0.12561","0.094507","-0.013159","-0.62207"
"F","1617445535.168228","7","2","36","-23","-23","-15","0.725708","-0.283386","-0.624817","-0.051941","-0.045802","-0.015267","-0.015267","8.603711","-3.054126","0.460571","-0.571826","0.339746","-0.113647","0.123218","0.069385","-0.659155"
"F","1617445535.1581926","7","0","36","-23","-24","-19","0.726013","-0.28302","-0.624634","-0.051453","-0.045802","-0.007634","-0.015267","8.606104","-2.993115","0.470142","-0.567041","0.403149","-0.112451","0.149536","0.124414","-0.6771"
"F","1617445535.148161","7","0","37","-23","-24","-16","0.726196","-0.282715","-0.624573","-0.050903","-0.038168","0","-0.007634","8.620459","-2.985938","0.470142","-0.550293","0.413916","-0.11604","0.160303","0.136377","-0.665137"
"F","1617445535.138126","7","4","37","-23","-21","-13","0.726318","-0.282532","-0.624573","-0.050476","-0.015267","0","-0.015267","8.637207","-3.017041","0.466553","-0.533545","0.386401","-0.122021","0.156714","0.114844","-0.640015"
"F","1617445535.1283474","7","-3","36","-22","-23","-15","0.726318","-0.282593","-0.624573","-0.05011","0","0","-0.015267","8.627637","-3.098389","0.443823","-0.540723","0.311035","-0.144751","0.142358","0.039478","-0.62207"
"F","1617445535.1182864","7","2","36","-26","-24","-16","0.726318","-0.282898","-0.624451","-0.049927","0.015267","-0.007634","-0.022901","8.59773","-3.194092","0.424683","-0.568237","0.221313","-0.163892","0.114844","-0.05144","-0.618481"
"F","1617445535.108206","7","2","37","-22","-25","-17","0.726318","-0.283325","-0.624268","-0.049927","0.015267","-0.007634","-0.022901","8.558252","-3.274243","0.411523","-0.605322","0.147144","-0.175854","0.086133","-0.130396","-0.626855"
"F","1617445535.099034","7","1","35","-25","-23","-15","0.726379","-0.283691","-0.624084","-0.049927","0.007634","-0.007634","-0.022901","8.53313","-3.316113","0.421094","-0.629248","0.111255","-0.16748","0.057422","-0.162695","-0.636426"
"F","1617445535.089048","7","1","39","-21","-35","-9","0.72644","-0.283875","-0.62384","-0.049866","0","-0.007634","-0.015267","8.522364","-3.330469","0.455786","-0.636426","0.100488","-0.136377","0.023926","-0.159106","-0.637622"
"F","1617445535.079007","7","0","37","-24","-24","-16","0.726562","-0.283936","-0.623718","-0.049805","-0.015267","-0.007634","-0.015267","8.525952","-3.320899","0.49646","-0.632837","0.113647","-0.098096","-0.002393","-0.129199","-0.636426"
"F","1617445535.0683548","7","-3","37","-27","-23","-23","0.726746","-0.283813","-0.623596","-0.049683","-0.022901","-0.007634","-0.007634","8.535522","-3.295776","0.535937","-0.623267","0.13877","-0.063403","-0.020337","-0.089722","-0.634033"
"F","1617445535.0582108","7","3","37","-24","-23","-17","0.726868","-0.283569","-0.623535","-0.0495","-0.030534","-0.007634","-0.007634","8.535522","-3.269458","0.551489","-0.62207","0.165088","-0.05144","-0.019141","-0.061011","-0.641211"
"F","1617445535.048137","7","2","37","-21","-20","-15","0.72699","-0.283325","-0.623535","-0.049194","-0.022901","-0.007634","-0.007634","8.534327","-3.267066","0.535937","-0.623267","0.168677","-0.069385","-0.002393","-0.066992","-0.6448"
"F","1617445535.0381453","7","0","35","-23","-25","-23","0.727112","-0.283203","-0.623535","-0.049011","-0.015267","0","-0.007634","8.554663","-3.30415","0.512012","-0.60293","0.132788","-0.095703","0.008374","-0.104077","-0.614893"
"F","1617445535.0281825","7","1","36","-26","-25","-15","0.727051","-0.283142","-0.623535","-0.048889","0","0.007634","0","8.600122","-3.380713","0.483301","-0.556274","0.056226","-0.124414","0.011963","-0.168677","-0.546704"
"F","1617445535.0188012","7","0","39","-26","-25","-16","0.726929","-0.283142","-0.623657","-0.04895","0","0.007634","0","8.665918","-3.457275","0.47373","-0.490479","-0.020337","-0.130396","0","-0.216528","-0.458179"
"F","1617445535.0089958","7","0","37","-23","-23","-15","0.726868","-0.283081","-0.62384","-0.049072","-0.007634","0","0","8.706592","-3.499146","0.47373","-0.452197","-0.065796","-0.128003","-0.013159","-0.242847","-0.406738"
"F","1617445534.9982822","7","0","37","-22","-24","-24","0.726868","-0.282898","-0.623901","-0.049133","-0.022901","-0.007634","0","8.686255","-3.482398","0.488086","-0.47373","-0.052637","-0.113647","-0.023926","-0.230884","-0.430664"
"F","1617445534.988846","7","3","35","-20","-23","-16","0.727051","-0.282532","-0.62384","-0.049072","-0.030534","-0.015267","0","8.65874","-3.418994","0.510815","-0.502441","0.005981","-0.095703","-0.021533","-0.18064","-0.477319"
"F","1617445534.978837","7","-1","36","-24","-20","-13","0.727295","-0.282043","-0.623779","-0.049011","-0.030534","-0.015267","0","8.643188","-3.355591","0.537134","-0.519189","0.0646","-0.076563","-0.017944","-0.126807","-0.512012"
"F","1617445534.9690154","7","1","37","-22","-22","-15","0.727539","-0.281616","-0.623718","-0.048889","-0.030534","-0.022901","0.007634","8.63003","-3.314917","0.555078","-0.533545","0.102881","-0.065796","-0.014355","-0.093311","-0.53833"
"F","1617445534.9589","7","1","37","-47","-23","-17","0.727783","-0.28125","-0.623535","-0.048889","-0.015267","-0.022901","0.007634","8.62644","-3.314917","0.552686","-0.537134","0.099292","-0.075366","-0.008374","-0.101685","-0.540723"
"F","1617445534.9489806","7","0","35","-23","-19","-13","0.728027","-0.280884","-0.623413","-0.049011","-0.007634","-0.015267","0.007634","8.644384","-3.325684","0.564648","-0.520386","0.082544","-0.070581","-0.015552","-0.108862","-0.519189"
"F","1617445534.9383934","7","0","35","-26","-24","-16","0.72821","-0.280701","-0.623291","-0.049133","-0.007634","-0.015267","0.007634","8.662329","-3.335254","0.595752","-0.503638","0.070581","-0.044263","-0.040674","-0.101685","-0.497656"
"F","1617445534.9288478","7","1","35","-24","-25","-16","0.728333","-0.280579","-0.623169","-0.049377","0","-0.015267","0","8.669507","-3.330469","0.613696","-0.497656","0.071777","-0.031104","-0.050244","-0.092114","-0.491675"
"F","1617445534.9189365","7","-1","33","-22","-25","-17","0.728455","-0.280518","-0.623108","-0.049561","0.007634","-0.015267","0","8.689844","-3.322095","0.636426","-0.478516","0.077759","-0.010767","-0.062207","-0.071777","-0.474927"
"F","1617445534.9090092","7","0","37","-26","-25","-38","0.728455","-0.280579","-0.622986","-0.049866","0.015267","-0.022901","0.007634","8.6719","-3.313721","0.637622","-0.49646","0.082544","-0.011963","-0.062207","-0.072974","-0.492871"
"F","1617445534.8990855","7","2","35","-26","-21","-14","0.728577","-0.280701","-0.622803","-0.050293","0.015267","-0.022901","0.007634","8.644384","-3.290991","0.626855","-0.525171","0.102881","-0.026318","-0.047852","-0.070581","-0.52876"
"F","1617445534.8888478","7","2","35","-22","-24","-16","0.728699","-0.280579","-0.62262","-0.050781","0","-0.022901","0.015267","8.646777","-3.221606","0.650781","-0.523975","0.165088","-0.007178","-0.038281","-0.008374","-0.5479"
"F","1617445534.8790195","7","1","37","-22","-26","-16","0.728882","-0.280273","-0.622559","-0.051086","-0.015267","-0.022901","0.015267","8.663526","-3.123511","0.695044","-0.510815","0.256006","0.031104","-0.031104","0.088525","-0.563452"
"F","1617445534.868848","7","0","35","-26","-25","-16","0.729126","-0.279785","-0.622498","-0.051331","-0.030534","-0.022901","0.022901","8.669507","-3.015845","0.736914","-0.507227","0.355298","0.065796","-0.017944","0.189014","-0.592163"
