timestamp,user_id,flex_1,flex_2,flex_3,flex_4,flex_5,Qw,Qx,Qy,Qz,GYRx,GYRy,GYRz,ACCx,ACCy,ACCz,ACCx_body,ACCy_body,ACCz_body,ACCx_world,ACCy_world,ACCz_world,Alphabet
1616135690.24177,1,-5.0,1.0,-14.0,-6.0,-6.0,0.871155,0.175354,-0.458435,0.011597,-0.007634,0.007634,-0.007634,7.956519,2.883057,4.945459,0.088525,-0.005981,-0.131592,0.156714,0.022729,0.0,fine
1616135690.251731,1,-4.0,1.0,-14.0,-5.0,-9.0,0.871216,0.175415,-0.458313,0.011536,-0.007634,0.007634,-0.007634,7.934985,2.861523,4.933496,0.068188,-0.029907,-0.145947,0.160303,0.008374,-0.028711,fine
1616135690.2616456,1,-4.0,1.0,-14.0,-4.0,-6.0,0.871277,0.175476,-0.458191,0.011536,0.0,0.007634,-0.007634,7.918237,2.855542,4.927515,0.053833,-0.037085,-0.153125,0.159106,0.005981,-0.046655,fine
1616135690.271639,1,-4.0,1.0,-15.0,-5.0,-9.0,0.871277,0.175537,-0.45813,0.011597,0.0,0.0,-0.007634,7.902686,2.865112,4.935889,0.038281,-0.027515,-0.145947,0.142358,0.014355,-0.052637,fine
1616135690.2817664,1,-5.0,1.0,-14.0,-6.0,-12.0,0.871277,0.175659,-0.458069,0.011536,0.0,0.0,-0.007634,7.887134,2.875879,4.955029,0.023926,-0.019141,-0.126807,0.117236,0.017944,-0.05144,fine
1616135690.2916386,1,-3.0,3.0,-14.0,-7.0,-8.0,0.871277,0.175659,-0.458008,0.011475,-0.007634,0.0,-0.007634,7.887134,2.866309,4.969385,0.025122,-0.029907,-0.112451,0.108862,0.003589,-0.046655,fine
1616135690.301703,1,-5.0,1.0,-15.0,-4.0,-10.0,0.871338,0.175659,-0.458008,0.011414,-0.007634,0.0,-0.007634,7.894311,2.860327,4.986133,0.0323,-0.037085,-0.096899,0.101685,-0.008374,-0.034692,fine
1616135690.3118114,1,-8.0,3.0,-13.0,-5.0,-8.0,0.871338,0.175598,-0.457947,0.011292,-0.007634,0.0,-0.015267,7.900293,2.853149,4.9969,0.039478,-0.044263,-0.087329,0.099292,-0.019141,-0.026318,fine
1616135690.3216467,1,-3.0,1.0,-13.0,-4.0,-6.0,0.871399,0.175598,-0.457886,0.011169,-0.007634,0.0,-0.015267,7.901489,2.832813,5.002881,0.04187,-0.065796,-0.082544,0.101685,-0.040674,-0.028711,fine
1616135690.3316803,1,-5.0,3.0,-10.0,-4.0,-8.0,0.87146,0.175598,-0.457764,0.011047,-0.007634,0.0,-0.015267,7.903882,2.825635,5.004077,0.046655,-0.07417,-0.08374,0.10647,-0.049048,-0.027515,fine
1616135690.3416052,1,-3.0,0.0,-15.0,-17.0,-8.0,0.871521,0.175598,-0.457703,0.010925,-0.007634,0.0,-0.007634,7.908667,2.843579,5.024414,0.052637,-0.057422,-0.0646,0.092114,-0.040674,-0.007178,fine
1616135690.3516717,1,-3.0,1.0,-13.0,-5.0,-6.0,0.871521,0.175598,-0.457642,0.010864,-0.007634,0.0,-0.007634,7.906274,2.86272,5.036377,0.05144,-0.038281,-0.052637,0.077759,-0.026318,0.002393,fine
1616135690.361711,1,-5.0,4.0,-12.0,-6.0,-9.0,0.871582,0.175598,-0.45752,0.010742,-0.007634,0.0,-0.015267,7.907471,2.883057,5.042358,0.053833,-0.020337,-0.049048,0.072974,-0.010767,0.010767,fine
1616135690.371762,1,-4.0,4.0,-15.0,-4.0,-8.0,0.871643,0.175598,-0.457458,0.010559,-0.007634,0.0,-0.015267,7.901489,2.899805,5.045947,0.049048,-0.004785,-0.046655,0.065796,0.002393,0.013159,fine
1616135690.3818831,1,-5.0,-1.0,-15.0,-4.0,-9.0,0.871704,0.175598,-0.457397,0.010376,-0.007634,0.0,-0.015267,7.890723,2.893823,5.045947,0.039478,-0.013159,-0.049048,0.063403,-0.002393,0.001196,fine
1616135690.3916256,1,-5.0,3.0,-14.0,-4.0,-7.0,0.871704,0.175598,-0.457336,0.010254,-0.007634,0.0,-0.015267,7.883545,2.89502,5.037573,0.033496,-0.013159,-0.057422,0.066992,0.0,-0.005981,fine
1616135690.4018912,1,-5.0,4.0,-13.0,-6.0,-7.0,0.871643,0.175598,-0.457397,0.010132,-0.007634,-0.007634,-0.015267,7.889526,2.901001,5.045947,0.039478,-0.007178,-0.047852,0.062207,0.002393,0.003589,fine
1616135690.4115586,1,-4.0,5.0,-14.0,-5.0,-8.0,0.871643,0.175659,-0.457458,0.01001,-0.007634,-0.007634,-0.007634,7.899096,2.915356,5.053125,0.049048,0.003589,-0.039478,0.058618,0.008374,0.019141,fine
1616135690.42178,1,-5.0,1.0,-12.0,-5.0,-9.0,0.871582,0.17572,-0.45752,0.009888,0.0,-0.007634,-0.007634,7.906274,2.935693,5.053125,0.056226,0.021533,-0.038281,0.058618,0.023926,0.031104,fine
1616135690.4316416,1,-7.0,1.0,-13.0,-5.0,-8.0,0.871521,0.175842,-0.457581,0.009827,0.0,-0.007634,-0.007634,7.909863,2.954834,5.054321,0.058618,0.038281,-0.034692,0.053833,0.038281,0.039478,fine
1616135690.4415896,1,-6.0,1.0,-15.0,-5.0,-8.0,0.87146,0.175903,-0.457642,0.009705,0.0,-0.007634,-0.007634,7.918237,2.966797,5.04834,0.066992,0.049048,-0.038281,0.059814,0.047852,0.047852,fine
1616135690.451488,1,-5.0,0.0,-13.0,-4.0,-9.0,0.87146,0.175964,-0.457703,0.009644,-0.007634,-0.007634,-0.007634,7.914649,2.973975,5.02561,0.063403,0.053833,-0.061011,0.075366,0.059814,0.034692,fine
1616135690.4615571,1,-5.0,1.0,-16.0,-6.0,-8.0,0.871399,0.176025,-0.457764,0.009583,-0.007634,-0.007634,-0.007634,7.903882,2.970386,5.001685,0.05144,0.049048,-0.082544,0.086133,0.0646,0.011963,fine
1616135690.4716923,1,-5.0,3.0,-12.0,-6.0,-7.0,0.871399,0.176025,-0.457825,0.009521,-0.007634,-0.007634,-0.007634,7.894311,2.9656,4.971777,0.04187,0.044263,-0.112451,0.105273,0.070581,-0.010767,fine
1616135690.4816878,1,-3.0,3.0,-14.0,-6.0,-8.0,0.871338,0.176025,-0.457947,0.00946,-0.007634,-0.007634,-0.007634,7.897901,2.938086,4.944263,0.044263,0.016748,-0.137573,0.131592,0.052637,-0.029907,fine
1616135690.4915657,1,-2.0,4.0,-13.0,-3.0,-8.0,0.871277,0.176025,-0.458069,0.009399,0.0,-0.007634,-0.007634,7.912256,2.898608,4.925122,0.056226,-0.022729,-0.154321,0.159106,0.019141,-0.040674,fine
1616135690.5016866,1,-4.0,1.0,-14.0,-5.0,-7.0,0.871216,0.176086,-0.458191,0.009399,0.0,-0.007634,-0.007634,7.925415,2.875879,4.917944,0.068188,-0.045459,-0.159106,0.173462,-0.001196,-0.040674,fine
1616135690.5117135,1,-5.0,1.0,-15.0,-1.0,-6.0,0.871094,0.176147,-0.458252,0.009399,0.0,-0.007634,-0.007634,7.937378,2.856738,4.915552,0.080151,-0.065796,-0.159106,0.184229,-0.022729,-0.037085,fine
1616135690.5216496,1,-6.0,0.0,-15.0,-5.0,-8.0,0.871094,0.176208,-0.458313,0.00946,0.0,-0.007634,-0.007634,7.943359,2.845972,4.927515,0.084937,-0.076563,-0.145947,0.178247,-0.037085,-0.029907,fine
1616135690.5316582,1,-9.0,5.0,-12.0,-2.0,-23.0,0.871033,0.17627,-0.458374,0.00946,0.0,0.0,-0.007634,7.949341,2.861523,4.937085,0.090918,-0.062207,-0.135181,0.171069,-0.028711,-0.015552,fine
1616135690.541666,1,-5.0,3.0,-12.0,-4.0,-6.0,0.871033,0.176392,-0.458374,0.009399,0.0,0.0,-0.007634,7.9625,2.88186,4.961011,0.104077,-0.044263,-0.110059,0.155518,-0.021533,0.013159,fine
1616135690.5515738,1,-4.0,4.0,-14.0,-6.0,-6.0,0.871094,0.176392,-0.458252,0.009399,-0.007634,0.007634,-0.007634,7.97207,2.892627,4.97417,0.114844,-0.033496,-0.099292,0.150732,-0.015552,0.029907,fine
1616135690.5615327,1,-4.0,1.0,-11.0,-4.0,-8.0,0.871155,0.176331,-0.45813,0.009338,-0.007634,0.007634,-0.007634,7.958911,2.903394,4.980151,0.104077,-0.022729,-0.095703,0.139966,-0.005981,0.026318,fine
1616135690.571595,1,-5.0,1.0,-13.0,-5.0,-8.0,0.871277,0.17627,-0.457947,0.009399,-0.007634,0.007634,0.0,7.934985,2.917749,4.987329,0.081348,-0.007178,-0.092114,0.120825,0.00957,0.014355,fine
1616135690.5811176,1,-3.0,4.0,-14.0,-2.0,-6.0,0.871338,0.176147,-0.457764,0.00946,-0.007634,0.007634,0.0,7.921826,2.915356,4.995703,0.070581,-0.007178,-0.087329,0.111255,0.00957,0.008374,fine
1616135690.590813,1,-6.0,1.0,-14.0,-5.0,-9.0,0.87146,0.176025,-0.457642,0.009644,-0.007634,0.007634,0.007634,7.906274,2.916553,5.017236,0.055029,-0.002393,-0.069385,0.087329,0.010767,0.007178,fine
1616135690.6008046,1,-5.0,3.0,-14.0,-5.0,-8.0,0.871521,0.175964,-0.457581,0.009766,0.0,0.0,0.007634,7.903882,2.963208,5.035181,0.053833,0.044263,-0.053833,0.065796,0.050244,0.027515,fine
1616135690.6109333,1,-4.0,0.0,-12.0,-5.0,-6.0,0.871521,0.175964,-0.457581,0.009888,-0.007634,0.0,0.0,7.913452,3.006274,5.056714,0.062207,0.088525,-0.0323,0.045459,0.08374,0.058618,fine
1616135690.6210313,1,-5.0,4.0,-12.0,-5.0,-6.0,0.871521,0.175964,-0.457581,0.009888,-0.007634,-0.007634,0.0,7.938574,3.057715,5.087817,0.087329,0.139966,-0.001196,0.026318,0.118433,0.110059,fine
1616135690.6308646,1,-4.0,0.0,-14.0,-5.0,-6.0,0.871521,0.175964,-0.457581,0.009888,-0.007634,-0.007634,0.0,7.968482,3.10437,5.108154,0.117236,0.186621,0.017944,0.020337,0.151929,0.15791,fine
1616135690.6407945,1,-7.0,1.0,-13.0,-7.0,-6.0,0.87146,0.175964,-0.457642,0.009827,-0.007634,-0.007634,0.0,8.012744,3.141455,5.112939,0.161499,0.223706,0.025122,0.033496,0.178247,0.208154,fine
1616135690.6508322,1,-3.0,3.0,-14.0,-10.0,-8.0,0.87146,0.175964,-0.457703,0.009888,0.0,-0.007634,0.007634,8.057007,3.176147,5.094995,0.204565,0.258398,0.007178,0.066992,0.210547,0.244043,fine
1616135690.660896,1,-4.0,3.0,-11.0,-4.0,-7.0,0.871338,0.176208,-0.457886,0.010132,0.007634,-0.007634,0.015267,8.096484,3.271851,5.047143,0.240454,0.352905,-0.034692,0.102881,0.30625,0.278735,fine
1616135690.670934,1,-3.0,3.0,-14.0,-4.0,-6.0,0.871155,0.176575,-0.458008,0.010498,0.022901,-0.007634,0.022901,8.137158,3.434546,4.992114,0.279932,0.513208,-0.084937,0.136377,0.467749,0.332568,fine
1616135690.680793,1,-4.0,3.0,-12.0,-5.0,-6.0,0.870911,0.177246,-0.458191,0.010986,0.030534,0.0,0.030534,8.195776,3.71687,4.959815,0.336157,0.789551,-0.108862,0.137573,0.726147,0.448608,fine
1616135690.6908815,1,-5.0,4.0,-11.0,-5.0,-8.0,0.870789,0.17804,-0.45813,0.011658,0.038168,0.015267,0.045802,8.286695,4.122412,5.004077,0.425879,1.187915,-0.059814,0.075366,1.069482,0.665137,fine
1616135690.7008083,1,-5.0,4.0,-12.0,-6.0,-7.0,0.870728,0.178955,-0.457825,0.012573,0.038168,0.030534,0.068702,8.402735,4.649976,5.111743,0.544312,1.708301,0.047852,-0.038281,1.504932,0.973779,fine
1616135690.710677,1,-4.0,1.0,-14.0,-2.0,-7.0,0.870911,0.179871,-0.457153,0.013794,0.038168,0.053435,0.10687,8.560644,5.351001,5.330664,0.708203,2.403345,0.260791,-0.246436,2.062402,1.42478,fine
1616135690.7207072,1,-5.0,1.0,-12.0,-5.0,-6.0,0.871216,0.180603,-0.456177,0.01532,0.015267,0.076336,0.152672,8.705396,6.136963,5.5771,0.861328,3.189307,0.495264,-0.498853,2.697632,1.904492,fine
1616135690.730913,1,-4.0,2.0,-12.0,-6.0,-6.0,0.871643,0.180725,-0.4552,0.017456,-0.007634,0.076336,0.221374,8.771192,6.830811,5.731421,0.931909,3.898706,0.632837,-0.712988,3.306543,2.240649,fine
1616135690.7408016,1,-4.0,7.0,-13.0,-6.0,-8.0,0.871948,0.179993,-0.454834,0.020569,-0.038168,0.038168,0.320611,8.719751,7.389478,5.750562,0.873291,4.495654,0.640015,-0.888843,3.87478,2.359082,fine
1616135690.7508411,1,-4.0,3.0,-15.0,-2.0,-7.0,0.871704,0.178101,-0.45575,0.025085,-0.053435,-0.022901,0.450382,8.59773,7.608398,5.591455,0.722559,4.788745,0.484497,-0.945068,4.231275,2.209546,fine
1616135690.760753,1,-4.0,4.0,-14.0,-4.0,-6.0,0.87085,0.174988,-0.458252,0.031433,-0.045802,-0.099237,0.587786,8.502027,7.401441,5.325879,0.571826,4.696631,0.24165,-0.869702,4.257593,1.884155,fine
1616135690.7707696,1,-4.0,1.0,-13.0,-2.0,-7.0,0.869263,0.171204,-0.461975,0.039795,0.007634,-0.145038,0.687023,8.449389,6.790137,4.969385,0.443823,4.232471,-0.071777,-0.651978,3.954932,1.429565,fine
1616135690.7808385,1,-4.0,5.0,-13.0,-6.0,-6.0,0.867188,0.167419,-0.466309,0.049866,0.083969,-0.160305,0.748092,8.382398,5.874976,4.590161,0.291895,3.48479,-0.397168,-0.367261,3.384302,0.887646,fine
1616135690.7909691,1,-4.0,3.0,-14.0,-29.0,-8.0,0.864685,0.164185,-0.470703,0.061218,0.167939,-0.145038,0.770992,8.247217,4.804297,4.224097,0.071777,2.586377,-0.703418,-0.075366,2.664136,0.290698,fine
1616135690.8011198,1,-4.0,3.0,-15.0,-5.0,-8.0,0.862122,0.161499,-0.47467,0.073181,0.229008,-0.122137,0.748092,8.022314,3.651074,3.895117,-0.229687,1.601831,-0.977368,0.204565,1.84707,-0.344531,fine
1616135690.810803,1,-3.0,4.0,-11.0,-1.0,-6.0,0.859558,0.159241,-0.477966,0.085327,0.267176,-0.083969,0.709924,7.798608,2.409326,3.661841,-0.519189,0.525171,-1.162793,0.491675,0.906787,-0.911572,fine
1616135690.8209198,1,-4.0,4.0,-13.0,-4.0,-5.0,0.857422,0.156982,-0.480347,0.097107,0.274809,-0.030534,0.648855,7.525855,1.238159,3.555371,-0.84458,-0.485693,-1.238159,0.69624,-0.016748,-1.411621,fine
1616135690.8307793,1,-4.0,6.0,-14.0,-3.0,-6.0,0.855774,0.154541,-0.481689,0.108032,0.229008,0.015267,0.580153,7.218408,0.126807,3.557764,-1.187915,-1.445117,-1.225,0.842188,-0.933105,-1.848267,fine
1616135690.8408391,1,-2.0,5.0,-14.0,-5.0,-6.0,0.854797,0.15155,-0.482117,0.117615,0.183206,0.061069,0.48855,6.876269,-1.110156,3.725244,-1.550391,-2.537329,-1.06709,0.935498,-2.03728,-2.223901,fine
1616135690.8507333,1,0.0,1.0,-12.0,-4.0,-6.0,0.854431,0.148621,-0.481689,0.125916,0.19084,0.083969,0.343511,6.48269,-2.644995,4.014746,-1.949951,-3.944165,-0.803906,1.061108,-3.483594,-2.595947,fine
1616135690.861317,1,-2.0,4.0,-14.0,-5.0,-6.0,0.854492,0.146362,-0.480469,0.132507,0.198473,0.099237,0.183206,6.0281,-4.151123,4.324585,-2.39856,-5.353394,-0.529956,1.172363,-4.940674,-2.982349,fine
1616135690.8708863,1,1.0,4.0,-14.0,-2.0,-4.0,0.85498,0.145081,-0.47876,0.136902,0.198473,0.091603,0.007634,5.563941,-5.384497,4.618872,-2.847168,-6.530542,-0.275146,1.214233,-6.17644,-3.344824,fine
1616135690.8807368,1,-5.0,4.0,-14.0,-4.0,-6.0,0.855652,0.145081,-0.476868,0.139343,0.206107,0.068702,-0.114504,5.24812,-6.055615,4.844971,-3.145044,-7.186109,-0.084937,1.180737,-6.88584,-3.564941,fine
1616135690.890965,1,-7.0,3.0,-14.0,38.0,-6.0,0.85614,0.146545,-0.47522,0.14032,0.21374,0.022901,-0.19084,5.152417,-5.937182,5.026807,-3.223999,-7.089209,0.07417,0.991724,-6.858325,-3.551782,fine
1616135690.900797,1,-8.0,4.0,-14.0,-4.0,-4.0,0.856445,0.14917,-0.473999,0.139832,0.19084,-0.015267,-0.244275,5.299561,-5.187109,5.175147,-3.064893,-6.391772,0.214136,0.701025,-6.239844,-3.293384,fine
1616135690.910959,1,-7.0,7.0,-12.0,-4.0,-5.0,0.856873,0.152466,-0.472839,0.137512,0.137405,-0.022901,-0.320611,5.687158,-3.982446,5.325879,-2.664136,-5.268457,0.363672,0.349316,-5.209839,-2.777783,fine
1616135690.920879,1,-5.0,3.0,-14.0,-5.0,-6.0,0.857727,0.155945,-0.471313,0.133423,0.061069,0.015267,-0.374046,6.264966,-2.642602,5.481397,-2.065991,-4.031494,0.512012,0.047852,-4.061401,-2.067188,fine
1616135690.930901,1,-5.0,5.0,-13.0,-6.0,-6.0,0.859131,0.159058,-0.469116,0.128235,0.0,0.068702,-0.40458,6.914551,-1.213037,5.629736,-1.384106,-2.711987,0.638818,-0.215332,-2.835205,-1.260889,fine
1616135690.9407573,1,-5.0,4.0,-14.0,-3.0,-6.0,0.861023,0.162109,-0.466187,0.122559,-0.030534,0.129771,-0.396947,7.544995,0.295483,5.821143,-0.711792,-1.319507,0.795532,-0.509619,-1.565942,-0.409131,fine
1616135690.9509015,1,-5.0,5.0,-14.0,-2.0,-6.0,0.863159,0.164917,-0.462585,0.116943,-0.061069,0.167939,-0.358779,8.090503,1.896118,6.061597,-0.112451,0.166284,0.989331,-0.870898,-0.240454,0.446216,fine
1616135690.960666,1,-7.0,4.0,-15.0,-5.0,-6.0,0.865356,0.16748,-0.458801,0.111816,-0.076336,0.175573,-0.282443,8.518774,3.463257,6.333154,0.369653,1.626953,1.209448,-1.274048,1.03479,1.244141,fine
1616135690.9706018,1,-7.0,3.0,-16.0,-31.0,2.0,0.867249,0.169617,-0.455444,0.107727,-0.076336,0.145038,-0.183206,8.836987,4.921533,6.536523,0.736914,2.999097,1.366162,-1.638916,2.244238,1.917651,fine
1616135690.9806087,1,-7.0,1.0,-10.0,-4.0,-6.0,0.868469,0.171265,-0.453186,0.105042,-0.076336,0.083969,-0.053435,9.072657,6.114233,6.598731,1.004883,4.131982,1.398462,-1.875781,3.27544,2.404541,fine
1616135690.99071,1,-7.0,3.0,-16.0,-3.0,-5.0,0.868774,0.172302,-0.452454,0.104187,-0.061069,0.0,0.083969,9.255689,6.906177,6.488672,1.198682,4.895215,1.282422,-1.929614,4.02312,2.670117,fine
1616135691.0006018,1,-8.0,1.0,-10.0,-6.0,-6.0,0.868042,0.172668,-0.45343,0.105225,-0.030534,-0.083969,0.221374,9.396851,7.249512,6.211133,1.325488,5.246924,1.02522,-1.798023,4.446607,2.706006,fine
1616135691.0108278,1,-8.0,4.0,-12.0,-4.0,-4.0,0.866394,0.172607,-0.455933,0.108032,0.007634,-0.145038,0.312977,9.512891,7.113135,5.81875,1.404443,5.146436,0.6771,-1.495361,4.492065,2.549292,fine
1616135691.0207243,1,-10.0,5.0,-14.0,23.0,-38.0,0.864014,0.172302,-0.459412,0.112427,0.068702,-0.175573,0.381679,9.581079,6.506616,5.386889,1.421191,4.600928,0.30625,-1.068286,4.13916,2.235864,fine
1616135691.0308464,1,-5.0,5.0,-12.0,-5.0,-6.0,0.861328,0.171753,-0.463196,0.118286,0.114504,-0.175573,0.435115,9.546387,5.671607,5.007666,1.327881,3.844873,-0.007178,-0.668726,3.572119,1.825537,fine
1616135691.040659,1,-7.0,4.0,-11.0,-2.0,-6.0,0.858582,0.170837,-0.466858,0.125061,0.129771,-0.160305,0.465649,9.37771,4.743286,4.73252,1.101782,3.012256,-0.22251,-0.37085,2.893823,1.349414,fine
1616135691.0506942,1,-6.0,5.0,-13.0,-3.0,-6.0,0.856079,0.169006,-0.470215,0.132019,0.091603,-0.137405,0.473282,9.053515,3.682178,4.563843,0.726147,2.062402,-0.342139,-0.153125,2.062402,0.785962,fine
1616135691.0605545,1,-1.0,3.0,-11.0,-2.0,-6.0,0.854126,0.165955,-0.473022,0.138367,0.022901,-0.114504,0.427481,8.546289,2.266968,4.566236,0.177051,0.77041,-0.307446,0.021533,0.839795,0.114844,fine
1616135691.0707808,1,0.0,4.0,-14.0,-4.0,-6.0,0.852783,0.161743,-0.475281,0.14386,-0.022901,-0.083969,0.328244,7.889526,0.419897,4.609302,-0.509619,-0.942676,-0.250024,0.308643,-0.796728,-0.691455,fine
1616135691.080859,1,-1.0,4.0,-13.0,0.0,-6.0,0.852112,0.157166,-0.476807,0.147827,-0.053435,-0.045802,0.183206,7.180127,-1.430762,4.651172,-1.238159,-2.673706,-0.208154,0.6125,-2.465552,-1.504932,fine
1616135691.090777,1,-2.0,0.0,-14.0,-4.0,-6.0,0.852051,0.153076,-0.477539,0.149841,-0.076336,-0.015267,0.030534,6.595141,-2.903394,4.691846,-1.829126,-4.056616,-0.178247,0.852954,-3.811377,-2.137769,fine
1616135691.1007056,1,-5.0,5.0,-13.0,-4.0,-6.0,0.8526,0.14978,-0.4776,0.150085,-0.076336,0.007634,-0.083969,6.206347,-3.83291,4.663135,-2.214331,-4.929907,-0.226099,1.035986,-4.64519,-2.567236,fine
1616135691.1107106,1,-6.0,1.0,-15.0,-2.0,-6.0,0.853271,0.147583,-0.477295,0.149231,-0.061069,0.022901,-0.152672,6.013745,-4.177442,4.59375,-2.399756,-5.249316,-0.313428,1.117334,-4.935889,-2.790942,fine
1616135691.1207683,1,-3.0,6.0,-11.0,-4.0,-6.0,0.854126,0.146484,-0.476685,0.147522,-0.038168,0.022901,-0.198473,5.963501,-4.036279,4.559058,-2.439233,-5.109351,-0.366064,1.058716,-4.798316,-2.835205,fine
1616135691.13095,1,-7.0,3.0,-12.0,-1.0,-6.0,0.855103,0.146423,-0.475769,0.144836,-0.038168,0.030534,-0.259542,6.034082,-3.576904,4.599731,-2.354297,-4.679883,-0.342139,0.885254,-4.404737,-2.71438,fine
1616135691.1408484,1,-4.0,1.0,-13.0,-5.0,-6.0,0.856323,0.147156,-0.474548,0.141052,-0.045802,0.038168,-0.328244,6.2219,-2.973975,4.720557,-2.148535,-4.130786,-0.240454,0.66394,-3.913062,-2.444019,fine
1616135691.1508565,1,-7.0,5.0,-14.0,-2.0,-6.0,0.857727,0.148499,-0.4729,0.136292,-0.045802,0.053435,-0.381679,6.447998,-2.30166,4.8677,-1.898511,-3.533838,-0.11604,0.433057,-3.37832,-2.119824,fine
1616135691.1607058,1,-6.0,4.0,-13.0,-4.0,-6.0,0.859253,0.150391,-0.471069,0.130798,-0.045802,0.053435,-0.412214,6.658545,-1.569531,4.994507,-1.660449,-2.893823,-0.011963,0.202173,-2.796924,-1.806396,fine
1616135691.1708589,1,-4.0,5.0,-12.0,-4.0,-5.0,0.860718,0.152771,-0.469238,0.124817,-0.045802,0.038168,-0.435115,6.864306,-0.797925,5.13208,-1.42478,-2.226294,0.105273,-0.035889,-2.193994,-1.475024,fine
1616135691.180679,1,-6.0,3.0,-14.0,-5.0,-5.0,0.862,0.155518,-0.467651,0.118652,-0.038168,0.015267,-0.435115,7.088013,-0.04187,5.273242,-1.17356,-1.581494,0.233276,-0.252417,-1.617383,-1.117334,fine
1616135691.190705,1,-4.0,10.0,11.0,-2.0,-5.0,0.862976,0.158569,-0.466309,0.112488,-0.015267,-0.015267,-0.419847,7.330859,0.645996,5.380908,-0.905591,-1.007275,0.334961,-0.400757,-1.09939,-0.758447,fine
1616135691.2006583,1,-5.0,1.0,-9.0,-4.0,-38.0,0.863525,0.161926,-0.465454,0.106689,-0.007634,-0.045802,-0.396947,7.578491,1.35061,5.473022,-0.637622,-0.416309,0.433057,-0.539526,-0.569434,-0.386401,fine
1616135691.210671,1,-5.0,3.0,-15.0,-2.0,-4.0,0.863831,0.165161,-0.465088,0.101013,-0.022901,-0.068702,-0.358779,7.826123,2.082739,5.520874,-0.374438,0.206958,0.494067,-0.653174,-0.003589,-0.020337,fine
1616135691.2207425,1,-4.0,3.0,-10.0,-6.0,-3.0,0.863892,0.167847,-0.465149,0.095398,-0.061069,-0.091603,-0.328244,8.083325,2.71438,5.5125,-0.10647,0.741699,0.504834,-0.685474,0.494067,0.317017,fine
1616135691.2305892,1,-7.0,1.0,-12.0,-1.0,-5.0,0.863892,0.169678,-0.465576,0.089966,-0.10687,-0.091603,-0.290076,8.34292,3.134277,5.414404,0.160303,1.081445,0.427075,-0.5802,0.839795,0.576611,fine
1616135691.2406209,1,-5.0,3.0,-16.0,-5.0,-7.0,0.863953,0.170776,-0.466064,0.084778,-0.129771,-0.076336,-0.259542,8.563037,3.341235,5.262475,0.386401,1.223804,0.290698,-0.386401,1.020435,0.733325,fine
1616135691.2506876,1,-7.0,1.0,-12.0,-3.0,-4.0,0.864075,0.171448,-0.466431,0.080078,-0.129771,-0.053435,-0.236641,8.689844,3.440527,5.083032,0.520386,1.268066,0.123218,-0.186621,1.119727,0.776392,fine
1616135691.2607045,1,-6.0,1.0,-10.0,-4.0,-8.0,0.864258,0.172058,-0.466614,0.075745,-0.122137,-0.030534,-0.221374,8.719751,3.519482,4.904785,0.559863,1.296777,-0.046655,-0.031104,1.204663,0.735718,fine
1616135691.2706254,1,-7.0,4.0,-14.0,-3.0,-6.0,0.864502,0.172729,-0.466553,0.071716,-0.10687,-0.015267,-0.21374,8.712573,3.569726,4.780371,0.563452,1.297974,-0.16748,0.072974,1.246533,0.684277,fine
1616135691.2805982,1,-9.0,1.0,-12.0,-6.0,-6.0,0.864746,0.173462,-0.46637,0.068115,-0.083969,-0.007634,-0.19084,8.675488,3.581689,4.688257,0.53833,1.263281,-0.258398,0.147144,1.245337,0.614893,fine
1616135691.2906425,1,-2.0,3.0,-12.0,-4.0,-6.0,0.864929,0.174255,-0.466125,0.065002,-0.068702,-0.007634,-0.167939,8.609693,3.605615,4.622461,0.484497,1.245337,-0.322998,0.179443,1.251318,0.53833,fine
1616135691.300562,1,-5.0,5.0,-15.0,-4.0,-6.0,0.865051,0.175049,-0.466003,0.062378,-0.061069,-0.015267,-0.137405,8.53313,3.654663,4.559058,0.417505,1.256104,-0.384009,0.192603,1.284814,0.459375,fine
1616135691.31055,1,-7.0,4.0,-14.0,-5.0,-6.0,0.865051,0.175659,-0.466003,0.060059,-0.061069,-0.022901,-0.114504,8.470922,3.682178,4.511206,0.362476,1.251318,-0.425879,0.200977,1.295581,0.394775,fine
1616135691.3206472,1,-8.0,1.0,-14.0,-2.0,-6.0,0.86499,0.176208,-0.466125,0.058044,-0.053435,-0.022901,-0.099237,8.438623,3.689355,4.480103,0.334961,1.232178,-0.451001,0.215332,1.287207,0.358887,fine
1616135691.3307135,1,-5.0,4.0,-13.0,-4.0,-7.0,0.86499,0.176636,-0.466309,0.056274,-0.045802,-0.015267,-0.083969,8.430249,3.683374,4.488477,0.328979,1.202271,-0.437842,0.212939,1.253711,0.355298,fine
1616135691.339843,1,-5.0,4.0,-12.0,-2.0,-4.0,0.864929,0.177124,-0.46637,0.054871,-0.030534,-0.015267,-0.068702,8.413501,3.682178,4.514795,0.31582,1.180737,-0.406738,0.189014,1.222607,0.35769,fine
1616135691.3505344,1,-4.0,3.0,-12.0,-3.0,-6.0,0.864929,0.177551,-0.466309,0.053711,-0.030534,-0.007634,-0.053435,8.387182,3.694141,4.565039,0.294287,1.174756,-0.354102,0.13877,1.198682,0.366064,fine
1616135691.360574,1,-5.0,3.0,-14.0,-5.0,-6.0,0.86499,0.177856,-0.466248,0.052673,-0.030534,0.0,-0.045802,8.369238,3.685767,4.617676,0.279932,1.15083,-0.301465,0.098096,1.158008,0.376831,fine
1616135691.3697898,1,-8.0,4.0,-13.0,-4.0,-6.0,0.865051,0.177979,-0.466125,0.05188,-0.038168,0.0,-0.030534,8.350098,3.634326,4.676294,0.265576,1.089819,-0.242847,0.061011,1.080249,0.379224,fine
1616135691.3799386,1,-7.0,4.0,-14.0,-2.0,-5.0,0.865173,0.177917,-0.466003,0.051147,-0.038168,0.007634,-0.022901,8.327368,3.536231,4.737305,0.246436,0.985742,-0.185425,0.033496,0.964209,0.366064,fine
1616135691.390018,1,-5.0,3.0,-12.0,-6.0,-5.0,0.865356,0.177673,-0.46582,0.05072,-0.038168,0.007634,-0.007634,8.293872,3.423779,4.782763,0.215332,0.873291,-0.144751,0.013159,0.848169,0.331372,fine
1616135691.3998408,1,-6.0,1.0,-10.0,-4.0,-6.0,0.865479,0.177368,-0.46582,0.050415,-0.030534,0.0,0.0,8.254395,3.280225,4.817456,0.177051,0.730933,-0.112451,0.002393,0.707007,0.278735,fine
1616135691.410035,1,-4.0,3.0,-12.0,-2.0,-6.0,0.865479,0.177063,-0.46582,0.050293,-0.022901,-0.007634,0.007634,8.244824,3.135474,4.841382,0.16748,0.590967,-0.089722,0.015552,0.569434,0.245239,fine
1616135691.4205072,1,-5.0,5.0,-15.0,-2.0,-7.0,0.865479,0.176819,-0.465942,0.050293,-0.015267,-0.007634,0.007634,8.223291,3.006274,4.844971,0.144751,0.465356,-0.086133,0.031104,0.452197,0.196191,fine
1616135691.4306378,1,-4.0,5.0,-12.0,-1.0,-4.0,0.865356,0.176758,-0.466125,0.050354,-0.007634,-0.015267,0.007634,8.21372,2.896216,4.85813,0.132788,0.35769,-0.069385,0.038281,0.346924,0.166284,fine
1616135691.439765,1,-5.0,4.0,-14.0,-5.0,-6.0,0.865295,0.176697,-0.46637,0.050415,-0.007634,-0.015267,0.0,8.228076,2.808887,4.888037,0.143555,0.272754,-0.035889,0.039478,0.25481,0.169873,fine
1616135691.450098,1,-5.0,4.0,-12.0,-4.0,-5.0,0.865234,0.176575,-0.466492,0.050537,-0.007634,-0.007634,0.007634,8.237646,2.751465,4.919141,0.150732,0.218921,-0.003589,0.031104,0.192603,0.178247,fine
1616135691.459916,1,-5.0,4.0,-11.0,-1.0,-4.0,0.865234,0.176392,-0.466492,0.050537,-0.015267,0.0,0.0,8.220899,2.711987,4.935889,0.133984,0.181836,0.010767,0.020337,0.154321,0.162695,fine
1616135691.4699707,1,-5.0,6.0,-12.0,-12.0,-6.0,0.865356,0.176147,-0.466431,0.050476,-0.022901,0.0,0.0,8.186206,2.670117,4.937085,0.100488,0.143555,0.00957,0.011963,0.122021,0.124414,fine
1616135691.4798465,1,-5.0,1.0,-11.0,-2.0,-6.0,0.865479,0.17572,-0.46637,0.050354,-0.030534,0.007634,0.0,8.128784,2.613892,4.926318,0.043066,0.093311,-0.004785,0.003589,0.084937,0.056226,fine
1616135691.489847,1,-6.0,5.0,-14.0,-3.0,-5.0,0.865601,0.175293,-0.466309,0.050171,-0.030534,0.0,0.0,8.072558,2.545703,4.910767,-0.010767,0.029907,-0.023926,0.004785,0.037085,-0.013159,fine
1616135691.4998145,1,-7.0,0.0,-11.0,-4.0,-6.0,0.865723,0.174927,-0.466309,0.050049,-0.022901,-0.007634,0.0,8.015137,2.478711,4.882056,-0.068188,-0.031104,-0.056226,0.013159,-0.003589,-0.092114,fine
1616135691.510704,1,-7.0,1.0,-10.0,-4.0,-6.0,0.865662,0.174683,-0.466431,0.049927,-0.015267,-0.015267,0.0,7.963696,2.438037,4.852149,-0.120825,-0.068188,-0.084937,0.015552,-0.023926,-0.159106,fine
1616135691.520084,1,-4.0,10.0,-13.0,-3.0,-4.0,0.865601,0.174622,-0.466675,0.049805,-0.007634,-0.022901,-0.007634,7.931396,2.422485,4.837793,-0.155518,-0.08374,-0.095703,0.008374,-0.0323,-0.197388,fine
1616135691.530526,1,-5.0,5.0,-12.0,0.0,-5.0,0.865417,0.174683,-0.466919,0.049683,0.0,-0.030534,-0.015267,7.923022,2.434448,4.844971,-0.166284,-0.072974,-0.082544,-0.008374,-0.026318,-0.197388,fine
1616135691.5398755,1,-5.0,7.0,-12.0,-2.0,-5.0,0.865173,0.174927,-0.467285,0.0495,0.007634,-0.030534,-0.015267,7.933789,2.464355,4.848559,-0.159106,-0.047852,-0.070581,-0.020337,-0.007178,-0.178247,fine
1616135691.5498245,1,-5.0,4.0,-12.0,-2.0,-6.0,0.86499,0.175171,-0.467651,0.049377,0.007634,-0.030534,-0.015267,7.973267,2.5146,4.871289,-0.124414,-0.002393,-0.040674,-0.035889,0.021533,-0.123218,fine
1616135691.5600035,1,-3.0,5.0,-16.0,-4.0,-6.0,0.864746,0.175293,-0.467957,0.049133,-0.007634,-0.030534,-0.007634,8.035474,2.579199,4.920337,-0.0646,0.058618,0.014355,-0.061011,0.053833,-0.031104,fine
1616135691.5699406,1,-4.0,4.0,-12.0,-2.0,-5.0,0.864624,0.175293,-0.468262,0.04895,-0.015267,-0.022901,-0.007634,8.096484,2.618677,4.94187,-0.005981,0.096899,0.04187,-0.059814,0.075366,0.040674,fine
1616135691.5798674,1,-5.0,6.0,-15.0,-4.0,-5.0,0.864563,0.174927,-0.468567,0.048706,-0.030534,-0.015267,0.0,8.151514,2.613892,4.935889,0.044263,0.096899,0.038281,-0.028711,0.072974,0.080151,fine
1616135691.589736,1,-4.0,4.0,-14.0,-3.0,-5.0,0.864563,0.174438,-0.46875,0.048523,-0.038168,-0.015267,0.007634,8.187403,2.587573,4.897607,0.077759,0.076563,0.0,0.023926,0.0646,0.08374,fine
1616135691.5998294,1,-6.0,5.0,-14.0,-2.0,-5.0,0.864563,0.173767,-0.468994,0.04834,-0.045802,-0.007634,0.007634,8.190991,2.53374,4.859326,0.078955,0.033496,-0.037085,0.0646,0.037085,0.055029,fine
1616135691.609991,1,-5.0,5.0,-15.0,-5.0,-6.0,0.864624,0.173096,-0.469177,0.048157,-0.045802,-0.007634,0.007634,8.181421,2.45957,4.805493,0.066992,-0.029907,-0.092114,0.117236,-0.001196,0.001196,fine
1616135691.6199443,1,-5.0,5.0,-11.0,-2.0,-6.0,0.864624,0.172485,-0.46936,0.047974,-0.038168,-0.007634,0.0,8.167066,2.386597,4.757642,0.050244,-0.094507,-0.139966,0.161499,-0.044263,-0.05144,fine
1616135691.6299932,1,-6.0,4.0,-12.0,-1.0,-6.0,0.864624,0.172058,-0.469604,0.047852,-0.030534,-0.007634,-0.007634,8.147924,2.344727,4.718164,0.027515,-0.130396,-0.178247,0.187817,-0.062207,-0.098096,fine
1616135691.6400006,1,-5.0,1.0,-12.0,-4.0,-6.0,0.864563,0.171814,-0.469788,0.047668,-0.015267,-0.007634,-0.007634,8.128784,2.33396,4.697827,0.007178,-0.137573,-0.197388,0.193799,-0.061011,-0.126807,fine
1616135691.6499758,1,-5.0,6.0,-12.0,-1.0,-6.0,0.864502,0.171692,-0.46991,0.047485,-0.015267,-0.015267,-0.015267,8.109644,2.329175,4.699023,-0.011963,-0.142358,-0.193799,0.181836,-0.065796,-0.142358,fine
1616135691.659888,1,-6.0,4.0,-14.0,-3.0,-3.0,0.864441,0.171692,-0.470093,0.047363,-0.007634,-0.015267,-0.007634,8.097681,2.344727,4.707397,-0.026318,-0.126807,-0.183032,0.161499,-0.053833,-0.144751,fine
1616135691.669979,1,-5.0,5.0,-11.0,-1.0,-4.0,0.864319,0.171692,-0.470276,0.047363,-0.007634,-0.015267,0.0,8.095288,2.381812,4.726538,-0.029907,-0.089722,-0.159106,0.131592,-0.026318,-0.12561,fine
1616135691.6797876,1,-5.0,6.0,-12.0,-4.0,-6.0,0.864197,0.171631,-0.470581,0.047302,-0.007634,-0.022901,0.0,8.094091,2.422485,4.72893,-0.034692,-0.047852,-0.153125,0.113647,0.00957,-0.11604,fine
1616135691.689762,1,-6.0,1.0,-10.0,0.0,-3.0,0.864075,0.17157,-0.470825,0.047302,-0.015267,-0.022901,0.0,8.100073,2.477515,4.739697,-0.0323,0.007178,-0.137573,0.089722,0.055029,-0.093311,fine
1616135691.6997757,1,-5.0,5.0,-14.0,-4.0,-6.0,0.863953,0.171387,-0.47113,0.04718,-0.022901,-0.022901,0.0,8.11084,2.503833,4.750464,-0.025122,0.037085,-0.122021,0.07417,0.077759,-0.071777,fine
1616135691.7097309,1,-1.0,4.0,-12.0,-2.0,-4.0,0.863831,0.171082,-0.471436,0.047058,-0.030534,-0.015267,0.007634,8.134766,2.513403,4.749268,-0.004785,0.05144,-0.119629,0.080151,0.088525,-0.050244,fine
1616135691.719785,1,-5.0,5.0,-10.0,-5.0,-5.0,0.863831,0.170654,-0.47168,0.046875,-0.038168,-0.015267,0.007634,8.170654,2.5146,4.743286,0.027515,0.057422,-0.124414,0.100488,0.093311,-0.023926,fine
1616135691.7299955,1,-8.0,3.0,-12.0,-4.0,-5.0,0.863831,0.170105,-0.471863,0.046753,-0.038168,-0.007634,0.0,8.186206,2.506226,4.727735,0.040674,0.057422,-0.139966,0.119629,0.096899,-0.020337,fine
1616135694.4967518,1,-5.0,-2.0,-18.0,-4.0,-6.0,0.91333,0.118225,-0.389343,0.013916,-0.015267,-0.015267,0.0,7.03418,2.009766,6.479102,0.031104,0.0,-0.07417,0.072974,0.014355,-0.026318,fine
1616135694.506714,1,-9.0,-4.0,-14.0,-3.0,-6.0,0.913269,0.118103,-0.389526,0.013916,-0.007634,-0.007634,0.0,7.03418,1.967896,6.436035,0.028711,-0.039478,-0.114844,0.105273,-0.013159,-0.063403,fine
1616135694.5168955,1,-6.0,-3.0,-12.0,-2.0,-6.0,0.913208,0.118103,-0.389709,0.013977,0.0,-0.007634,0.0,7.035376,1.959522,6.415698,0.027515,-0.046655,-0.132788,0.118433,-0.016748,-0.077759,fine
1616135694.52674,1,-4.0,-4.0,-12.0,-3.0,-6.0,0.913147,0.118103,-0.389832,0.014038,-0.007634,-0.007634,0.0,7.048535,1.977466,6.413306,0.038281,-0.028711,-0.133984,0.124414,0.0,-0.066992,fine
1616135694.5366309,1,-7.0,-3.0,-15.0,-2.0,-6.0,0.913147,0.118042,-0.389893,0.014099,-0.007634,0.0,0.0,7.055713,1.981055,6.414502,0.044263,-0.022729,-0.131592,0.12561,0.004785,-0.059814,fine
1616135694.546817,1,-5.0,-1.0,-13.0,-5.0,-6.0,0.913147,0.117981,-0.389832,0.014038,-0.007634,0.0,-0.007634,7.060498,1.982251,6.415698,0.050244,-0.021533,-0.131592,0.130396,0.004785,-0.056226,fine
1616135694.5568635,1,-6.0,-4.0,-16.0,2.0,-6.0,0.913208,0.117859,-0.389771,0.013977,-0.015267,0.007634,-0.007634,7.036572,1.979858,6.391772,0.027515,-0.022729,-0.156714,0.132788,0.010767,-0.088525,fine
1616135694.566609,1,-7.0,-3.0,-14.0,-2.0,-6.0,0.913269,0.117737,-0.389709,0.013916,-0.015267,0.007634,-0.007634,7.01145,1.960718,6.375024,0.002393,-0.039478,-0.175854,0.130396,0.001196,-0.123218,fine
1616135694.5766163,1,-5.0,-3.0,-14.0,-2.0,-6.0,0.913269,0.117615,-0.389648,0.013733,-0.015267,0.0,-0.015267,6.993506,1.933203,6.355884,-0.011963,-0.066992,-0.196191,0.137573,-0.019141,-0.153125,fine
1616135694.5868134,1,-3.0,-4.0,-13.0,-2.0,-6.0,0.91333,0.117554,-0.389587,0.013611,-0.007634,0.0,-0.015267,6.989917,1.9021,6.353491,-0.015552,-0.098096,-0.19978,0.141162,-0.049048,-0.163892,fine
1616135694.5968473,1,-3.0,-5.0,-11.0,-2.0,-6.0,0.91333,0.117615,-0.389526,0.013489,0.0,0.007634,-0.015267,6.985132,1.886548,6.370239,-0.017944,-0.114844,-0.183032,0.130396,-0.068188,-0.15791,fine
1616135694.6068728,1,-5.0,-4.0,-14.0,-5.0,-6.0,0.913391,0.117737,-0.389343,0.013428,0.0,0.007634,-0.015267,6.977954,1.91167,6.396558,-0.022729,-0.093311,-0.159106,0.107666,-0.052637,-0.141162,fine
1616135694.6165814,1,-5.0,-3.0,-11.0,-2.0,-7.0,0.913452,0.117859,-0.389221,0.013428,0.0,0.007634,-0.007634,6.973169,1.942773,6.426465,-0.026318,-0.0646,-0.131592,0.081348,-0.031104,-0.119629,fine
1616135694.6266468,1,-4.0,-1.0,-10.0,-4.0,-6.0,0.913513,0.117981,-0.389099,0.013367,0.0,0.007634,-0.007634,6.973169,1.984644,6.467139,-0.023926,-0.025122,-0.092114,0.050244,-0.001196,-0.08374,fine
1616135694.6368177,1,-4.0,-1.0,-10.0,9.0,-5.0,0.913574,0.118103,-0.388916,0.013245,-0.007634,0.007634,-0.007634,6.970777,2.028906,6.503027,-0.022729,0.014355,-0.058618,0.023926,0.028711,-0.05144,fine
1616135694.6459076,1,-3.0,-3.0,-15.0,0.0,-6.0,0.913635,0.118103,-0.388794,0.013123,-0.007634,0.0,-0.007634,6.974365,2.06001,6.522168,-0.017944,0.044263,-0.040674,0.010767,0.052637,-0.029907,fine
1616135694.6566496,1,-4.0,-3.0,-14.0,-4.0,-5.0,0.913635,0.118042,-0.388672,0.012939,-0.015267,0.0,-0.007634,6.982739,2.067188,6.540112,-0.007178,0.05144,-0.023926,0.004785,0.055029,-0.00957,fine
1616135694.6661575,1,-5.0,-4.0,-14.0,0.0,-5.0,0.913696,0.11792,-0.388611,0.012817,-0.015267,0.0,-0.007634,6.99231,2.067188,6.561646,0.002393,0.052637,-0.004785,0.0,0.05144,0.008374,fine
1616135694.6759603,1,-4.0,-3.0,-11.0,-2.0,-6.0,0.913757,0.117798,-0.388489,0.012695,-0.015267,0.0,-0.007634,6.995898,2.052832,6.568823,0.008374,0.039478,0.0,0.001196,0.037085,0.013159,fine
1616135694.6860428,1,-5.0,-4.0,-14.0,-3.0,-6.0,0.913818,0.117676,-0.388428,0.012634,-0.015267,0.0,-0.007634,6.988721,2.014551,6.571216,0.002393,0.002393,0.0,0.001196,0.001196,0.001196,fine
1616135694.6959324,1,-5.0,-2.0,-11.0,0.0,-6.0,0.913818,0.117554,-0.388428,0.012634,-0.007634,-0.007634,-0.007634,6.981543,1.969092,6.566431,-0.003589,-0.039478,-0.003589,0.003589,-0.037085,-0.011963,fine
1616135694.706134,1,-4.0,-5.0,-15.0,-4.0,-6.0,0.913818,0.117615,-0.388428,0.012634,0.0,-0.007634,-0.007634,6.97915,1.959522,6.565234,-0.005981,-0.050244,-0.004785,0.004785,-0.046655,-0.016748,fine
1616135694.7167857,1,-5.0,-3.0,-14.0,-5.0,-6.0,0.913818,0.117676,-0.388489,0.012634,0.0,-0.007634,-0.007634,6.982739,1.970288,6.577197,-0.003589,-0.040674,0.005981,-0.001196,-0.039478,-0.005981,fine
1616135694.7259574,1,-3.0,-4.0,-12.0,-4.0,-5.0,0.913757,0.117798,-0.388489,0.012634,0.0,-0.007634,-0.007634,6.991113,1.975073,6.586768,0.003589,-0.038281,0.016748,-0.004785,-0.040674,0.004785,fine
1616135694.735931,1,-4.0,-4.0,-3.0,-3.0,-3.0,0.913757,0.117798,-0.38855,0.012573,-0.007634,-0.007634,-0.007634,6.999487,1.982251,6.590356,0.010767,-0.031104,0.021533,-0.003589,-0.034692,0.015552,fine
1616135694.745952,1,-7.0,-3.0,-15.0,-3.0,7.0,0.913757,0.117798,-0.38855,0.012451,-0.015267,-0.007634,-0.007634,7.000684,2.007373,6.58916,0.011963,-0.007178,0.020337,-0.004785,-0.011963,0.020337,fine
1616135694.756502,1,-6.0,-2.0,-12.0,-3.0,-5.0,0.913757,0.117615,-0.38855,0.012268,-0.015267,-0.007634,-0.015267,7.000684,2.004981,6.585571,0.013159,-0.007178,0.015552,0.0,-0.010767,0.017944,fine
1616135694.766766,1,-5.0,-4.0,-11.0,-2.0,-5.0,0.913818,0.117432,-0.38855,0.012024,-0.022901,-0.007634,-0.015267,6.99231,1.972681,6.555664,0.004785,-0.038281,-0.014355,0.016748,-0.033496,-0.013159,fine
1616135694.7765768,1,-4.0,-3.0,-14.0,0.0,-5.0,0.913818,0.117249,-0.388611,0.01178,-0.015267,-0.007634,-0.015267,6.97915,1.932007,6.52456,-0.007178,-0.077759,-0.045459,0.035889,-0.0646,-0.05144,fine
1616135694.7866511,1,-4.0,-3.0,-11.0,-1.0,-6.0,0.913818,0.117004,-0.388672,0.011658,-0.015267,-0.007634,-0.007634,6.967187,1.890137,6.485083,-0.020337,-0.11604,-0.084937,0.058618,-0.092114,-0.094507,fine
1616135694.7967043,1,-5.0,-2.0,-12.0,-4.0,-6.0,0.913818,0.116943,-0.388733,0.011597,-0.007634,-0.007634,-0.007634,6.964795,1.863818,6.456372,-0.023926,-0.142358,-0.112451,0.077759,-0.111255,-0.120825,fine
1616135694.806627,1,-4.0,-3.0,-14.0,-3.0,-6.0,0.913757,0.116943,-0.388794,0.011597,0.0,-0.007634,-0.007634,6.968384,1.866211,6.451587,-0.020337,-0.13877,-0.11604,0.082544,-0.10647,-0.119629,fine
1616135694.8167264,1,-1.0,-1.0,-13.0,-1.0,-5.0,0.913757,0.117126,-0.388794,0.011536,0.007634,0.0,-0.015267,6.982739,1.905689,6.465942,-0.005981,-0.104077,-0.101685,0.078955,-0.077759,-0.093311,fine
1616135694.826148,1,-5.0,-5.0,-12.0,-2.0,-6.0,0.913757,0.11731,-0.388794,0.011414,0.0,0.0,-0.015267,6.998291,1.941577,6.47312,0.008374,-0.071777,-0.093311,0.078955,-0.049048,-0.070581,fine
1616135694.8362725,1,-7.0,-4.0,-12.0,-2.0,-6.0,0.913818,0.117432,-0.388611,0.011169,0.0,0.007634,-0.022901,7.006665,1.973877,6.483887,0.020337,-0.044263,-0.084937,0.078955,-0.025122,-0.05144,fine
1616135694.8460183,1,-4.0,-3.0,-13.0,-3.0,-6.0,0.913879,0.117615,-0.388428,0.010925,0.0,0.007634,-0.022901,6.995898,2.014551,6.491065,0.013159,-0.008374,-0.080151,0.065796,0.008374,-0.045459,fine
1616135694.8559775,1,-3.0,-3.0,-14.0,-2.0,-5.0,0.91394,0.117737,-0.388245,0.010742,-0.007634,0.007634,-0.015267,6.989917,2.082739,6.50542,0.00957,0.055029,-0.068188,0.047852,0.066992,-0.027515,fine
1616135694.8660266,1,-6.0,-4.0,-12.0,-2.0,-5.0,0.914001,0.117798,-0.388062,0.010559,-0.015267,0.007634,-0.007634,6.983935,2.148535,6.512598,0.007178,0.118433,-0.063403,0.035889,0.128003,-0.011963,fine
1616135694.876044,1,-4.0,-2.0,-12.0,-5.0,-6.0,0.914062,0.117798,-0.387939,0.010376,-0.015267,0.0,-0.007634,6.994702,2.199975,6.520972,0.020337,0.16748,-0.056226,0.034692,0.173462,0.010767,fine
1616135694.88592,1,-4.0,-3.0,-10.0,-2.0,-5.0,0.914062,0.117798,-0.387878,0.010376,-0.007634,0.0,0.0,7.02461,2.231079,6.516187,0.05144,0.198584,-0.062207,0.057422,0.202173,0.035889,fine
1616135694.895861,1,-3.0,-5.0,-14.0,-1.0,-7.0,0.914001,0.117981,-0.387939,0.010437,0.007634,0.0,0.007634,7.064087,2.288501,6.511401,0.089722,0.253613,-0.0646,0.080151,0.253613,0.072974,fine
1616135694.9061077,1,-7.0,-3.0,-15.0,-4.0,-6.0,0.91394,0.118408,-0.388,0.010742,0.022901,0.0,0.015267,7.123901,2.415308,6.500635,0.14834,0.375635,-0.072974,0.112451,0.369653,0.133984,fine
1616135694.915897,1,-6.0,-2.0,-14.0,-20.0,-6.0,0.913757,0.119141,-0.388123,0.011292,0.038168,0.0,0.030534,7.21123,2.644995,6.503027,0.233276,0.596948,-0.0646,0.139966,0.576611,0.246436,fine
1616135694.9258747,1,-7.0,-5.0,-14.0,-2.0,-6.0,0.913635,0.120117,-0.388184,0.012085,0.045802,0.007634,0.053435,7.342822,3.002686,6.577197,0.362476,0.942676,0.013159,0.133984,0.885254,0.46416,fine
1616135694.935895,1,-3.0,-4.0,-12.0,-2.0,-6.0,0.913513,0.121155,-0.388123,0.013367,0.053435,0.015267,0.091603,7.474414,3.43335,6.699219,0.492871,1.364966,0.13877,0.08374,1.2573,0.730933,fine
1616135694.9459054,1,-4.0,0.0,-14.0,2.0,-5.0,0.913391,0.12207,-0.388,0.01532,0.053435,0.022901,0.145038,7.595239,3.997998,6.849951,0.611304,1.928418,0.291895,-0.014355,1.759741,1.037183,fine
1616135694.955863,1,-7.0,-5.0,-13.0,-4.0,-6.0,0.913269,0.122925,-0.387878,0.017883,0.045802,0.022901,0.198473,7.728027,4.62605,6.989917,0.741699,2.561255,0.435449,-0.11604,2.331567,1.358984,fine
1616135694.9660158,1,-4.0,-4.0,-11.0,-1.0,-5.0,0.913086,0.123535,-0.388,0.02124,0.038168,0.015267,0.267176,7.875171,5.211035,7.096387,0.879272,3.160596,0.545508,-0.194995,2.878272,1.652075,fine
1616135694.9759111,1,-7.0,-5.0,-10.0,-2.0,-6.0,0.912781,0.12384,-0.388367,0.025574,0.045802,0.007634,0.343511,8.022314,5.684766,7.109546,1.012061,3.663037,0.565845,-0.215332,3.355591,1.856641,fine
1616135694.985981,1,-7.0,-4.0,-14.0,-2.0,-4.0,0.91217,0.123962,-0.389282,0.031311,0.076336,-0.015267,0.427481,8.11084,5.894116,6.988721,1.074268,3.91665,0.460571,-0.178247,3.629541,1.867407,fine
1616135694.995839,1,-7.0,-3.0,-14.0,0.0,-6.0,0.911194,0.123962,-0.39093,0.038879,0.137405,-0.053435,0.534351,8.084521,5.750562,6.72793,1.007275,3.834106,0.223706,-0.104077,3.619971,1.624561,fine
1616135695.0059297,1,-6.0,-3.0,-11.0,-2.0,-5.0,0.909546,0.124084,-0.393555,0.048767,0.221374,-0.099237,0.656489,7.938574,5.36416,6.360669,0.803906,3.527856,-0.100488,-0.034692,3.421387,1.179541,fine
1616135695.0159285,1,-5.0,-2.0,-12.0,-3.0,-6.0,0.907227,0.124695,-0.397034,0.060791,0.320611,-0.152672,0.755725,7.75315,4.813867,6.014941,0.544312,3.068481,-0.38999,0.001196,3.0625,0.691455,fine
1616135695.0259347,1,-8.0,0.0,-15.0,-3.0,-5.0,0.904175,0.125977,-0.401184,0.074707,0.427481,-0.198473,0.832061,7.565332,4.140357,5.73501,0.270361,2.494263,-0.598145,0.013159,2.567236,0.233276,fine
1616135695.0358212,1,-8.0,-5.0,-12.0,-3.0,-4.0,0.900574,0.127991,-0.405518,0.089966,0.503817,-0.206107,0.870229,7.394263,3.459668,5.58667,0.00957,1.915259,-0.667529,-0.029907,2.024121,-0.11604,fine
1616135695.0458531,1,-7.0,-2.0,-12.0,-2.0,-6.0,0.89679,0.130249,-0.409363,0.105713,0.534351,-0.19084,0.877863,7.216016,2.806494,5.590259,-0.248828,1.364966,-0.592163,-0.144751,1.455884,-0.361279,fine
1616135695.0559063,1,-4.0,-1.0,-15.0,-4.0,-5.0,0.893188,0.132141,-0.412292,0.121216,0.503817,-0.145038,0.847328,6.970777,2.105469,5.766113,-0.559863,0.771606,-0.358887,-0.350513,0.781177,-0.549097,fine
1616135695.0659454,1,-3.0,-3.0,-15.0,-2.0,-6.0,0.890076,0.132812,-0.414368,0.13562,0.419847,-0.114504,0.770992,6.541308,0.990527,6.248218,-1.039575,-0.224902,0.159106,-0.675903,-0.399561,-0.732129,fine
1616135695.0758476,1,-1.0,1.0,-14.0,-3.0,-5.0,0.887756,0.131226,-0.415527,0.148376,0.320611,-0.083969,0.648855,5.858228,-0.807495,6.748267,-1.752563,-1.881763,0.668726,-0.836206,-2.241846,-1.152026,fine
1616135695.085783,1,0.0,-2.0,-16.0,-2.0,-6.0,0.886292,0.127625,-0.416077,0.158264,0.137405,-0.061069,0.465649,4.945459,-2.708398,7.131079,-2.677295,-3.634326,1.043164,-0.936694,-4.173852,-1.777686,fine
1616135695.095866,1,-1.0,-2.0,-36.0,-2.0,-5.0,0.885925,0.122375,-0.416138,0.164185,-0.015267,-0.038168,0.229008,4.114038,-4.514795,7.371533,-3.505127,-5.299561,1.258496,-0.897217,-5.962305,-2.365063,fine
1616135695.1059682,1,-3.0,-2.0,-12.0,-3.0,-12.0,0.886414,0.116638,-0.415955,0.166077,-0.129771,-0.022901,-0.007634,3.561352,-5.950342,7.27583,-4.044653,-6.622656,1.134082,-0.620874,-7.26626,-2.88186,fine
1616135695.1158686,1,-3.0,-2.0,-14.0,-1.0,-6.0,0.88739,0.111816,-0.41571,0.164734,-0.145038,-0.015267,-0.198473,3.428565,-6.823633,6.962402,-4.16189,-7.425366,0.794336,-0.192603,-7.931396,-3.179736,fine
1616135695.1259952,1,-3.0,-3.0,-14.0,-2.0,-4.0,0.888489,0.108765,-0.415527,0.161316,-0.122137,-0.015267,-0.320611,3.646289,-6.989917,6.595141,-3.933398,-7.570117,0.411523,0.193799,-7.902686,-3.22998,fine
1616135695.1359284,1,-8.0,-1.0,-11.0,-6.0,-5.0,0.889587,0.107483,-0.415222,0.15686,-0.068702,0.0,-0.381679,4.008765,-6.698022,6.278125,-3.561352,-7.294971,0.08374,0.470142,-7.469629,-3.142651,fine
1616135695.1460602,1,-8.0,-1.0,-14.0,0.0,-4.0,0.890747,0.108276,-0.41449,0.151611,0.007634,0.007634,-0.450382,4.410718,-5.802002,6.026904,-3.147437,-6.459961,-0.174658,0.526367,-6.522168,-2.971582,fine
1616135695.155784,1,-7.0,-4.0,-14.0,-3.0,28.0,0.892029,0.110962,-0.41333,0.145264,0.022901,0.015267,-0.503817,4.894019,-4.268359,5.964697,-2.647388,-5.030396,-0.244043,0.305054,-5.059106,-2.582788,fine
1616135695.166027,1,-9.0,0.0,-12.0,4.0,-3.0,0.893494,0.114746,-0.411682,0.137756,0.0,0.030534,-0.541985,5.548388,-2.351904,6.093896,-1.970288,-3.249121,-0.12561,-0.0323,-3.298169,-1.88894,fine
1616135695.1758158,1,-5.0,-3.0,-12.0,-2.0,-6.0,0.895203,0.118896,-0.409485,0.129517,-0.038168,0.076336,-0.534351,6.377417,-0.212939,6.409717,-1.10896,-1.258496,0.173462,-0.406738,-1.384106,-0.870898,fine
1616135695.1857514,1,-3.0,-2.0,-17.0,-4.0,-6.0,0.897095,0.122986,-0.406677,0.121277,-0.076336,0.122137,-0.48855,7.220801,1.917651,6.780566,-0.221313,0.721362,0.517993,-0.732129,0.48689,0.250024,fine
1616135695.1958485,1,-5.0,-2.0,-15.0,-2.0,-5.0,0.898987,0.126404,-0.403625,0.11377,-0.114504,0.145038,-0.389313,7.948144,3.893921,7.111938,0.553882,2.56604,0.817065,-0.996509,2.213135,1.2896,fine
1616135695.2057395,1,-9.0,-2.0,-12.0,-1.0,-6.0,0.900635,0.129028,-0.400757,0.107727,-0.137405,0.137405,-0.259542,8.504419,5.597436,7.346411,1.156811,4.165479,1.020435,-1.187915,3.708496,2.13418,fine
1616135695.2158527,1,-9.0,-3.0,-12.0,-2.0,-5.0,0.901733,0.130798,-0.398804,0.103577,-0.145038,0.083969,-0.10687,8.868091,6.888232,7.42417,1.55398,5.385694,1.07666,-1.286011,4.870093,2.68208,fine
1616135695.2258904,1,-7.0,-4.0,-13.0,0.0,-6.0,0.901917,0.131836,-0.398438,0.101807,-0.114504,0.0,0.061069,9.058301,7.60481,7.294971,1.751367,6.068774,0.947461,-1.24773,5.566333,2.869897,fine
1616135695.2357378,1,-8.0,-4.0,-15.0,-4.0,-6.0,0.901062,0.132446,-0.399902,0.102661,-0.045802,-0.099237,0.21374,9.199463,7.736402,7.007861,1.8698,6.201562,0.68667,-1.047949,5.779273,2.811279,fine
1616135695.2459607,1,-5.0,0.0,-11.0,0.0,-5.0,0.899231,0.133118,-0.403015,0.105957,0.045802,-0.175573,0.328244,9.309522,7.364356,6.625049,1.929614,5.854639,0.355298,-0.730933,5.560351,2.581592,fine
1616135695.2557075,1,-6.0,-1.0,-12.0,-2.0,-5.0,0.896484,0.134094,-0.407227,0.11145,0.137405,-0.221374,0.419847,9.351392,6.639404,6.215918,1.9021,5.172754,0.019141,-0.387598,5.023218,2.231079,fine
1616135695.265826,1,-7.0,-1.0,-12.0,-2.0,-5.0,0.893311,0.135254,-0.411804,0.118652,0.21374,-0.236641,0.48855,9.291577,5.803198,5.880957,1.765723,4.391577,-0.235669,-0.136377,4.364062,1.839893,fine
1616135695.275838,1,-9.0,-1.0,-14.0,-4.0,-4.0,0.890076,0.13623,-0.416077,0.126831,0.221374,-0.21374,0.519084,9.107348,4.943067,5.699121,1.509717,3.599634,-0.343335,-0.039478,3.639111,1.451099,fine
1616135695.2857864,1,-9.0,-3.0,-16.0,-2.0,-6.0,0.887207,0.136169,-0.419556,0.135193,0.183206,-0.167939,0.526718,8.779566,4.00398,5.663232,1.122119,2.74668,-0.322998,-0.057422,2.799316,1.031201,fine
1616135695.295838,1,-1.0,-3.0,-14.0,2.0,-6.0,0.884827,0.134644,-0.422302,0.143311,0.10687,-0.122137,0.51145,8.275928,2.871094,5.69314,0.573022,1.72146,-0.25481,-0.10647,1.759741,0.49646,fine
1616135695.3051064,1,-2.0,0.0,-14.0,-3.0,-5.0,0.883179,0.131348,-0.424316,0.150574,0.022901,-0.083969,0.458015,7.550977,1.213037,5.821143,-0.18064,0.191406,-0.111255,-0.100488,0.187817,-0.189014,fine
1616135695.3157563,1,0.0,0.0,-16.0,0.0,-6.0,0.882141,0.126343,-0.42572,0.156799,-0.045802,-0.053435,0.351145,6.651367,-0.821851,5.926416,-1.096997,-1.697534,-0.007178,0.010767,-1.741797,-1.022827,fine
1616135695.3259332,1,-1.0,-1.0,-29.0,-2.0,-5.0,0.881836,0.120605,-0.426453,0.161072,-0.099237,-0.022901,0.198473,5.697925,-2.817261,5.970679,-2.052832,-3.555371,0.020337,0.161499,-3.646289,-1.878174,fine
1616135695.3357382,1,1.0,-3.0,-14.0,2.0,-3.0,0.88208,0.115173,-0.426636,0.162964,-0.114504,-0.007634,0.022901,4.926318,-4.450195,5.883349,-2.817261,-5.078247,-0.087329,0.379224,-5.176343,-2.604321,fine
1616135695.3459392,1,-3.0,-3.0,-12.0,3.0,1.0,0.88269,0.111328,-0.426514,0.162781,-0.076336,0.0,-0.129771,4.471728,-5.420386,5.715869,-3.26228,-5.985034,-0.275146,0.582593,-6.054419,-3.087622,fine
1616135695.3556774,1,-4.0,-1.0,-15.0,-5.0,-6.0,0.883362,0.109253,-0.426208,0.161316,-0.022901,-0.015267,-0.206107,4.291089,-5.770898,5.566333,-3.43335,-6.314013,-0.437842,0.693848,-6.34751,-3.324487,fine
1616135695.3659973,1,-3.0,-1.0,-14.0,2.0,-6.0,0.884033,0.108826,-0.425842,0.158997,0.022901,-0.015267,-0.267176,4.320996,-5.58667,5.499341,-3.396265,-6.144141,-0.513208,0.672314,-6.158496,-3.338843,fine
1616135695.3758512,1,-5.0,-3.0,-16.0,-4.0,-6.0,0.884888,0.109924,-0.425049,0.155396,0.030534,0.0,-0.358779,4.51958,-4.914355,5.581885,-3.186914,-5.525659,-0.439038,0.468945,-5.559155,-3.119922,fine
1616135695.3856895,1,-5.0,-1.0,-14.0,0.0,-5.0,0.886292,0.111755,-0.423645,0.150024,0.0,0.030534,-0.450382,4.831811,-4.086524,5.748169,-2.855542,-4.781568,-0.288306,0.228491,-4.841382,-2.75625,fine
1616135695.3957283,1,-5.0,-6.0,-13.0,-2.0,-6.0,0.888062,0.113831,-0.421692,0.143311,-0.038168,0.061069,-0.51145,5.171557,-3.227588,5.922827,-2.487085,-4.024316,-0.137573,0.008374,-4.103271,-2.355493,fine
1616135695.4056845,1,-5.0,-1.0,-12.0,-48.0,-4.0,0.889954,0.116211,-0.419495,0.135681,-0.053435,0.061069,-0.549618,5.477808,-2.321997,6.11543,-2.147339,-3.232373,0.029907,-0.236865,-3.343628,-1.952344,fine
1616135695.4158309,1,-4.0,-3.0,-12.0,-7.0,-4.0,0.891785,0.119019,-0.417419,0.127563,-0.045802,0.038168,-0.564885,5.761328,-1.384106,6.300855,-1.831519,-2.420093,0.193799,-0.479712,-2.568433,-1.55398,fine
1616135695.4258564,1,-8.0,-4.0,-15.0,-2.0,-6.0,0.89325,0.122314,-0.415771,0.119324,-0.045802,0.0,-0.549618,6.08313,-0.33855,6.500635,-1.481006,-1.507324,0.381616,-0.723755,-1.704712,-1.083838,fine
1616135695.435686,1,-5.0,-2.0,-12.0,-4.0,-4.0,0.894287,0.125793,-0.414795,0.111084,-0.061069,-0.053435,-0.519084,6.442017,0.746484,6.699219,-1.101782,-0.555078,0.581396,-0.94148,-0.811084,-0.558667,fine
1616135695.4458437,1,-7.0,-3.0,-12.0,0.0,-6.0,0.894897,0.128845,-0.414673,0.102905,-0.099237,-0.099237,-0.480916,6.830811,1.796826,6.841577,-0.702222,0.373242,0.736914,-1.081445,0.065796,-0.026318,fine
1616135695.4556272,1,-7.0,-3.0,-14.0,-3.0,-6.0,0.895142,0.131287,-0.415222,0.09491,-0.145038,-0.122137,-0.435115,7.239942,2.666528,6.910962,-0.288306,1.135278,0.827832,-1.094604,0.797925,0.468945,fine
1616135695.4650393,1,-7.0,-3.0,-14.0,-2.0,-4.0,0.895264,0.132996,-0.416199,0.087219,-0.167939,-0.129771,-0.396947,7.64668,3.247925,6.865503,0.11604,1.624561,0.806299,-0.94148,1.296777,0.855347,fine
1616135695.4758086,1,-5.0,-3.0,-12.0,-2.0,-6.0,0.895142,0.134155,-0.417419,0.0802,-0.175573,-0.122137,-0.358779,7.974463,3.621167,6.708789,0.439038,1.922436,0.6771,-0.702222,1.634131,1.086231,fine
1616135695.484923,1,-4.0,-2.0,-10.0,-4.0,-6.0,0.89502,0.135071,-0.41864,0.073669,-0.167939,-0.114504,-0.328244,8.195776,3.84248,6.471924,0.656763,2.076758,0.46416,-0.427075,1.849463,1.162793,fine
1616135695.4950688,1,-7.0,-3.0,-14.0,-2.0,-4.0,0.894836,0.135925,-0.419739,0.067627,-0.152672,-0.091603,-0.305344,8.35249,3.886743,6.203955,0.809888,2.058814,0.218921,-0.126807,1.903296,1.140064,fine
1616135695.504949,1,-7.0,-4.0,-11.0,0.0,-5.0,0.894653,0.13678,-0.420593,0.062317,-0.129771,-0.068702,-0.274809,8.425464,3.777881,5.912061,0.882861,1.892529,-0.052637,0.173462,1.818359,1.010864,fine
1616135695.515095,1,-5.0,-2.0,-12.0,-1.0,-4.0,0.894531,0.137756,-0.421204,0.057861,-0.083969,-0.045802,-0.244275,8.448194,3.651074,5.666821,0.906787,1.713086,-0.282324,0.410327,1.708301,0.864917,fine
1616135695.5255852,1,-5.0,-2.0,-14.0,-2.0,-6.0,0.89447,0.138916,-0.421509,0.054016,-0.061069,-0.022901,-0.21374,8.378809,3.621167,5.476611,0.840991,1.631738,-0.461768,0.52876,1.677197,0.697437,fine
1616135695.5348282,1,-5.0,0.0,-14.0,-1.0,-5.0,0.894409,0.140259,-0.421631,0.050598,-0.053435,-0.015267,-0.19084,8.24602,3.670215,5.359375,0.715381,1.629346,-0.569434,0.53833,1.703516,0.544312,fine
1616135695.54513,1,-5.0,-1.0,-15.0,4.0,-6.0,0.89447,0.141174,-0.421509,0.047363,-0.068702,-0.007634,-0.175573,8.116821,3.724048,5.319898,0.595752,1.640112,-0.605322,0.495264,1.723853,0.439038,fine
1616135695.555089,1,-7.0,-3.0,-14.0,-1.0,-6.0,0.894653,0.141724,-0.421387,0.044373,-0.091603,0.0,-0.152672,8.019922,3.730029,5.31272,0.507227,1.610205,-0.6125,0.458179,1.696338,0.366064,fine
1616135695.564834,1,-7.0,0.0,-11.0,6.0,-2.0,0.894836,0.141846,-0.421143,0.041565,-0.099237,0.007634,-0.129771,7.973267,3.651074,5.336646,0.471338,1.506128,-0.590967,0.448608,1.588672,0.332568,fine
1616135695.574962,1,-6.0,-1.0,-14.0,-4.0,-5.0,0.895142,0.141785,-0.420837,0.039246,-0.091603,0.015267,-0.114504,7.931396,3.542212,5.372534,0.437842,1.378125,-0.562256,0.436646,1.458276,0.297876,fine
1616135695.584869,1,-1.0,-1.0,-13.0,-1.0,-6.0,0.895386,0.141663,-0.420471,0.037354,-0.076336,0.022901,-0.091603,7.895508,3.439331,5.414404,0.411523,1.260889,-0.526367,0.419897,1.335059,0.275146,fine
1616135695.5949728,1,-5.0,-3.0,-11.0,-2.0,-5.0,0.89563,0.141541,-0.420044,0.035828,-0.061069,0.022901,-0.068702,7.866797,3.349609,5.469434,0.393579,1.159204,-0.478516,0.395972,1.223804,0.267969,fine
1616135695.605079,1,-4.0,-3.0,-13.0,2.0,14.0,0.895874,0.141479,-0.419678,0.034729,-0.053435,0.022901,-0.045802,7.833301,3.282617,5.550781,0.367261,1.083838,-0.403149,0.339746,1.130493,0.277539,fine
1616135695.615013,1,-7.0,-3.0,-14.0,-4.0,-5.0,0.896118,0.141357,-0.41925,0.033813,-0.045802,0.022901,-0.038168,7.797412,3.232373,5.644092,0.339746,1.026416,-0.318213,0.271558,1.052734,0.295483,fine
1616135695.62487,1,-6.0,-2.0,-13.0,-1.0,-5.0,0.896362,0.141174,-0.418945,0.033081,-0.053435,0.015267,-0.022901,7.77229,3.170166,5.750562,0.319409,0.96062,-0.217725,0.197388,0.961816,0.326587,fine
1616135695.634978,1,-4.0,-3.0,-14.0,0.0,-6.0,0.896545,0.140747,-0.418701,0.032471,-0.053435,0.015267,-0.015267,7.774683,3.073267,5.852246,0.326587,0.866113,-0.122021,0.14834,0.84458,0.368457,fine
1616135695.6448488,1,-4.0,-1.0,-12.0,11.0,-6.0,0.89679,0.140137,-0.418457,0.032043,-0.061069,0.015267,-0.007634,7.787842,2.948853,5.94436,0.344531,0.747681,-0.038281,0.120825,0.705811,0.405542,fine
1616135695.6550574,1,-7.0,-2.0,-14.0,-1.0,-6.0,0.897034,0.139404,-0.418213,0.031677,-0.061069,0.015267,0.0,7.799805,2.816064,6.002978,0.360083,0.624463,0.010767,0.11604,0.574219,0.418701,fine
1616135695.6649468,1,-7.0,1.0,-11.0,-1.0,-4.0,0.897278,0.138611,-0.417908,0.031372,-0.061069,0.022901,0.0,7.784253,2.688061,6.029297,0.349316,0.507227,0.028711,0.117236,0.456982,0.394775,fine
1616135695.6751037,1,-8.0,-1.0,-15.0,-4.0,-4.0,0.897522,0.137817,-0.417664,0.031067,-0.061069,0.022901,0.0,7.754346,2.564844,6.030493,0.322998,0.393579,0.021533,0.12561,0.351709,0.344531,fine
1616135695.6848035,1,-5.0,-3.0,-14.0,-2.0,-6.0,0.897766,0.137146,-0.417419,0.030823,-0.045802,0.022901,-0.007634,7.714868,2.444019,6.005371,0.285913,0.282324,-0.00957,0.144751,0.256006,0.272754,fine
1616135695.6948,1,-7.0,-3.0,-14.0,-4.0,-5.0,0.897949,0.136536,-0.417175,0.030579,-0.038168,0.022901,-0.007634,7.661035,2.33396,5.96709,0.236865,0.18064,-0.055029,0.163892,0.173462,0.184229,fine
1616135695.7051132,1,-3.0,-1.0,-14.0,-2.0,-5.0,0.898193,0.136169,-0.41687,0.030396,-0.022901,0.022901,-0.015267,7.594043,2.240649,5.939575,0.173462,0.090918,-0.089722,0.163892,0.100488,0.095703,fine
1616135695.7148533,1,-4.0,1.0,-12.0,0.0,-6.0,0.898376,0.135986,-0.416565,0.030212,-0.015267,0.022901,-0.015267,7.512695,2.149731,5.904883,0.096899,0.001196,-0.131592,0.160303,0.029907,-0.007178,fine
1616135695.7248874,1,-5.0,-1.0,-14.0,0.0,-5.0,0.898499,0.135986,-0.41626,0.030212,0.0,0.015267,-0.015267,7.418189,2.071973,5.884546,0.005981,-0.075366,-0.155518,0.130396,-0.029907,-0.107666,fine
1616135695.734787,1,-7.0,-5.0,-13.0,0.0,-5.0,0.89856,0.136047,-0.416016,0.030273,0.007634,0.007634,-0.007634,7.316504,2.010962,5.852246,-0.090918,-0.137573,-0.191406,0.105273,-0.07417,-0.216528,fine
1616135695.7449276,1,-4.0,-6.0,-13.0,14.0,-6.0,0.89856,0.13623,-0.416016,0.030457,0.015267,-0.007634,0.0,7.214819,2.032495,5.849854,-0.192603,-0.117236,-0.193799,0.037085,-0.047852,-0.290698,fine
1616135695.7552469,1,-7.0,-3.0,-15.0,-2.0,-5.0,0.898499,0.136475,-0.416077,0.030457,0.007634,-0.015267,-0.007634,7.181323,2.113843,5.877368,-0.227295,-0.040674,-0.163892,-0.019141,0.017944,-0.281128,fine
1616135695.7651093,1,-5.0,-1.0,-13.0,-1.0,-3.0,0.898438,0.136536,-0.416138,0.030273,-0.007634,-0.015267,-0.015267,7.206445,2.16648,5.915649,-0.202173,0.008374,-0.123218,-0.04187,0.052637,-0.226099,fine
1616135695.77509,1,-7.0,-5.0,-15.0,0.0,-5.0,0.898438,0.136414,-0.416199,0.029968,-0.022901,-0.007634,-0.015267,7.259082,2.193994,5.953931,-0.149536,0.035889,-0.084937,-0.039478,0.065796,-0.156714,fine
1616135695.7849867,1,-8.0,-1.0,-12.0,-4.0,-6.0,0.898499,0.136169,-0.416138,0.029602,-0.030534,0.0,-0.015267,7.320093,2.171265,5.969482,-0.087329,0.014355,-0.071777,-0.005981,0.038281,-0.10647,fine
1616135695.7950366,1,-8.0,-2.0,-14.0,-1.0,-6.0,0.898682,0.135864,-0.416016,0.029297,-0.030534,0.015267,-0.015267,7.372729,2.121021,5.964697,-0.0323,-0.0323,-0.081348,0.044263,-0.007178,-0.081348,fine
1616135695.8050687,1,-3.0,-1.0,-11.0,2.0,-5.0,0.898804,0.13562,-0.415771,0.029114,-0.022901,0.015267,-0.015267,7.403833,2.092309,5.952734,0.001196,-0.058618,-0.098096,0.082544,-0.029907,-0.071777,fine
1616135695.8148787,1,-6.0,-3.0,-12.0,-4.0,-6.0,0.898926,0.135498,-0.415527,0.028931,-0.015267,0.015267,-0.015267,7.416992,2.083935,5.946753,0.017944,-0.066992,-0.107666,0.101685,-0.035889,-0.066992,fine
1616135695.8251536,1,-7.0,0.0,-12.0,-2.0,-3.0,0.899109,0.135437,-0.415222,0.02887,-0.007634,0.015267,-0.015267,7.416992,2.056421,5.941968,0.022729,-0.094507,-0.118433,0.117236,-0.059814,-0.076563,fine
1616135695.8348362,1,-5.0,-1.0,-12.0,-2.0,-6.0,0.89917,0.135498,-0.415039,0.02887,0.0,0.007634,-0.007634,7.418189,2.038476,5.949145,0.026318,-0.113647,-0.113647,0.119629,-0.080151,-0.075366,fine
1616135695.8450851,1,-5.0,-3.0,-15.0,-5.0,-6.0,0.899231,0.13562,-0.414917,0.02887,0.007634,0.007634,-0.007634,7.411011,2.043262,5.96709,0.020337,-0.111255,-0.098096,0.102881,-0.081348,-0.069385,fine
1616135695.8547962,1,-4.0,-1.0,-12.0,-1.0,-5.0,0.899231,0.135864,-0.414856,0.028931,0.007634,0.0,-0.007634,7.406226,2.065991,5.99939,0.016748,-0.093311,-0.0646,0.072974,-0.072974,-0.047852,fine
1616135695.8649278,1,-5.0,-1.0,-14.0,-2.0,-6.0,0.89917,0.136047,-0.414917,0.028992,0.007634,-0.015267,-0.007634,7.396655,2.103076,6.03169,0.005981,-0.058618,-0.031104,0.035889,-0.047852,-0.027515,fine
1616135695.8749444,1,-5.0,-1.0,-14.0,-1.0,-6.0,0.899048,0.13623,-0.415039,0.028992,0.007634,-0.015267,-0.007634,7.400244,2.130591,6.067578,0.008374,-0.033496,0.007178,0.004785,-0.033496,0.002393,fine
1616135695.884772,1,-7.0,-4.0,-12.0,-8.0,-6.0,0.898926,0.136353,-0.415222,0.028931,0.007634,-0.022901,-0.007634,7.425366,2.128198,6.096289,0.031104,-0.038281,0.040674,-0.002393,-0.049048,0.039478,fine
1616135695.894928,1,-4.0,-3.0,-10.0,0.0,-5.0,0.898804,0.136597,-0.415405,0.028931,0.015267,-0.015267,-0.007634,7.438525,2.112647,6.089111,0.04187,-0.057422,0.037085,0.008374,-0.066992,0.040674,fine
1616135695.9047267,1,-7.0,-3.0,-14.0,0.0,-6.0,0.898682,0.136902,-0.415649,0.028992,0.022901,-0.015267,-0.007634,7.428955,2.091113,6.067578,0.028711,-0.08374,0.020337,0.016748,-0.087329,0.015552,fine
1616135695.9149532,1,-4.0,-4.0,-13.0,-1.0,-5.0,0.898499,0.13739,-0.415833,0.029114,0.030534,-0.022901,-0.007634,7.409814,2.077954,6.035278,0.007178,-0.104077,-0.004785,0.025122,-0.098096,-0.020337,fine
1616135695.9248238,1,-5.0,-4.0,-14.0,4.0,-5.0,0.898315,0.138,-0.416077,0.029297,0.038168,-0.022901,-0.007634,7.388281,2.093506,6.001782,-0.016748,-0.096899,-0.031104,0.027515,-0.082544,-0.052637,fine
1616135695.934637,1,-3.0,4.0,-12.0,0.0,-4.0,0.898071,0.138672,-0.416321,0.02948,0.038168,-0.022901,-0.007634,7.381104,2.128198,5.979053,-0.026318,-0.071777,-0.045459,0.027515,-0.053833,-0.063403,fine
1616135695.9448576,1,-5.0,-3.0,-15.0,0.0,-4.0,0.897888,0.139282,-0.416504,0.029541,0.030534,-0.015267,-0.015267,7.393066,2.184424,5.968286,-0.016748,-0.025122,-0.050244,0.029907,-0.008374,-0.049048,fine
1616135695.9551902,1,-5.0,0.0,-14.0,0.0,-3.0,0.897827,0.139648,-0.416565,0.02948,0.007634,-0.007634,-0.015267,7.402637,2.263379,5.959912,-0.008374,0.045459,-0.056226,0.027515,0.058618,-0.029907,fine
1616135695.966355,1,-6.0,-4.0,-14.0,-3.0,-4.0,0.897766,0.139709,-0.416565,0.029297,-0.015267,0.0,-0.007634,7.406226,2.290894,5.940772,-0.003589,0.070581,-0.07417,0.039478,0.087329,-0.031104,fine
1616135695.9747365,1,-7.0,0.0,-12.0,-2.0,-4.0,0.897827,0.139465,-0.416565,0.029175,-0.022901,0.0,0.0,7.412207,2.266968,5.903687,0.001196,0.050244,-0.112451,0.075366,0.078955,-0.056226,fine
1616135695.984816,1,-5.0,-1.0,-12.0,-2.0,-3.0,0.897888,0.139099,-0.416565,0.029053,-0.030534,0.007634,0.0,7.422974,2.223901,5.861816,0.011963,0.011963,-0.156714,0.120825,0.052637,-0.08374,fine
1616135697.4326556,1,-5.0,-1.0,-10.0,0.0,-5.0,0.901245,0.134399,-0.411743,0.012329,-0.007634,-0.007634,-0.007634,7.338037,2.416504,6.172852,0.0323,0.141162,0.049048,-0.033496,0.119629,0.087329,fine
1616135697.4426882,1,-3.0,-3.0,-15.0,-2.0,-5.0,0.901184,0.134399,-0.411804,0.012329,0.0,-0.007634,0.0,7.346411,2.396167,6.16687,0.039478,0.120825,0.044263,-0.021533,0.101685,0.084937,fine
1616135697.4530451,1,-6.0,-1.0,-11.0,0.0,-5.0,0.901123,0.13446,-0.411926,0.012329,0.0,-0.007634,0.0,7.357178,2.384204,6.168067,0.049048,0.108862,0.047852,-0.016748,0.087329,0.090918,fine
1616135697.462856,1,-3.0,0.0,-11.0,0.0,-4.0,0.901062,0.13446,-0.412048,0.01239,0.0,-0.007634,0.0,7.358374,2.363867,6.162085,0.047852,0.088525,0.044263,-0.011963,0.069385,0.08374,fine
1616135697.4727678,1,-5.0,-1.0,-11.0,-2.0,-4.0,0.901062,0.134399,-0.41217,0.012451,-0.007634,-0.007634,0.0,7.358374,2.347119,6.144141,0.045459,0.072974,0.027515,0.0,0.058618,0.066992,fine
1616135697.482723,1,-3.0,-1.0,-10.0,-1.0,-5.0,0.901001,0.134338,-0.412231,0.012573,-0.007634,-0.007634,0.007634,7.346411,2.342334,6.120215,0.0323,0.070581,0.004785,0.007178,0.063403,0.043066,fine
1616135697.4927485,1,-4.0,-2.0,-13.0,0.0,-5.0,0.901001,0.134216,-0.412354,0.012573,-0.015267,-0.007634,0.0,7.333252,2.32439,6.090308,0.017944,0.055029,-0.023926,0.021533,0.057422,0.010767,fine
1616135697.5027466,1,-5.0,-3.0,-14.0,-2.0,-5.0,0.901001,0.133972,-0.412415,0.012573,-0.015267,-0.007634,0.0,7.323682,2.278931,6.065186,0.007178,0.014355,-0.049048,0.038281,0.025122,-0.021533,fine
1616135697.5129082,1,-3.0,0.0,-13.0,0.0,-4.0,0.901001,0.133789,-0.412476,0.012634,-0.015267,-0.007634,0.0,7.310523,2.233472,6.040063,-0.005981,-0.026318,-0.07417,0.053833,-0.005981,-0.056226,fine
1616135697.5228295,1,-3.0,-16.0,-12.0,0.0,-3.0,0.901001,0.133606,-0.412476,0.012634,-0.007634,0.0,0.0,7.290185,2.201172,6.023315,-0.026318,-0.055029,-0.090918,0.056226,-0.027515,-0.088525,fine
1616135697.5329485,1,-5.0,-2.0,-12.0,0.0,-4.0,0.901001,0.133484,-0.412476,0.012695,-0.007634,0.0,0.0,7.272241,2.190405,6.000586,-0.044263,-0.063403,-0.113647,0.062207,-0.028711,-0.118433,fine
1616135697.5428846,1,-5.0,-2.0,-14.0,-1.0,-4.0,0.901001,0.133423,-0.412537,0.012634,-0.007634,0.0,-0.007634,7.25669,2.171265,5.996997,-0.061011,-0.082544,-0.117236,0.057422,-0.044263,-0.137573,fine
1616135697.5530522,1,-7.0,-1.0,-15.0,0.0,-4.0,0.901001,0.133362,-0.412537,0.012634,-0.007634,0.0,-0.007634,7.257886,2.142554,5.993408,-0.059814,-0.110059,-0.120825,0.063403,-0.070581,-0.144751,fine
1616135697.5627556,1,-3.0,-1.0,-11.0,1.0,-4.0,0.901001,0.133362,-0.412537,0.012573,0.0,0.0,-0.015267,7.265063,2.130591,5.992212,-0.052637,-0.122021,-0.122021,0.071777,-0.081348,-0.142358,fine
1616135697.572889,1,-5.0,-3.0,-15.0,-1.0,-5.0,0.901001,0.133484,-0.412476,0.012451,0.0,0.0,-0.015267,7.274634,2.142554,6.005371,-0.04187,-0.113647,-0.108862,0.066992,-0.077759,-0.124414,fine
1616135697.5828576,1,-5.0,-3.0,-13.0,-1.0,-4.0,0.901062,0.133667,-0.412415,0.012268,0.0,0.0,-0.022901,7.274634,2.17605,6.019727,-0.040674,-0.084937,-0.095703,0.055029,-0.053833,-0.108862,fine
1616135697.5929973,1,-4.0,-1.0,-11.0,0.0,-6.0,0.901062,0.133789,-0.412292,0.012024,-0.007634,0.0,-0.022901,7.273438,2.22749,6.046045,-0.039478,-0.037085,-0.070581,0.029907,-0.014355,-0.081348,fine
1616135697.6028993,1,-5.0,1.0,-11.0,0.0,-5.0,0.901123,0.13385,-0.41217,0.01178,-0.015267,0.0,-0.015267,7.280615,2.276538,6.075952,-0.029907,0.007178,-0.04187,0.00957,0.019141,-0.046655,fine
1616135697.613047,1,-5.0,-2.0,-12.0,-2.0,-3.0,0.901123,0.133728,-0.41217,0.011475,-0.022901,-0.007634,-0.015267,7.294971,2.308838,6.087915,-0.014355,0.039478,-0.029907,0.007178,0.046655,-0.019141,fine
1616135697.6228242,1,-6.0,-1.0,-12.0,0.0,-4.0,0.901184,0.133606,-0.41217,0.01123,-0.022901,-0.007634,-0.007634,7.314111,2.306445,6.080737,0.003589,0.037085,-0.039478,0.026318,0.044263,-0.013159,fine
1616135697.632836,1,-3.0,-1.0,-12.0,0.0,-1.0,0.901184,0.133423,-0.41217,0.011108,-0.015267,0.0,-0.007634,7.333252,2.305249,6.07356,0.023926,0.038281,-0.046655,0.044263,0.045459,-0.002393,fine
1616135697.6428993,1,-4.0,-1.0,-12.0,-2.0,-6.0,0.901184,0.133362,-0.412231,0.011047,-0.007634,0.0,-0.007634,7.34043,2.319604,6.044848,0.029907,0.052637,-0.075366,0.068188,0.065796,-0.011963,fine
1616135697.6527154,1,-4.0,0.0,-11.0,6.0,-3.0,0.901184,0.133362,-0.412231,0.010986,-0.007634,-0.007634,-0.007634,7.342822,2.335156,6.020923,0.0323,0.068188,-0.099292,0.084937,0.087329,-0.021533,fine
1616135697.6630154,1,-5.0,-3.0,-12.0,-1.0,-1.0,0.901123,0.133423,-0.412292,0.010925,-0.007634,0.0,-0.007634,7.373926,2.329175,6.004175,0.063403,0.059814,-0.113647,0.117236,0.080151,-0.00957,fine
1616135697.672951,1,-4.0,-3.0,-14.0,-5.0,-3.0,0.901123,0.133484,-0.412354,0.010986,0.0,0.0,0.0,7.401441,2.312427,5.98623,0.088525,0.043066,-0.131592,0.149536,0.065796,-0.005981,fine
1616135697.6826534,1,-4.0,0.0,-13.0,-1.0,-6.0,0.901123,0.133667,-0.412292,0.011047,0.007634,0.007634,0.0,7.411011,2.332764,5.965894,0.099292,0.061011,-0.151929,0.169873,0.087329,-0.005981,fine
1616135697.6926746,1,-4.0,-1.0,-12.0,2.0,-1.0,0.901123,0.133911,-0.41217,0.011169,0.007634,0.007634,0.0,7.400244,2.377026,5.95752,0.090918,0.101685,-0.160303,0.165088,0.129199,-0.008374,fine
1616135697.7027404,1,-9.0,0.0,-12.0,2.0,-4.0,0.901123,0.134155,-0.412109,0.011292,0.007634,0.0,0.0,7.378711,2.410522,5.951538,0.069385,0.131592,-0.166284,0.150732,0.161499,-0.020337,fine
1616135697.7126558,1,-5.0,0.0,-11.0,0.0,-1.0,0.901062,0.134338,-0.41217,0.011536,0.007634,0.0,0.007634,7.378711,2.426074,5.950342,0.068188,0.145947,-0.165088,0.147144,0.175854,-0.017944,fine
1616135697.722809,1,-7.0,-1.0,-14.0,0.0,-5.0,0.901001,0.13446,-0.412231,0.01178,0.007634,-0.007634,0.015267,7.379907,2.45,5.945557,0.068188,0.169873,-0.168677,0.147144,0.19978,-0.014355,fine
1616135697.7328317,1,-4.0,0.0,-11.0,0.0,-5.0,0.90094,0.134644,-0.412354,0.012085,0.007634,-0.007634,0.015267,7.400244,2.483496,5.961108,0.086133,0.203369,-0.150732,0.141162,0.226099,0.016748,fine
1616135697.741955,1,-4.0,-1.0,-11.0,0.0,-2.0,0.900879,0.134766,-0.412415,0.012451,0.007634,0.0,0.022901,7.427759,2.538525,5.992212,0.112451,0.258398,-0.117236,0.12561,0.267969,0.070581,fine
1616135697.7528796,1,-5.0,-1.0,-11.0,3.0,-1.0,0.900818,0.134888,-0.412415,0.012939,0.007634,0.0,0.030534,7.439722,2.563648,6.005371,0.123218,0.285913,-0.102881,0.118433,0.289502,0.093311,fine
1616135697.7629275,1,-4.0,-3.0,-12.0,0.0,-4.0,0.900818,0.134888,-0.412415,0.013489,0.007634,0.007634,0.038168,7.448096,2.55647,6.007764,0.130396,0.283521,-0.100488,0.120825,0.287109,0.099292,fine
1616135697.772641,1,-1.0,1.0,-12.0,-2.0,-6.0,0.900818,0.134888,-0.412476,0.014221,0.015267,0.007634,0.038168,7.45647,2.53374,6.007764,0.135181,0.266772,-0.100488,0.126807,0.270361,0.099292,fine
1616135697.7820733,1,-5.0,-1.0,-12.0,2.0,-3.0,0.900757,0.135071,-0.412537,0.015137,0.030534,0.0,0.045802,7.464844,2.532544,6.013745,0.141162,0.269165,-0.092114,0.123218,0.270361,0.110059,fine
1616135697.792181,1,-3.0,-3.0,-11.0,-1.0,-3.0,0.900635,0.135376,-0.412598,0.016174,0.038168,0.0,0.053435,7.467237,2.567236,6.020923,0.139966,0.307446,-0.082544,0.108862,0.305054,0.123218,fine
1616135697.8019328,1,-1.0,-4.0,-12.0,2.0,-5.0,0.900513,0.135742,-0.41272,0.017273,0.038168,0.0,0.061069,7.481592,2.63064,6.032886,0.150732,0.374438,-0.066992,0.094507,0.364868,0.156714,fine
1616135697.8120475,1,-3.0,5.0,-11.0,0.0,-3.0,0.90033,0.136047,-0.412903,0.018433,0.030534,0.0,0.068702,7.506714,2.686865,6.038867,0.171069,0.434253,-0.055029,0.089722,0.417505,0.192603,fine
1616135697.8220806,1,-4.0,0.0,-13.0,4.0,0.0,0.900208,0.136292,-0.413147,0.019775,0.038168,0.0,0.083969,7.531836,2.735913,6.024512,0.189014,0.490479,-0.065796,0.099292,0.47373,0.212939,fine
1616135697.8324687,1,-10.0,1.0,-9.0,-4.0,-5.0,0.899963,0.136536,-0.413391,0.021362,0.045802,0.0,0.091603,7.567725,2.816064,5.995801,0.217725,0.5802,-0.088525,0.119629,0.564648,0.240454,fine
1616135697.842629,1,-4.0,-3.0,-12.0,-1.0,-5.0,0.89978,0.136963,-0.413635,0.023132,0.053435,0.0,0.10687,7.625146,2.94646,5.974267,0.267969,0.717773,-0.104077,0.141162,0.697437,0.299072,fine
1616135697.8524077,1,-4.0,0.0,-8.0,-1.0,0.0,0.899536,0.137451,-0.413879,0.025024,0.061069,0.0,0.114504,7.700513,3.11394,5.963501,0.334961,0.892432,-0.107666,0.156714,0.862524,0.386401,fine
1616135697.8619647,1,-5.0,0.0,-12.0,0.0,-3.0,0.899292,0.138062,-0.414062,0.027222,0.068702,0.007634,0.137405,7.787842,3.29458,5.953931,0.415112,1.081445,-0.111255,0.177051,1.040771,0.48689,fine
1616135697.8720114,1,-3.0,-6.0,-16.0,-4.0,-4.0,0.899048,0.138672,-0.414185,0.029785,0.076336,0.022901,0.160305,7.885938,3.500342,5.959912,0.50603,1.297974,-0.099292,0.185425,1.241748,0.610107,fine
1616135697.8819494,1,-4.0,-2.0,-12.0,-2.0,-5.0,0.898865,0.139282,-0.414246,0.032715,0.076336,0.030534,0.19084,7.949341,3.736011,5.969482,0.56106,1.546802,-0.086133,0.160303,1.475024,0.714185,fine
1616135697.8920946,1,-3.0,-2.0,-12.0,1.0,-4.0,0.898621,0.139709,-0.414307,0.036194,0.076336,0.030534,0.229008,7.993604,3.980054,6.001782,0.596948,1.812378,-0.050244,0.099292,1.720264,0.819458,fine
1616135697.9019797,1,-4.0,-3.0,-12.0,-1.0,-3.0,0.898376,0.139954,-0.414429,0.0401,0.068702,0.022901,0.267176,8.021118,4.188208,6.034082,0.613696,2.049243,-0.015552,0.026318,1.939185,0.900806,fine
1616135697.9120607,1,-6.0,-1.0,-11.0,0.0,-3.0,0.89801,0.139832,-0.414734,0.044617,0.068702,0.015267,0.312977,8.039062,4.291089,6.029297,0.616089,2.191602,-0.015552,-0.015552,2.07915,0.925928,fine
1616135697.921953,1,-4.0,0.0,-12.0,-1.0,0.0,0.897522,0.139587,-0.415222,0.049866,0.091603,0.015267,0.351145,8.052221,4.24563,5.987427,0.611304,2.19519,-0.050244,-0.016748,2.095898,0.891235,fine
1616135697.9321434,1,-4.0,-3.0,-13.0,-1.0,-6.0,0.896851,0.139343,-0.415955,0.05603,0.129771,0.007634,0.396947,8.04624,4.06499,5.906079,0.581396,2.071973,-0.120825,0.015552,2.004981,0.789551,fine
1616135697.9418695,1,-5.0,-2.0,-11.0,-4.0,-5.0,0.895996,0.139526,-0.416748,0.063354,0.198473,0.007634,0.442748,8.011548,3.734814,5.779273,0.519189,1.801611,-0.234473,0.090918,1.78606,0.607715,fine
1616135697.9521904,1,-7.0,-1.0,-14.0,-3.0,-5.0,0.894775,0.140442,-0.417664,0.071899,0.282443,0.007634,0.48855,7.950537,3.397461,5.67041,0.427075,1.522876,-0.322998,0.132788,1.551587,0.421094,fine
1616135697.961984,1,-5.0,-3.0,-12.0,2.0,-5.0,0.89325,0.142212,-0.418457,0.081665,0.374046,0.0,0.526718,7.845263,3.10437,5.587866,0.290698,1.283618,-0.381616,0.120825,1.344629,0.229687,fine
1616135697.9719849,1,-5.0,-1.0,-13.0,0.0,-4.0,0.891418,0.144653,-0.419312,0.092529,0.435115,-0.007634,0.572519,7.710083,2.863916,5.548388,0.120825,1.096997,-0.393579,0.045459,1.168774,0.052637,fine
1616135697.9819922,1,-3.0,0.0,-10.0,-5.0,-4.0,0.889343,0.1474,-0.420105,0.104065,0.458015,-0.015267,0.603053,7.548584,2.727539,5.559155,-0.07417,1.014453,-0.355298,-0.104077,1.06709,-0.094507,fine
1616135697.9920924,1,-4.0,0.0,-12.0,-2.0,-6.0,0.887146,0.149658,-0.420898,0.115662,0.419847,-0.022901,0.618321,7.373926,2.591162,5.640503,-0.283521,0.942676,-0.247632,-0.311035,0.94148,-0.211743,fine
1616135698.0020237,1,-11.0,1.0,-12.0,-1.0,-6.0,0.885071,0.150818,-0.421631,0.126892,0.343511,-0.015267,0.618321,7.210034,2.275342,5.768506,-0.478516,0.707007,-0.100488,-0.470142,0.642407,-0.321802,fine
1616135698.011997,1,-4.0,-1.0,-15.0,-4.0,-4.0,0.88324,0.150513,-0.422241,0.13739,0.251908,0.0,0.587786,7.015039,1.734619,5.938379,-0.699829,0.265576,0.076563,-0.575415,0.132788,-0.46416,fine
1616135698.0219991,1,-4.0,0.0,-14.0,-1.0,-3.0,0.881897,0.148804,-0.422485,0.146912,0.175573,0.015267,0.526718,6.730322,0.904395,6.217114,-1.000098,-0.451001,0.349316,-0.671118,-0.679492,-0.641211,fine
1616135698.031952,1,1.0,-1.0,-14.0,0.0,-6.0,0.881042,0.145935,-0.422485,0.154907,0.10687,0.015267,0.419847,6.239844,-0.448608,6.529346,-1.497754,-1.685571,0.6448,-0.673511,-2.006177,-1.007275,fine
1616135698.042149,1,3.0,1.0,-14.0,-4.0,-4.0,0.880676,0.142334,-0.422058,0.161194,0.061069,0.015267,0.274809,5.59624,-2.036084,6.827222,-2.137769,-3.1594,0.915161,-0.625659,-3.570923,-1.496558,fine
1616135698.0521815,1,2.0,-1.0,-12.0,2.0,-3.0,0.88092,0.138428,-0.421387,0.165039,0.0,0.007634,0.10687,4.980151,-3.472827,7.058105,-2.743091,-4.499243,1.113745,-0.562256,-4.984937,-1.957129,fine
1616135698.0621586,1,-1.0,-4.0,-13.0,0.0,-3.0,0.881531,0.134888,-0.420654,0.166382,-0.038168,0.0,-0.038168,4.605713,-4.49685,7.133471,-3.101978,-5.455078,1.158008,-0.418701,-5.949145,-2.266968,fine
1616135698.0721602,1,-4.0,-1.0,-10.0,-2.0,-4.0,0.882324,0.132263,-0.420044,0.165894,-0.038168,-0.015267,-0.137405,4.512403,-4.904785,7.059302,-3.180933,-5.825928,1.059912,-0.269165,-6.27334,-2.396167,fine
1616135698.0823884,1,-4.0,-3.0,-11.0,-5.0,-4.0,0.882996,0.130676,-0.419678,0.164368,-0.030534,-0.022901,-0.183206,4.614087,-4.815063,6.900195,-3.069678,-5.724243,0.887646,-0.151929,-6.099878,-2.392578,fine
1616135698.0927334,1,-3.0,-1.0,-14.0,-2.0,-6.0,0.883728,0.130066,-0.419312,0.162048,-0.030534,-0.022901,-0.229008,4.813867,-4.350904,6.726733,-2.861523,-5.27085,0.704614,-0.112451,-5.580688,-2.302856,fine
1616135698.102199,1,-5.0,-3.0,-12.0,0.0,-5.0,0.884583,0.130371,-0.418762,0.158447,-0.038168,-0.015267,-0.29771,5.085425,-3.567334,6.610693,-2.579199,-4.526758,0.581396,-0.187817,-4.797119,-2.10188,fine
1616135698.1120417,1,-3.0,-2.0,-12.0,-2.0,-6.0,0.885803,0.131226,-0.417786,0.153442,-0.068702,0.007634,-0.366412,5.477808,-2.59834,6.596338,-2.170068,-3.619971,0.555078,-0.317017,-3.875977,-1.728638,fine
1616135698.1220129,1,-3.0,-4.0,-12.0,2.0,-4.0,0.88739,0.132324,-0.416321,0.147278,-0.099237,0.045802,-0.412214,5.947949,-1.525269,6.615479,-1.674805,-2.624658,0.555078,-0.434253,-2.869897,-1.253711,fine
1616135698.1320052,1,-5.0,1.0,-11.0,-1.0,-5.0,0.88916,0.133789,-0.414368,0.140564,-0.114504,0.076336,-0.435115,6.44082,-0.34812,6.674097,-1.148438,-1.537231,0.58977,-0.565845,-1.789648,-0.709399,fine
1616135698.1420743,1,-5.0,-2.0,-12.0,2.0,-4.0,0.890991,0.13562,-0.41217,0.133606,-0.114504,0.083969,-0.419847,6.909766,0.927124,6.772192,-0.642407,-0.361279,0.661548,-0.735718,-0.648389,-0.129199,fine
1616135698.1519098,1,-3.0,-2.0,-11.0,0.0,-5.0,0.892639,0.137573,-0.409973,0.126953,-0.122137,0.076336,-0.374046,7.34043,2.22749,6.89541,-0.174658,0.839795,0.76084,-0.924731,0.494067,0.460571,fine
1616135698.1618712,1,-4.0,0.0,-14.0,-2.0,-5.0,0.893982,0.139404,-0.408203,0.120972,-0.122137,0.053435,-0.29771,7.745972,3.435742,7.005469,0.261987,1.960718,0.852954,-1.073071,1.556372,1.030005,fine
1616135698.172032,1,-7.0,1.0,-12.0,0.0,-4.0,0.894836,0.140991,-0.407166,0.11615,-0.114504,0.015267,-0.198473,8.15271,4.515991,7.073657,0.690259,2.969189,0.912769,-1.149634,2.518188,1.567139,fine
1616135698.181893,1,-4.0,-6.0,-16.0,-4.0,-6.0,0.895081,0.142334,-0.407104,0.112915,-0.099237,-0.030534,-0.083969,8.511597,5.395264,7.035376,1.053931,3.798218,0.881665,-1.143652,3.331665,1.973877,fine
1616135698.1920204,1,-3.0,-2.0,-12.0,0.0,-3.0,0.894714,0.143372,-0.40802,0.111145,-0.083969,-0.076336,0.022901,8.825025,6.030493,6.898999,1.356592,4.404737,0.765625,-1.053931,3.95852,2.243042,fine
1616135698.2018852,1,-5.0,-1.0,-11.0,-1.0,-5.0,0.893799,0.143921,-0.409912,0.110962,-0.068702,-0.114504,0.122137,9.072657,6.279321,6.651367,1.577905,4.648779,0.550293,-0.846973,4.275537,2.321997,fine
1616135698.212001,1,-3.0,-1.0,-14.0,0.0,-4.0,0.892395,0.144104,-0.412537,0.112427,-0.030534,-0.137405,0.21374,9.232959,6.144141,6.290088,1.69873,4.531543,0.23208,-0.533545,4.285108,2.193994,fine
1616135698.2220097,1,-6.0,-1.0,-12.0,2.0,-1.0,0.890503,0.143982,-0.415771,0.115479,0.015267,-0.152672,0.290076,9.277222,5.719458,5.865405,1.693945,4.146338,-0.13877,-0.187817,4.057813,1.890137,fine
1616135698.231916,1,-4.0,-3.0,-12.0,0.0,-3.0,0.888367,0.143921,-0.419189,0.119812,0.068702,-0.160305,0.343511,9.20664,5.130884,5.46106,1.569531,3.609204,-0.488086,0.114844,3.673804,1.486987,fine
1616135698.2417629,1,-21.0,1.0,-12.0,-1.0,-6.0,0.886108,0.143738,-0.422485,0.125061,0.091603,-0.145038,0.374046,9.046338,4.47771,5.142847,1.355396,3.015845,-0.752466,0.330176,3.203662,1.059912,fine
1616135698.2518563,1,-5.0,0.0,-14.0,-1.0,-5.0,0.883972,0.143066,-0.425415,0.130798,0.091603,-0.114504,0.389313,8.799902,3.743188,4.950244,1.062305,2.354297,-0.900806,0.453394,2.621069,0.634033,fine
1616135698.261908,1,-3.0,0.0,-11.0,-1.0,-3.0,0.882202,0.141785,-0.427734,0.136597,0.068702,-0.076336,0.381679,8.485278,2.918945,4.889234,0.709399,1.611401,-0.930713,0.504834,1.912866,0.224902,fine
1616135698.2718134,1,-5.0,-3.0,-14.0,-1.0,-6.0,0.880798,0.139648,-0.429321,0.142334,0.038168,-0.038168,0.366412,8.065381,1.98584,4.927515,0.263184,0.771606,-0.875684,0.49646,1.065894,-0.212939,fine
1616135698.2818737,1,-1.0,-2.0,-14.0,0.0,-4.0,0.879883,0.136841,-0.43042,0.147766,0.007634,-0.015267,0.335878,7.55935,0.98335,5.03877,-0.259595,-0.129199,-0.763232,0.443823,0.124414,-0.673511,fine
1616135698.2919066,1,-3.0,-3.0,-12.0,-2.0,-6.0,0.879272,0.133423,-0.43103,0.152344,-0.022901,-0.007634,0.267176,6.96958,-0.19978,5.219409,-0.856543,-1.211841,-0.588574,0.387598,-1.027612,-1.158008,fine
1616135698.3019917,1,0.0,-1.0,-13.0,-1.0,-3.0,0.879028,0.129822,-0.431274,0.156067,-0.022901,-0.007634,0.175573,6.359473,-1.484595,5.43833,-1.467847,-2.400952,-0.384009,0.352905,-2.30166,-1.624561,fine
1616135698.3119426,1,0.0,-3.0,-12.0,-2.0,-5.0,0.879089,0.126526,-0.431335,0.158569,-0.022901,-0.007634,0.076336,5.799609,-2.647388,5.622559,-2.025317,-3.485986,-0.216528,0.337354,-3.464453,-2.044458,fine
1616135698.3220634,1,-1.0,-1.0,-12.0,3.0,-2.0,0.879211,0.123962,-0.431213,0.159912,0.0,-0.022901,-0.015267,5.408423,-3.46206,5.738599,-2.410522,-4.24563,-0.113647,0.33855,-4.276733,-2.330371,fine
1616135698.3318565,1,0.0,0.0,-11.0,-1.0,-4.0,0.879395,0.122742,-0.431091,0.160217,0.045802,-0.030534,-0.091603,5.233765,-3.893921,5.799609,-2.581592,-4.654761,-0.061011,0.35769,-4.707397,-2.457178,fine
1616135698.3418777,1,-3.0,4.0,-10.0,3.0,-6.0,0.879578,0.122925,-0.430908,0.159851,0.091603,-0.038168,-0.152672,5.201465,-3.982446,5.828321,-2.611499,-4.750464,-0.035889,0.356494,-4.809082,-2.476318,fine
1616135698.351897,1,0.0,-1.0,-6.0,-1.0,-3.0,0.879761,0.12439,-0.430542,0.158508,0.114504,-0.045802,-0.221374,5.288794,-3.680981,5.890527,-2.520581,-4.48728,0.027515,0.252417,-4.565039,-2.361475,fine
1616135698.3618453,1,-1.0,0.0,-12.0,-1.0,5.0,0.880188,0.126526,-0.429993,0.155884,0.083969,-0.038168,-0.290076,5.464648,-3.14624,6.001782,-2.339942,-4.014746,0.139966,0.076563,-4.127197,-2.135376,fine
1616135698.372053,1,-3.0,0.0,-13.0,10.0,-3.0,0.880981,0.128723,-0.429138,0.151855,0.030534,-0.022901,-0.351145,5.684766,-2.530151,6.108252,-2.107861,-3.47522,0.242847,-0.093311,-3.616382,-1.865015,fine
1616135698.3818636,1,0.0,-1.0,-12.0,0.0,-1.0,0.882141,0.130554,-0.428101,0.146606,-0.038168,0.0,-0.396947,5.937182,-1.851856,6.19917,-1.838696,-2.878272,0.325391,-0.252417,-3.042163,-1.564746,fine
1616135698.3919291,1,-4.0,0.0,-13.0,0.0,-4.0,0.883545,0.131958,-0.426819,0.140381,-0.099237,0.015267,-0.427481,6.197974,-1.189111,6.257788,-1.556372,-2.299268,0.369653,-0.362476,-2.469141,-1.269263,fine
1616135698.4019492,1,-4.0,-2.0,-11.0,3.0,-6.0,0.885132,0.132996,-0.425476,0.133484,-0.137405,0.030534,-0.442748,6.442017,-0.587378,6.287695,-1.287207,-1.781274,0.381616,-0.425879,-1.946362,-1.001294,fine
1616135698.4119723,1,-3.0,0.0,-10.0,-2.0,-4.0,0.886719,0.133911,-0.424072,0.126221,-0.152672,0.038168,-0.450382,6.660937,-0.034692,6.303247,-1.039575,-1.312329,0.379224,-0.461768,-1.467847,-0.758447,fine
1616135698.422237,1,1.0,0.0,-11.0,-2.0,-4.0,0.888245,0.134766,-0.422729,0.119019,-0.152672,0.022901,-0.435115,6.840381,0.490479,6.309228,-0.832617,-0.868506,0.367261,-0.492871,-1.018042,-0.549097,fine
1616135698.4318562,1,-4.0,-1.0,-12.0,0.0,-6.0,0.889526,0.135742,-0.421631,0.111938,-0.145038,0.007634,-0.419847,6.986328,0.994116,6.316406,-0.661548,-0.447412,0.361279,-0.52876,-0.596948,-0.362476,fine
1616135698.4418192,1,-4.0,0.0,-13.0,0.0,-6.0,0.890564,0.13678,-0.420837,0.10498,-0.145038,-0.022901,-0.40458,7.102368,1.491772,6.32478,-0.523975,-0.028711,0.362476,-0.579004,-0.184229,-0.191406,fine
1616135698.451944,1,-4.0,0.0,-10.0,-1.0,-5.0,0.891357,0.137878,-0.420471,0.098022,-0.160305,-0.045802,-0.389313,7.235156,1.988232,6.348706,-0.374438,0.386401,0.386401,-0.625659,0.215332,0.007178,fine
1616135698.461744,1,-4.0,-2.0,-6.0,-2.0,-6.0,0.892029,0.138611,-0.420471,0.090942,-0.19084,-0.061069,-0.381679,7.395459,2.416504,6.383399,-0.202173,0.741699,0.424683,-0.641211,0.553882,0.227295,fine
1616135698.4719334,1,-4.0,0.0,-10.0,-1.0,-6.0,0.892578,0.138977,-0.420654,0.083801,-0.206107,-0.068702,-0.374046,7.536621,2.692847,6.359473,-0.050244,0.952246,0.405542,-0.5802,0.77041,0.375635,fine
1616135698.4817777,1,3.0,0.0,-15.0,-2.0,-6.0,0.893005,0.139038,-0.421021,0.076843,-0.21374,-0.068702,-0.366412,7.650269,2.78855,6.27334,0.071777,0.988135,0.326587,-0.443823,0.837402,0.434253,fine
1616135698.491683,1,-2.0,-1.0,-12.0,0.0,-3.0,0.893372,0.13916,-0.421387,0.070251,-0.183206,-0.068702,-0.351145,7.74956,2.796924,6.17644,0.178247,0.940283,0.235669,-0.287109,0.823047,0.458179,fine
1616135698.5018926,1,-3.0,0.0,-13.0,4.0,-1.0,0.893616,0.139526,-0.421692,0.06427,-0.152672,-0.053435,-0.320611,7.850049,2.853149,6.109448,0.288306,0.940283,0.175854,-0.163892,0.840991,0.512012,fine
1616135698.5118732,1,-1.0,0.0,-11.0,-1.0,-5.0,0.893921,0.140015,-0.421692,0.058777,-0.145038,-0.038168,-0.29771,7.921826,3.019433,6.078345,0.372046,1.051538,0.147144,-0.105273,0.953442,0.586182,fine
1616135698.5217428,1,-3.0,-1.0,-14.0,-4.0,-4.0,0.894287,0.140442,-0.421448,0.053406,-0.152672,-0.015267,-0.282443,7.969678,3.173755,6.038867,0.435449,1.153223,0.10647,-0.046655,1.058716,0.636426,fine
1616135698.5318089,1,-1.0,-2.0,-11.0,4.0,-5.0,0.894836,0.140442,-0.420959,0.048279,-0.167939,0.007634,-0.267176,8.013941,3.274243,5.987427,0.497656,1.208252,0.046655,0.037085,1.124512,0.66394,fine
1616135698.5418634,1,-4.0,-4.0,-12.0,-1.0,-3.0,0.895447,0.140015,-0.420227,0.043335,-0.183206,0.022901,-0.251908,8.018725,3.300561,5.920434,0.523975,1.199878,-0.0323,0.12561,1.136475,0.637622,fine
1616135698.5518415,1,-1.0,-1.0,-15.0,-1.0,-6.0,0.896118,0.139404,-0.419495,0.038696,-0.183206,0.030534,-0.229008,7.974463,3.232373,5.781665,0.500049,1.101782,-0.186621,0.25481,1.083838,0.50603,fine
1616135698.5610335,1,-1.0,0.0,-11.0,-1.0,-3.0,0.896667,0.138611,-0.418945,0.034363,-0.175573,0.022901,-0.21374,7.907471,3.105567,5.608203,0.451001,0.95105,-0.373242,0.398364,0.990527,0.324194,fine
1616135698.571763,1,-5.0,-2.0,-15.0,-2.0,-5.0,0.897095,0.138,-0.418579,0.030457,-0.145038,0.015267,-0.206107,7.840478,2.95603,5.441919,0.397168,0.778784,-0.550293,0.532349,0.873291,0.137573,fine
1616135698.5818126,1,-4.0,-3.0,-12.0,0.0,-5.0,0.897339,0.137756,-0.418457,0.026917,-0.114504,0.0,-0.19084,7.775879,2.816064,5.316308,0.343335,0.613696,-0.679492,0.626855,0.748877,-0.016748,fine
1616135698.5917327,1,-3.0,-1.0,-8.0,-1.0,-1.0,0.897339,0.138,-0.418396,0.023865,-0.068702,-0.007634,-0.167939,7.722046,2.776587,5.264868,0.297876,0.544312,-0.72854,0.648389,0.69624,-0.095703,fine
1616135698.6018722,1,-1.0,-4.0,-11.0,3.0,-5.0,0.897278,0.138794,-0.418457,0.021301,-0.038168,-0.015267,-0.152672,7.696924,2.887842,5.300757,0.278735,0.620874,-0.687866,0.596948,0.757251,-0.065796,fine
1616135698.6119213,1,-4.0,1.0,-13.0,0.0,-2.0,0.897156,0.139771,-0.418518,0.018982,-0.030534,-0.015267,-0.137405,7.696924,3.129492,5.419189,0.284717,0.826636,-0.563452,0.479712,0.919946,0.0646,fine
1616135698.6209009,1,-3.0,-2.0,-12.0,-3.0,-5.0,0.897095,0.140686,-0.418457,0.016724,-0.045802,-0.015267,-0.122137,7.735205,3.405835,5.580688,0.330176,1.068286,-0.398364,0.352905,1.101782,0.260791,fine
1616135698.6318507,1,-3.0,-1.0,-13.0,-1.0,-3.0,0.897095,0.141113,-0.418396,0.014465,-0.068702,-0.015267,-0.10687,7.799805,3.596045,5.727832,0.401953,1.233374,-0.250024,0.269165,1.211841,0.447412,fine
1616135698.6416574,1,0.0,-1.0,-12.0,0.0,-5.0,0.897156,0.141113,-0.418274,0.012451,-0.083969,-0.007634,-0.083969,7.854834,3.686963,5.835498,0.465356,1.307544,-0.143555,0.224902,1.24773,0.5802,fine
1616135698.6511564,1,-5.0,-1.0,-12.0,1.0,-2.0,0.897278,0.140869,-0.418152,0.010742,-0.083969,0.0,-0.068702,7.867993,3.669019,5.872583,0.483301,1.278833,-0.110059,0.220117,1.208252,0.607715,fine
1616135698.6612856,1,-3.0,-3.0,-14.0,0.0,-4.0,0.897339,0.140686,-0.418152,0.009399,-0.061069,-0.007634,-0.045802,7.851245,3.616382,5.865405,0.470142,1.219019,-0.118433,0.229687,1.153223,0.579004,fine
1616135698.6717954,1,-12.0,-1.0,-12.0,-2.0,-1.0,0.897278,0.140686,-0.418274,0.008484,-0.038168,-0.015267,-0.030534,7.821338,3.562549,5.843872,0.441431,1.156811,-0.137573,0.235669,1.100586,0.531152,fine
1616135698.6811,1,-8.0,-1.0,-14.0,9.0,-3.0,0.897095,0.140869,-0.41864,0.007935,-0.015267,-0.022901,-0.015267,7.802197,3.49436,5.827124,0.418701,1.081445,-0.147144,0.238062,1.032398,0.491675,fine
1616135698.6910932,1,-2.0,-2.0,-14.0,0.0,-3.0,0.896851,0.141113,-0.419128,0.00769,0.0,-0.030534,0.0,7.796216,3.402246,5.802002,0.406738,0.984546,-0.163892,0.256006,0.945068,0.448608,fine
1616135698.7011752,1,0.0,-2.0,-13.0,2.0,-1.0,0.896484,0.141418,-0.4198,0.007812,0.007634,-0.038168,0.015267,7.785449,3.335254,5.769702,0.386401,0.913965,-0.183032,0.265576,0.884058,0.405542,fine
1616135698.7117517,1,-4.0,-1.0,-11.0,-34.0,-3.0,0.896118,0.141602,-0.42041,0.008118,0.007634,-0.038168,0.022901,7.778272,3.274243,5.743384,0.37085,0.852954,-0.197388,0.27395,0.830225,0.37085,fine
1616135698.7211418,1,1.0,1.0,-12.0,-3.0,-3.0,0.895874,0.141724,-0.421021,0.008484,0.0,-0.030534,0.030534,7.759131,3.206055,5.752954,0.342139,0.787158,-0.178247,0.248828,0.765625,0.344531,fine
1616135698.7309194,1,-3.0,-3.0,-12.0,0.0,-6.0,0.895691,0.141602,-0.421387,0.00885,-0.015267,-0.022901,0.030534,7.725635,3.124707,5.764917,0.302661,0.711792,-0.160303,0.218921,0.692651,0.307446,fine
1616135698.7410183,1,-4.0,1.0,-11.0,-4.0,-3.0,0.895569,0.141235,-0.421692,0.009216,-0.022901,-0.015267,0.038168,7.676587,3.025415,5.768506,0.248828,0.62207,-0.153125,0.19021,0.611304,0.247632,fine
1616135698.7511952,1,-3.0,-1.0,-14.0,-1.0,-5.0,0.895569,0.140625,-0.421936,0.009521,-0.038168,-0.007634,0.038168,7.62395,2.871094,5.772095,0.19021,0.480908,-0.149536,0.168677,0.480908,0.171069,fine
1616135698.760988,1,-1.0,0.0,-14.0,-2.0,-6.0,0.89563,0.139832,-0.422058,0.009827,-0.038168,-0.007634,0.038168,7.571313,2.688061,5.762525,0.135181,0.314624,-0.161499,0.165088,0.330176,0.080151,fine
1616135698.7709177,1,0.0,1.0,-11.0,-7.0,-3.0,0.895691,0.139038,-0.42218,0.010193,-0.038168,0.0,0.030534,7.523462,2.511011,5.746973,0.08374,0.154321,-0.179443,0.16748,0.185425,-0.007178,fine
1616135698.7812068,1,-1.0,-1.0,-11.0,-1.0,-4.0,0.895752,0.138367,-0.422302,0.010559,-0.022901,0.0,0.022901,7.470825,2.348315,5.723047,0.027515,0.005981,-0.205762,0.171069,0.055029,-0.101685,fine
1616135698.7908895,1,1.0,1.0,-12.0,2.0,-2.0,0.895752,0.137878,-0.422424,0.010864,-0.015267,0.0,0.022901,7.440918,2.199975,5.703906,-0.004785,-0.130396,-0.224902,0.183032,-0.066992,-0.169873,fine
1616135698.801279,1,-1.0,-4.0,-12.0,-2.0,-4.0,0.895752,0.137634,-0.422546,0.011292,0.0,-0.007634,0.015267,7.431348,2.117432,5.708692,-0.016748,-0.204565,-0.220117,0.183032,-0.13877,-0.193799,fine
1616135698.8118691,1,-3.0,1.0,-10.0,-6.0,-3.0,0.895691,0.137512,-0.422607,0.011597,0.007634,0.0,0.007634,7.442114,2.100684,5.737402,-0.007178,-0.216528,-0.19021,0.16748,-0.15791,-0.171069,fine
1616135698.8211074,1,-3.0,0.0,-13.0,-1.0,-5.0,0.895691,0.137512,-0.422607,0.011841,0.007634,0.0,0.007634,7.445703,2.097095,5.76731,-0.004785,-0.218921,-0.160303,0.147144,-0.168677,-0.151929,fine
1616135698.8310497,1,0.0,-2.0,-12.0,2.0,-4.0,0.895691,0.137451,-0.422607,0.012024,0.0,0.0,0.0,7.449292,2.11145,5.792432,-0.001196,-0.200977,-0.135181,0.128003,-0.15791,-0.129199,fine
1616135698.8410013,1,-3.0,-1.0,-11.0,0.0,-3.0,0.895752,0.13739,-0.422607,0.012146,-0.007634,0.0,0.0,7.45647,2.135376,5.80918,0.003589,-0.175854,-0.119629,0.11604,-0.13877,-0.110059,fine
1616135698.851105,1,-3.0,0.0,-14.0,-2.0,-3.0,0.895752,0.137268,-0.422607,0.012207,-0.007634,0.0,0.0,7.463647,2.141357,5.80918,0.010767,-0.16748,-0.119629,0.119629,-0.130396,-0.102881,fine
1616135698.8610396,1,0.0,-1.0,-12.0,3.0,-4.0,0.895752,0.137146,-0.422607,0.012268,-0.007634,0.0,0.0,7.458862,2.138965,5.792432,0.005981,-0.166284,-0.137573,0.130396,-0.124414,-0.117236,fine
1616135698.871023,1,-1.0,-1.0,-12.0,0.0,-2.0,0.895752,0.137085,-0.422607,0.012329,-0.007634,0.0,0.0,7.450488,2.142554,5.780469,-0.001196,-0.161499,-0.149536,0.133984,-0.11604,-0.129199,fine
1616135698.881119,1,-3.0,1.0,-11.0,0.0,-6.0,0.895752,0.137085,-0.422668,0.01239,0.0,-0.007634,0.0,7.449292,2.154517,5.778076,-0.003589,-0.149536,-0.150732,0.131592,-0.104077,-0.128003,fine
1616135698.8909504,1,-3.0,0.0,-14.0,2.0,-4.0,0.895691,0.137146,-0.422729,0.012451,0.0,0.0,0.0,7.455274,2.180835,5.790039,0.0,-0.123218,-0.137573,0.119629,-0.082544,-0.111255,fine
1616135698.9009511,1,-1.0,0.0,-11.0,0.0,-4.0,0.895691,0.137146,-0.422729,0.012512,0.0,0.0,0.0,7.46604,2.205957,5.813965,0.010767,-0.096899,-0.113647,0.105273,-0.0646,-0.082544,fine
1616135698.9111,1,-5.0,-5.0,-11.0,-1.0,-6.0,0.895691,0.137146,-0.422729,0.012634,0.0,0.0,0.0,7.481592,2.256201,5.836694,0.026318,-0.046655,-0.090918,0.090918,-0.023926,-0.045459,fine
1616135698.9210958,1,-2.0,-2.0,-14.0,5.0,-4.0,0.895752,0.137085,-0.422668,0.012695,-0.007634,0.0,0.0,7.483984,2.306445,5.857031,0.028711,0.004785,-0.071777,0.071777,0.019141,-0.020337,fine
1616135699.7100053,1,-4.0,-3.0,-14.0,-2.0,-4.0,0.896851,0.130859,-0.422302,0.011536,-0.007634,0.0,-0.007634,7.46604,2.19519,5.793628,0.011963,-0.00957,-0.174658,0.139966,0.0323,-0.099292,fine
1616135699.719998,1,-4.0,-1.0,-10.0,-2.0,-5.0,0.896851,0.130859,-0.422302,0.011475,-0.007634,0.0,-0.007634,7.470825,2.184424,5.780469,0.017944,-0.020337,-0.187817,0.155518,0.023926,-0.105273,fine
1616135699.7299883,1,1.0,-3.0,-12.0,-1.0,-1.0,0.896851,0.130859,-0.422302,0.011475,-0.007634,0.0,-0.007634,7.474414,2.182031,5.778076,0.021533,-0.022729,-0.19021,0.160303,0.021533,-0.104077,fine
1616135699.739946,1,-3.0,-3.0,-11.0,-1.0,-3.0,0.896912,0.130859,-0.422241,0.011475,0.0,0.007634,-0.007634,7.479199,2.160498,5.781665,0.026318,-0.044263,-0.187817,0.163892,0.0,-0.104077,fine
1616135699.7499657,1,-3.0,-1.0,-11.0,0.0,-3.0,0.896973,0.130981,-0.422119,0.011597,0.007634,0.007634,-0.007634,7.482788,2.174854,5.799609,0.031104,-0.031104,-0.171069,0.151929,0.008374,-0.087329,fine
1616135699.760029,1,-1.0,0.0,-12.0,0.0,-3.0,0.896973,0.131165,-0.421936,0.011597,0.007634,0.007634,-0.007634,7.481592,2.22749,5.823535,0.033496,0.016748,-0.14834,0.130396,0.049048,-0.061011,fine
1616135699.770341,1,1.0,-2.0,-11.0,0.0,-3.0,0.897034,0.131287,-0.421753,0.011597,-0.007634,0.007634,-0.007634,7.486377,2.268164,5.853442,0.040674,0.055029,-0.120825,0.108862,0.078955,-0.029907,fine
1616135699.7799065,1,0.0,-2.0,-16.0,0.0,-2.0,0.897156,0.131287,-0.42157,0.011536,-0.007634,0.007634,-0.007634,7.483984,2.266968,5.882154,0.040674,0.052637,-0.095703,0.090918,0.070581,-0.015552,fine
1616135699.7902308,1,-1.0,1.0,-12.0,3.0,-4.0,0.897217,0.131165,-0.421448,0.011536,-0.007634,0.007634,0.0,7.479199,2.249023,5.90249,0.037085,0.037085,-0.077759,0.076563,0.05144,-0.010767,fine
1616135699.7999845,1,-1.0,-2.0,-11.0,0.0,-2.0,0.897339,0.131042,-0.421265,0.011536,-0.007634,0.007634,0.0,7.464844,2.252612,5.915649,0.025122,0.043066,-0.068188,0.061011,0.055029,-0.011963,fine
1616135699.8097708,1,-3.0,1.0,-12.0,-2.0,-5.0,0.8974,0.131042,-0.421143,0.011536,-0.007634,0.007634,0.0,7.438525,2.252612,5.930005,0.001196,0.04187,-0.056226,0.037085,0.053833,-0.023926,fine
1616135699.8199043,1,-4.0,-3.0,-12.0,-3.0,-4.0,0.897461,0.13092,-0.421021,0.011536,-0.007634,0.0,-0.007634,7.42417,2.229883,5.939575,-0.010767,0.021533,-0.049048,0.026318,0.033496,-0.0323,fine
1616135699.829983,1,-1.0,0.0,-10.0,-1.0,-3.0,0.897522,0.130798,-0.420959,0.011475,-0.015267,0.0,0.0,7.408618,2.220313,5.952734,-0.025122,0.013159,-0.038281,0.010767,0.023926,-0.039478,fine
1616135699.8399863,1,-1.0,-2.0,-12.0,-1.0,-5.0,0.897522,0.130737,-0.420959,0.011414,-0.015267,0.0,-0.007634,7.405029,2.204761,5.963501,-0.028711,0.0,-0.027515,0.001196,0.008374,-0.038281,fine
1616135699.8499863,1,-3.0,-3.0,-10.0,2.0,-4.0,0.897583,0.130554,-0.420898,0.011353,-0.015267,0.0,-0.007634,7.411011,2.190405,5.973071,-0.022729,-0.011963,-0.020337,0.001196,-0.003589,-0.0323,fine
1616135699.8601456,1,0.0,-3.0,-12.0,-1.0,-5.0,0.897583,0.130371,-0.420837,0.011292,-0.015267,0.0,-0.007634,7.412207,2.172461,5.970679,-0.019141,-0.027515,-0.022729,0.007178,-0.019141,-0.033496,fine
1616135699.869919,1,-3.0,-3.0,-11.0,2.0,-3.0,0.897644,0.130249,-0.420837,0.01123,-0.015267,0.0,-0.007634,7.411011,2.152124,5.951538,-0.021533,-0.046655,-0.044263,0.025122,-0.0323,-0.053833,fine
1616135699.8800228,1,0.0,-2.0,-11.0,-1.0,-2.0,0.897644,0.130127,-0.420898,0.011169,-0.007634,0.0,-0.007634,7.419385,2.128198,5.933594,-0.013159,-0.068188,-0.061011,0.045459,-0.049048,-0.062207,fine
1616135699.8898823,1,-4.0,-2.0,-14.0,0.0,-4.0,0.897644,0.130066,-0.420898,0.011169,0.0,0.0,-0.007634,7.431348,2.106665,5.922827,-0.001196,-0.088525,-0.072974,0.0646,-0.066992,-0.0646,fine
1616135699.9000385,1,-3.0,0.0,-11.0,0.0,-4.0,0.897644,0.130127,-0.420898,0.011169,0.007634,0.0,-0.007634,7.436133,2.098291,5.909668,0.002393,-0.098096,-0.084937,0.077759,-0.07417,-0.071777,fine
1616135699.9100866,1,-3.0,0.0,-11.0,-1.0,-3.0,0.897583,0.13031,-0.420959,0.01123,0.007634,0.0,-0.007634,7.434937,2.106665,5.900098,0.0,-0.092114,-0.093311,0.081348,-0.065796,-0.076563,fine
1616135699.919831,1,-4.0,-4.0,-13.0,-4.0,-4.0,0.897583,0.130493,-0.420959,0.01123,0.007634,-0.007634,-0.007634,7.436133,2.140161,5.90249,0.001196,-0.062207,-0.089722,0.075366,-0.038281,-0.066992,fine
1616135699.9299345,1,-1.0,0.0,-11.0,-1.0,-3.0,0.897522,0.130615,-0.420959,0.011169,0.0,-0.007634,-0.007634,7.437329,2.188013,5.908472,0.002393,-0.016748,-0.082544,0.065796,0.003589,-0.05144,fine
1616135699.9398773,1,-1.0,0.0,-11.0,0.0,-3.0,0.897522,0.130676,-0.420959,0.011047,-0.007634,0.0,-0.007634,7.43374,2.221509,5.908472,0.0,0.013159,-0.082544,0.059814,0.0323,-0.046655,fine
1616135699.9500408,1,-1.0,-1.0,-11.0,-2.0,-5.0,0.897522,0.130554,-0.420959,0.010925,-0.015267,0.0,-0.007634,7.430151,2.219116,5.896509,-0.002393,0.011963,-0.094507,0.066992,0.034692,-0.056226,fine
1616135699.959931,1,-3.0,-3.0,-11.0,-2.0,-5.0,0.897583,0.130432,-0.420959,0.010803,-0.015267,0.0,-0.007634,7.427759,2.21792,5.89292,-0.004785,0.011963,-0.099292,0.069385,0.035889,-0.061011,fine
1616135699.970001,1,-3.0,-2.0,-14.0,-4.0,-4.0,0.897644,0.13031,-0.420898,0.010681,-0.015267,0.0,-0.007634,7.42417,2.203564,5.890527,-0.007178,0.0,-0.104077,0.072974,0.025122,-0.068188,fine
1616135699.9798603,1,-3.0,-1.0,-12.0,-1.0,48.0,0.897644,0.130249,-0.420837,0.010559,-0.007634,0.0,-0.007634,7.420581,2.18562,5.891724,-0.00957,-0.017944,-0.102881,0.072974,0.008374,-0.07417,fine
1616135699.989804,1,11.0,-1.0,-12.0,-2.0,-3.0,0.897705,0.130249,-0.420715,0.010437,-0.007634,0.0,-0.007634,7.418189,2.167676,5.896509,-0.010767,-0.037085,-0.100488,0.072974,-0.00957,-0.077759,fine
1616135699.9999988,1,0.0,-1.0,-13.0,-1.0,-5.0,0.897705,0.130249,-0.420654,0.010376,0.0,0.0,-0.007634,7.416992,2.149731,5.900098,-0.010767,-0.056226,-0.098096,0.072974,-0.028711,-0.080151,fine
1616135700.009872,1,0.0,-3.0,-12.0,-1.0,-5.0,0.897705,0.130371,-0.420654,0.010437,0.007634,0.0,-0.007634,7.416992,2.158105,5.909668,-0.010767,-0.049048,-0.087329,0.0646,-0.025122,-0.071777,fine
1616135700.0201178,1,-8.0,0.0,-12.0,-2.0,-5.0,0.897705,0.130554,-0.420593,0.010498,0.007634,0.0,-0.007634,7.422974,2.193994,5.922827,-0.003589,-0.015552,-0.07417,0.055029,0.002393,-0.05144,fine
1616135700.0298302,1,-3.0,0.0,-12.0,-2.0,-5.0,0.897705,0.130676,-0.420593,0.010498,0.0,0.0,0.0,7.425366,2.232275,5.933594,-0.001196,0.019141,-0.063403,0.044263,0.033496,-0.034692,fine
1616135700.039984,1,-1.0,0.0,-12.0,-2.0,-4.0,0.897705,0.130737,-0.420532,0.010498,-0.007634,0.0,-0.007634,7.430151,2.260986,5.932397,0.003589,0.046655,-0.0646,0.044263,0.059814,-0.025122,fine
1616135700.0500877,1,1.0,-1.0,-12.0,-1.0,-3.0,0.897766,0.130676,-0.420532,0.010376,-0.015267,0.0,-0.007634,7.428955,2.25022,5.930005,0.002393,0.035889,-0.068188,0.047852,0.050244,-0.031104,fine
1616135700.059794,1,-4.0,0.0,-10.0,0.0,-5.0,0.897766,0.130493,-0.420532,0.010254,-0.015267,0.0,-0.007634,7.434937,2.209546,5.914453,0.008374,-0.001196,-0.084937,0.069385,0.017944,-0.045459,fine
1616135700.0698452,1,-1.0,-1.0,-12.0,-1.0,-5.0,0.897766,0.130432,-0.420532,0.010132,-0.007634,0.0,-0.015267,7.439722,2.167676,5.903687,0.013159,-0.043066,-0.095703,0.084937,-0.019141,-0.057422,fine
1616135700.0799649,1,-1.0,0.0,-11.0,-2.0,-4.0,0.897766,0.130371,-0.420532,0.01001,-0.007634,0.0,-0.015267,7.439722,2.146142,5.897705,0.014355,-0.0646,-0.101685,0.093311,-0.038281,-0.065796,fine
1616135700.0899522,1,-3.0,1.0,-12.0,-3.0,-6.0,0.897827,0.130371,-0.42041,0.009827,-0.007634,0.0,-0.015267,7.42417,2.107861,5.888135,0.0,-0.105273,-0.113647,0.098096,-0.072974,-0.093311,fine
1616135700.0997946,1,-4.0,-4.0,-12.0,-1.0,-6.0,0.897888,0.13031,-0.420349,0.009705,-0.007634,0.0,-0.015267,7.409814,2.074365,5.874976,-0.011963,-0.13877,-0.128003,0.105273,-0.101685,-0.118433,fine
1616135700.1098866,1,-1.0,-3.0,-11.0,2.0,-3.0,0.897888,0.130371,-0.420288,0.009705,0.0,0.007634,-0.015267,7.400244,2.065991,5.866601,-0.020337,-0.14834,-0.136377,0.107666,-0.107666,-0.131592,fine
1616135700.1199,1,-5.0,-1.0,-12.0,-2.0,-4.0,0.897949,0.130493,-0.420166,0.009644,0.0,0.007634,-0.015267,7.394263,2.089917,5.865405,-0.025122,-0.126807,-0.139966,0.104077,-0.086133,-0.132788,fine
1616135700.129892,1,-4.0,1.0,-10.0,2.0,-1.0,0.89801,0.130615,-0.420044,0.009521,0.0,0.0,-0.015267,7.385889,2.137769,5.870191,-0.031104,-0.082544,-0.136377,0.092114,-0.043066,-0.12561,fine
1616135700.139735,1,0.0,-3.0,-11.0,0.0,-3.0,0.89801,0.130737,-0.419983,0.009399,-0.007634,0.0,-0.015267,7.388281,2.190405,5.889331,-0.027515,-0.0323,-0.117236,0.07417,0.0,-0.099292,fine
1616135700.1497123,1,-1.0,0.0,-10.0,-4.0,-1.0,0.898071,0.130737,-0.419861,0.009155,-0.007634,0.0,-0.015267,7.403833,2.228687,5.907275,-0.00957,0.002393,-0.101685,0.069385,0.027515,-0.068188,fine
1616135700.1599758,1,-6.0,-5.0,-11.0,-2.0,-2.0,0.898071,0.130737,-0.4198,0.008911,-0.015267,0.0,-0.015267,7.42417,2.25022,5.921631,0.010767,0.021533,-0.088525,0.070581,0.040674,-0.040674,fine
1616135700.169957,1,-6.0,-3.0,-11.0,-2.0,-47.0,0.898132,0.130676,-0.419678,0.008606,-0.015267,0.007634,-0.022901,7.434937,2.262183,5.921631,0.025122,0.0323,-0.089722,0.078955,0.050244,-0.027515,fine
1616135700.1798575,1,-3.0,-1.0,-11.0,-1.0,-6.0,0.898193,0.130676,-0.419556,0.00824,-0.015267,0.007634,-0.022901,7.439722,2.277734,5.915649,0.0323,0.044263,-0.098096,0.088525,0.062207,-0.025122,fine
1616135700.189768,1,0.0,-1.0,-10.0,0.0,-2.0,0.898254,0.130737,-0.419434,0.007935,-0.015267,0.007634,-0.022901,7.442114,2.275342,5.903687,0.037085,0.038281,-0.112451,0.102881,0.059814,-0.031104,fine
1616135700.1998458,1,-4.0,0.0,-12.0,-1.0,-5.0,0.898315,0.130798,-0.419373,0.00769,0.0,0.007634,-0.022901,7.452881,2.251416,5.89292,0.049048,0.010767,-0.124414,0.123218,0.034692,-0.035889,fine
1616135700.2098727,1,0.0,-2.0,-12.0,0.0,-4.0,0.898315,0.130981,-0.41925,0.007629,0.007634,0.007634,-0.015267,7.476807,2.275342,5.912061,0.075366,0.031104,-0.105273,0.123218,0.047852,0.0,fine
1616135700.2190588,1,0.0,0.0,-10.0,0.0,-1.0,0.898376,0.131287,-0.419006,0.007629,0.007634,0.015267,-0.007634,7.483984,2.372241,5.926416,0.086133,0.122021,-0.093311,0.110059,0.131592,0.034692,fine
1616135700.228991,1,-1.0,-1.0,-11.0,9.0,-4.0,0.898438,0.131592,-0.418823,0.00769,0.007634,0.015267,0.0,7.479199,2.502637,5.935987,0.08374,0.247632,-0.086133,0.087329,0.251221,0.066992,fine
1616135700.239857,1,0.0,-1.0,-11.0,-5.0,-5.0,0.898438,0.131897,-0.41864,0.00769,0.007634,0.007634,0.0,7.50791,2.63064,5.927612,0.114844,0.37085,-0.094507,0.099292,0.369653,0.113647,fine
1616135700.2499435,1,-4.0,-3.0,-14.0,0.0,-3.0,0.898376,0.132324,-0.418701,0.007874,0.015267,0.0,0.007634,7.568921,2.764624,5.885742,0.175854,0.498853,-0.133984,0.151929,0.49646,0.165088,fine
1616135700.258874,1,0.0,-1.0,-11.0,-4.0,-4.0,0.898193,0.132935,-0.418823,0.00824,0.030534,-0.007634,0.022901,7.663428,2.952441,5.843872,0.267969,0.679492,-0.169873,0.215332,0.671118,0.25481,fine
1616135700.2689197,1,0.0,1.0,-11.0,-1.0,0.0,0.897949,0.133972,-0.419128,0.008911,0.053435,-0.007634,0.038168,7.798608,3.194092,5.812768,0.398364,0.90918,-0.191406,0.284717,0.885254,0.394775,fine
1616135700.2790089,1,0.0,-1.0,-10.0,0.0,-5.0,0.897583,0.135254,-0.419434,0.010132,0.083969,0.0,0.068702,7.960107,3.550586,5.807983,0.553882,1.253711,-0.184229,0.331372,1.201074,0.599341,fine
1616135700.289299,1,0.0,-1.0,-8.0,-1.0,-3.0,0.897156,0.136841,-0.419739,0.011719,0.091603,0.0,0.099237,8.115625,3.997998,5.825928,0.702222,1.687964,-0.153125,0.339746,1.597046,0.83501,fine
1616135700.2990963,1,-1.0,-3.0,-8.0,-3.0,-3.0,0.89679,0.138428,-0.420044,0.013794,0.091603,0.007634,0.137405,8.265162,4.469336,5.849854,0.84458,2.149731,-0.11604,0.328979,2.019336,1.07666,fine
1616135700.3088276,1,-5.0,-3.0,-13.0,0.0,-4.0,0.896362,0.139771,-0.420349,0.016357,0.083969,0.007634,0.183206,8.382398,4.868896,5.845068,0.952246,2.546899,-0.107666,0.321802,2.390186,1.258496,fine
1616135700.319157,1,-3.0,0.0,-10.0,3.0,1.0,0.895935,0.140869,-0.420776,0.019653,0.091603,0.015267,0.229008,8.485278,5.14165,5.803198,1.041968,2.829224,-0.136377,0.33855,2.664136,1.375732,fine
1616135700.3296168,1,0.0,0.0,-12.0,-2.0,-3.0,0.895447,0.141785,-0.421326,0.023926,0.114504,0.015267,0.290076,8.537915,5.274438,5.703906,1.07666,2.983545,-0.22251,0.374438,2.837598,1.381714,fine
1616135700.3389003,1,0.0,-1.0,-12.0,-4.0,-3.0,0.894836,0.142639,-0.421997,0.029175,0.137405,0.015267,0.343511,8.53313,5.341431,5.616577,1.049145,3.080444,-0.294287,0.361279,2.959619,1.333862,fine
1616135700.3491309,1,0.0,-1.0,-10.0,0.0,-3.0,0.894043,0.143433,-0.422852,0.035339,0.160305,0.007634,0.396947,8.475708,5.346216,5.557959,0.966602,3.124707,-0.332568,0.289502,3.026611,1.24773,fine
1616135700.3591757,1,-3.0,0.0,-11.0,-1.0,-6.0,0.893188,0.144104,-0.423767,0.04248,0.183206,0.0,0.458015,8.353686,5.177539,5.545996,0.814673,3.007471,-0.326587,0.166284,2.928516,1.095801,fine
1616135700.3690658,1,0.0,-12.0,-12.0,2.0,-4.0,0.892212,0.144409,-0.424805,0.050781,0.21374,-0.007634,0.519084,8.14314,4.813867,5.519678,0.57063,2.710791,-0.333765,0.031104,2.665332,0.823047,fine
1616135700.3792665,1,-5.0,-2.0,-12.0,-1.0,-6.0,0.890991,0.14447,-0.426147,0.060181,0.244275,-0.030534,0.572519,7.884741,4.312622,5.53523,0.271558,2.29209,-0.295483,-0.137573,2.265771,0.507227,fine
1616135700.3890612,1,1.0,-1.0,-12.0,1.0,-5.0,0.889465,0.144348,-0.427734,0.070496,0.274809,-0.053435,0.610687,7.600024,3.688159,5.574707,-0.056226,1.762134,-0.229687,-0.302661,1.742993,0.165088,fine
1616135700.3991067,1,-3.0,-3.0,-11.0,-1.0,-2.0,0.887695,0.144287,-0.429626,0.08136,0.305344,-0.076336,0.625954,7.330859,2.945264,5.624951,-0.373242,1.119727,-0.14834,-0.421094,1.098193,-0.172266,fine
1616135700.4091182,1,0.0,0.0,-11.0,2.0,-2.0,0.88562,0.144348,-0.43158,0.092468,0.343511,-0.091603,0.610687,7.111938,2.142554,5.696729,-0.640015,0.418701,-0.043066,-0.478516,0.382812,-0.456982,fine
1616135700.4191487,1,-3.0,-1.0,-12.0,2.0,-5.0,0.883423,0.144836,-0.43335,0.103455,0.358779,-0.091603,0.572519,6.89541,1.38291,5.811572,-0.900806,-0.245239,0.104077,-0.543115,-0.317017,-0.69624,fine
1616135700.4292,1,0.0,0.0,-10.0,3.0,-6.0,0.881348,0.145325,-0.434875,0.113892,0.351145,-0.083969,0.526718,6.72793,0.705811,6.023315,-1.107764,-0.833813,0.343335,-0.638818,-0.980957,-0.817065,fine
1616135700.439312,1,26.0,-1.0,-12.0,-2.0,-1.0,0.879578,0.145264,-0.435974,0.123291,0.290076,-0.061069,0.473282,6.572412,0.094507,6.278125,-1.294385,-1.355396,0.616089,-0.747681,-1.597046,-0.882861,fine
1616135700.4497418,1,0.0,-2.0,-12.0,-1.0,-4.0,0.878235,0.144348,-0.436523,0.13147,0.206107,-0.038168,0.412214,6.406128,-0.500049,6.499438,-1.47981,-1.859033,0.842188,-0.814673,-2.182031,-0.961816,fine
1616135700.4590485,1,-4.0,-3.0,-14.0,-2.0,-5.0,0.877441,0.142395,-0.436768,0.138062,0.10687,-0.022901,0.328244,6.193189,-1.129297,6.648974,-1.703516,-2.396167,0.984546,-0.825439,-2.772998,-1.112549,fine
1616135700.4690225,1,-4.0,0.0,-12.0,-2.0,-3.0,0.877136,0.139771,-0.436646,0.143005,0.045802,0.007634,0.229008,5.981445,-1.860229,6.745874,-1.916455,-3.038574,1.064697,-0.746484,-3.435742,-1.291992,fine
1616135700.479153,1,-7.0,1.0,-8.0,0.0,-4.0,0.877258,0.136719,-0.436218,0.146301,-0.007634,0.022901,0.129771,5.740991,-2.631836,6.786548,-2.150928,-3.731225,1.082642,-0.62207,-4.124804,-1.520483,fine
1616135700.4889815,1,-1.0,0.0,-12.0,0.0,-5.0,0.877747,0.133606,-0.435547,0.148132,-0.030534,0.030534,0.030534,5.495752,-3.355591,6.729126,-2.384204,-4.389184,0.997705,-0.44502,-4.744483,-1.796826,fine
1616135700.4990814,1,1.0,-4.0,-10.0,-1.0,-3.0,0.878357,0.131042,-0.434875,0.148804,-0.030534,0.015267,-0.045802,5.288794,-3.849658,6.583179,-2.579199,-4.836596,0.826636,-0.272754,-5.133276,-2.071973,fine
1616135700.5090394,1,-3.0,1.0,-12.0,-2.0,-4.0,0.878906,0.129456,-0.434448,0.148499,-0.007634,-0.015267,-0.10687,5.160791,-4.011157,6.388184,-2.700024,-4.976562,0.614893,-0.14834,-5.209839,-2.293286,fine
1616135700.5189376,1,0.0,-1.0,-11.0,3.0,-3.0,0.87915,0.129028,-0.434387,0.147278,0.015267,-0.053435,-0.167939,5.166772,-3.875977,6.183618,-2.690454,-4.844971,0.407935,-0.056226,-5.012451,-2.394971,fine
1616135700.5293827,1,0.0,-1.0,-12.0,-3.0,-5.0,0.879272,0.129822,-0.434692,0.145081,0.045802,-0.076336,-0.236641,5.343823,-3.508716,6.011353,-2.515796,-4.508813,0.245239,0.021533,-4.611694,-2.33396,fine
1616135700.539115,1,0.0,-1.0,-10.0,-1.0,-3.0,0.879333,0.131897,-0.434937,0.14209,0.068702,-0.076336,-0.290076,5.691943,-2.810083,5.950342,-2.171265,-3.871192,0.198584,0.004785,-3.944165,-2.044458,fine
1616135700.54911,1,0.0,1.0,-8.0,0.0,-3.0,0.879578,0.134888,-0.434753,0.138062,0.061069,-0.053435,-0.335878,6.190796,-1.705908,6.03169,-1.668823,-2.854346,0.293091,-0.159106,-2.954834,-1.501343,fine
1616135700.5589304,1,0.0,0.0,-11.0,0.0,-4.0,0.88031,0.138123,-0.433838,0.133057,0.007634,-0.007634,-0.366412,6.776978,-0.336157,6.188403,-1.068286,-1.587476,0.451001,-0.393579,-1.75376,-0.79314,fine
1616135700.5690796,1,-4.0,3.0,-11.0,-3.0,-4.0,0.881531,0.14093,-0.432251,0.127258,-0.061069,0.045802,-0.358779,7.334448,1.077856,6.353491,-0.484497,-0.278735,0.604126,-0.629248,-0.523975,-0.070581,fine
1616135700.5790646,1,3.0,0.0,-11.0,3.0,-3.0,0.882935,0.1427,-0.43042,0.121338,-0.137405,0.076336,-0.312977,7.808179,2.374634,6.436035,0.019141,0.92832,0.666333,-0.784766,0.626855,0.544312,fine
1616135700.588898,1,-3.0,-6.0,-12.0,3.0,-1.0,0.884399,0.143555,-0.42865,0.115845,-0.183206,0.083969,-0.244275,8.20415,3.48479,6.455176,0.447412,1.969092,0.660352,-0.852954,1.63772,1.047949,fine
1616135700.5990334,1,-3.0,1.0,-12.0,-2.0,-3.0,0.885681,0.143738,-0.427246,0.111267,-0.19084,0.076336,-0.167939,8.5427,4.359277,6.409717,0.81228,2.795727,0.592163,-0.827832,2.463159,1.437939,fine
1616135700.6090746,1,0.0,-2.0,-11.0,-1.0,-3.0,0.886475,0.143555,-0.426453,0.10791,-0.167939,0.045802,-0.076336,8.786743,4.897607,6.267358,1.073071,3.30415,0.435449,-0.693848,3.013452,1.640112,fine
1616135700.6189024,1,-3.0,-2.0,-17.0,-1.0,-4.0,0.886719,0.143311,-0.426392,0.106384,-0.114504,0.007634,0.022901,8.921924,5.123706,6.043653,1.211841,3.521875,0.209351,-0.502441,3.305347,1.653271,fine
1616135700.629095,1,0.0,0.0,-11.0,0.0,-4.0,0.886292,0.143372,-0.427246,0.106628,-0.030534,-0.038168,0.10687,8.976954,5.127295,5.75415,1.254907,3.529053,-0.0646,-0.283521,3.408227,1.525269,fine
1616135700.639022,1,-3.0,-3.0,-12.0,4.0,-5.0,0.885193,0.143921,-0.428894,0.108521,0.045802,-0.083969,0.183206,8.984131,4.945459,5.4802,1.235767,3.360376,-0.307446,-0.08374,3.332861,1.338647,fine
1616135700.64893,1,0.0,0.0,-11.0,1.0,-6.0,0.883545,0.144958,-0.431091,0.111755,0.114504,-0.114504,0.236641,8.967382,4.594946,5.251709,1.184326,3.027808,-0.492871,0.096899,3.084033,1.135278,fine
1616135700.6588326,1,1.0,-1.0,-12.0,2.0,-4.0,0.881592,0.146179,-0.433472,0.116028,0.160305,-0.122137,0.274809,8.903979,4.16189,5.108154,1.081445,2.621069,-0.588574,0.206958,2.732324,0.931909,fine
1616135700.6689506,1,-1.0,-3.0,-14.0,0.0,-6.0,0.879639,0.147095,-0.435791,0.120972,0.160305,-0.114504,0.305344,8.78435,3.66543,5.03877,0.921143,2.161694,-0.613696,0.25481,2.305249,0.715381,fine
1616135700.678846,1,-4.0,-4.0,-10.0,-2.0,-1.0,0.877869,0.147339,-0.437744,0.12616,0.137405,-0.083969,0.312977,8.589355,3.101978,5.054321,0.692651,1.648486,-0.562256,0.238062,1.79563,0.479712,fine
1616135700.688902,1,-1.0,-1.0,-12.0,-1.0,-6.0,0.876587,0.146606,-0.439148,0.131287,0.083969,-0.053435,0.312977,8.328565,2.433252,5.133276,0.405542,1.04436,-0.465356,0.19978,1.177148,0.209351,fine
1616135700.6989586,1,-3.0,1.0,-12.0,0.0,-4.0,0.875671,0.144836,-0.440125,0.135986,0.038168,-0.015267,0.290076,7.978052,1.640112,5.209839,0.037085,0.326587,-0.381616,0.18064,0.446216,-0.143555,fine
1616135700.708807,1,2.0,-1.0,-10.0,0.0,-4.0,0.875122,0.142273,-0.440674,0.140137,-0.007634,0.0,0.244275,7.56294,0.720166,5.297168,-0.386401,-0.509619,-0.297876,0.185425,-0.403149,-0.546704,fine
1616135700.719025,1,1.0,-1.0,-12.0,4.0,-3.0,0.874939,0.139282,-0.440918,0.143494,-0.030534,0.007634,0.183206,7.115527,-0.267969,5.385694,-0.837402,-1.416406,-0.22251,0.214136,-1.327881,-0.972583,fine
1616135700.7288804,1,-1.0,0.0,-8.0,-3.0,-3.0,0.875,0.136292,-0.440979,0.145874,-0.038168,0.007634,0.099237,6.66333,-1.244141,5.477808,-1.288403,-2.319604,-0.145947,0.245239,-2.255005,-1.38291,fine
1616135700.7389555,1,-2.0,-1.0,-12.0,-2.0,-3.0,0.875305,0.133606,-0.440796,0.147278,-0.030534,0.007634,0.022901,6.266162,-2.118628,5.53523,-1.680786,-3.137866,-0.10647,0.301465,-3.085229,-1.750171,fine
1616135700.749168,1,1.0,-1.0,-11.0,0.0,-3.0,0.87561,0.131653,-0.440552,0.147766,-0.007634,0.0,-0.045802,5.982642,-2.725147,5.581885,-1.958325,-3.708496,-0.072974,0.330176,-3.670215,-2.000195,fine
1616135700.758947,1,1.0,1.0,-14.0,-4.0,29.0,0.875977,0.130676,-0.440186,0.147522,0.015267,-0.007634,-0.114504,5.835498,-3.000293,5.63811,-2.099487,-3.970483,-0.028711,0.308643,-3.952539,-2.109058,fine
1616135700.7688773,1,0.0,0.0,-14.0,-1.0,-4.0,0.876465,0.130615,-0.439636,0.146301,0.022901,-0.007634,-0.175573,5.80918,-2.932105,5.746973,-2.117432,-3.914258,0.069385,0.193799,-3.936987,-2.064795,fine
1616135700.7790067,1,1.0,-1.0,-8.0,0.0,-4.0,0.877258,0.130981,-0.438721,0.143799,-0.015267,0.007634,-0.244275,5.886939,-2.573218,5.906079,-2.025317,-3.587671,0.215332,-0.001196,-3.670215,-1.881763,fine
1616135700.788948,1,-1.0,-3.0,-13.0,-1.0,-3.0,0.878479,0.131348,-0.4375,0.139893,-0.076336,0.030534,-0.29771,6.044848,-2.064795,6.080737,-1.84707,-3.125903,0.37085,-0.210547,-3.267066,-1.610205,fine
1616135700.7991776,1,-3.0,-1.0,-14.0,-2.0,-3.0,0.880066,0.131348,-0.435913,0.134766,-0.137405,0.053435,-0.343511,6.26018,-1.514502,6.235059,-1.60542,-2.628247,0.497656,-0.375635,-2.811279,-1.295581,fine
1616135700.8089192,1,1.0,0.0,-14.0,0.0,-3.0,0.881897,0.131104,-0.434082,0.128784,-0.175573,0.068702,-0.374046,6.477905,-1.008472,6.339136,-1.355396,-2.178442,0.569434,-0.472534,-2.379419,-1.007275,fine
1616135700.818985,1,-1.0,3.0,-12.0,-1.0,-3.0,0.883789,0.130676,-0.43219,0.122498,-0.183206,0.076336,-0.381679,6.657349,-0.537134,6.391772,-1.142456,-1.762134,0.587378,-0.529956,-1.964307,-0.781177,fine
1616135700.8290253,1,1.0,0.0,-11.0,-1.0,0.0,0.885498,0.130493,-0.430542,0.116211,-0.175573,0.053435,-0.374046,6.785352,-0.084937,6.414502,-0.98335,-1.368555,0.5802,-0.581396,-1.568335,-0.6125,fine
1616135700.8389792,1,0.0,0.0,-14.0,0.0,-3.0,0.886902,0.130493,-0.42926,0.109985,-0.167939,0.022901,-0.358779,6.901392,0.391187,6.436035,-0.840991,-0.95105,0.581396,-0.643604,-1.154419,-0.447412,fine
1616135700.8488474,1,-1.0,-1.0,-11.0,-2.0,-4.0,0.888,0.130737,-0.428467,0.10376,-0.175573,-0.015267,-0.351145,7.031787,0.910376,6.479102,-0.691455,-0.492871,0.611304,-0.724951,-0.710596,-0.248828,fine
1616135700.8590198,1,1.0,-1.0,-11.0,-2.0,-6.0,0.888855,0.130859,-0.428101,0.097351,-0.19084,-0.038168,-0.351145,7.178931,1.368555,6.507812,-0.52876,-0.093311,0.635229,-0.764429,-0.320605,-0.049048,fine
1616135700.8687923,1,-3.0,-3.0,-12.0,-1.0,-5.0,0.889526,0.130737,-0.428223,0.090759,-0.21374,-0.061069,-0.343511,7.29856,1.692749,6.475513,-0.399561,0.174658,0.604126,-0.739307,-0.040674,0.07417,fine
1616135700.8790429,1,-1.0,0.0,-12.0,0.0,-4.0,0.890015,0.13031,-0.428711,0.08429,-0.221374,-0.083969,-0.335878,7.393066,1.855444,6.369043,-0.300269,0.289502,0.503638,-0.634033,0.110059,0.111255,fine
1616135700.8890183,1,0.0,0.0,-12.0,-1.0,-3.0,0.890259,0.1297,-0.429504,0.07782,-0.229008,-0.091603,-0.328244,7.482788,1.917651,6.20874,-0.209351,0.308643,0.354102,-0.470142,0.183032,0.096899,fine
1616135700.8987997,1,1.0,0.0,-15.0,-1.0,19.0,0.890442,0.129089,-0.430542,0.071533,-0.21374,-0.099237,-0.320611,7.584473,1.867407,6.013745,-0.110059,0.217725,0.172266,-0.248828,0.155518,0.052637,fine
1616135700.9087105,1,-1.0,-1.0,-12.0,-2.0,-6.0,0.890381,0.128601,-0.431763,0.065491,-0.198473,-0.10687,-0.320611,7.724439,1.756152,5.799609,0.023926,0.065796,-0.021533,0.015552,0.068188,0.016748,fine
1616135700.9189565,1,-1.0,-3.0,-12.0,0.0,-6.0,0.890137,0.128357,-0.433105,0.059631,-0.167939,-0.10687,-0.320611,7.884741,1.598242,5.569922,0.178247,-0.133984,-0.229687,0.312231,-0.0646,-0.019141,fine
1616135700.9288368,1,-2.0,1.0,-11.0,-1.0,-5.0,0.889771,0.128479,-0.434509,0.054199,-0.129771,-0.114504,-0.312977,8.016333,1.40564,5.353394,0.301465,-0.373242,-0.421094,0.582593,-0.246436,-0.077759,fine
1616135700.9388654,1,0.0,-1.0,-11.0,0.0,-5.0,0.889221,0.129089,-0.436035,0.049133,-0.091603,-0.114504,-0.305344,8.086914,1.337451,5.175147,0.362476,-0.491675,-0.57063,0.756055,-0.325391,-0.139966,fine
1616135700.9488163,1,0.0,-6.0,-16.0,0.0,-5.0,0.888672,0.130066,-0.437439,0.044067,-0.091603,-0.114504,-0.312977,8.116821,1.445117,5.085425,0.384009,-0.441431,-0.631641,0.803906,-0.267969,-0.149536,fine
1616135700.9587705,1,1.0,-1.0,-12.0,0.0,-5.0,0.888306,0.13092,-0.438477,0.038757,-0.114504,-0.091603,-0.320611,8.125196,1.629346,5.086621,0.391187,-0.31582,-0.608911,0.765625,-0.159106,-0.107666,fine
1616135700.9688342,1,-1.0,-1.0,-14.0,0.0,-3.0,0.888184,0.131348,-0.438965,0.033142,-0.145038,-0.053435,-0.320611,8.122803,1.824341,5.135669,0.394775,-0.177051,-0.5479,0.693848,-0.047852,-0.04187,fine
1616135700.978922,1,-3.0,1.0,-14.0,0.0,-4.0,0.888489,0.131531,-0.438721,0.027405,-0.167939,-0.007634,-0.320611,8.123999,2.06958,5.252905,0.41272,0.014355,-0.434253,0.586182,0.098096,0.075366,fine
1616135700.9887874,1,0.0,-1.0,-8.0,3.0,-3.0,0.88916,0.131775,-0.437622,0.021729,-0.160305,0.045802,-0.320611,8.080933,2.355493,5.384497,0.397168,0.245239,-0.320605,0.453394,0.287109,0.177051,fine
1616135700.998165,1,-3.0,-2.0,-14.0,0.0,-3.0,0.890015,0.132202,-0.435974,0.016174,-0.152672,0.068702,-0.312977,7.973267,2.703613,5.498145,0.325391,0.534741,-0.23208,0.302661,0.544312,0.235669,fine
1616135701.0088315,1,-3.0,-4.0,-14.0,0.0,-3.0,0.89093,0.132812,-0.434143,0.010864,-0.145038,0.076336,-0.290076,7.845263,3.086426,5.598633,0.235669,0.858936,-0.160303,0.154321,0.84458,0.283521,fine
1616135701.0188863,1,-1.0,-1.0,-13.0,-2.0,-6.0,0.891724,0.133545,-0.432373,0.005981,-0.129771,0.061069,-0.267176,7.735205,3.44292,5.699121,0.161499,1.159204,-0.086133,0.020337,1.120923,0.343335,fine
1616135701.028787,1,1.0,-1.0,-10.0,-1.0,-3.0,0.892273,0.134399,-0.43103,0.001587,-0.10687,0.038168,-0.229008,7.674194,3.751563,5.784058,0.131592,1.414014,-0.020337,-0.069385,1.351807,0.425879,fine
1616135701.0388603,1,1.0,1.0,-12.0,-1.0,-3.0,0.892517,0.135437,-0.430115,-0.002197,-0.076336,0.007634,-0.198473,7.65625,4.04585,5.858228,0.137573,1.658057,0.044263,-0.133984,1.569531,0.534741,fine
1616135701.0480287,1,-3.0,-1.0,-12.0,3.0,-3.0,0.892578,0.136658,-0.429626,-0.005554,-0.061069,-0.015267,-0.175573,7.680176,4.294678,5.89292,0.178247,1.856641,0.076563,-0.145947,1.745386,0.643604,fine
1616135701.058035,1,1.0,-2.0,-10.0,2.0,0.0,0.892395,0.138,-0.429504,-0.008423,-0.045802,-0.030534,-0.145038,7.737597,4.523169,5.927612,0.247632,2.038476,0.11604,-0.143555,1.898511,0.773999,fine
1616135701.068206,1,0.0,1.0,-10.0,3.0,-6.0,0.89209,0.139221,-0.429626,-0.010864,-0.030534,-0.038168,-0.114504,7.787842,4.694238,5.947949,0.305054,2.167676,0.145947,-0.136377,2.004981,0.87688,fine
1616135701.0787003,1,1.0,1.0,-7.0,2.0,-5.0,0.891785,0.140259,-0.429932,-0.012878,-0.038168,-0.038168,-0.083969,7.815356,4.777978,5.90249,0.334961,2.216724,0.111255,-0.090918,2.052832,0.899609,fine
1616135701.0881145,1,1.0,0.0,-12.0,-1.0,-3.0,0.891479,0.14093,-0.430298,-0.014404,-0.038168,-0.038168,-0.053435,7.811768,4.743286,5.802002,0.332568,2.159302,0.020337,-0.011963,2.01814,0.83501,fine
1616135701.0988138,1,0.0,0.0,-11.0,0.0,-4.0,0.891174,0.141357,-0.430725,-0.015442,-0.030534,-0.030534,-0.030534,7.78186,4.588965,5.659644,0.300269,1.989429,-0.111255,0.086133,1.890137,0.690259,fine
1616135701.108067,1,0.0,-1.0,-11.0,10.0,-6.0,0.89093,0.141663,-0.431152,-0.015991,-0.015267,-0.030534,-0.007634,7.726831,4.367651,5.488574,0.24165,1.758545,-0.27395,0.198584,1.715479,0.490479,fine
1616135701.1180537,1,1.0,1.0,-14.0,-1.0,-3.0,0.890625,0.141968,-0.431702,-0.016113,0.0,-0.022901,0.007634,7.667017,4.142749,5.319898,0.175854,1.527661,-0.43186,0.300269,1.54082,0.288306,fine
1616135701.1281238,1,-1.0,-1.0,-12.0,2.0,-5.0,0.89032,0.142273,-0.432251,-0.015869,0.007634,-0.022901,0.022901,7.639502,3.925025,5.207446,0.139966,1.307544,-0.533545,0.375635,1.360181,0.143555,fine
1616135701.138133,1,0.0,1.0,-11.0,3.0,-1.0,0.890015,0.142456,-0.432739,-0.015503,0.007634,-0.015267,0.030534,7.651465,3.682178,5.133276,0.144751,1.064697,-0.596948,0.451001,1.14126,0.045459,fine
1616135701.1482322,1,2.0,4.0,-14.0,2.0,0.0,0.889893,0.142456,-0.433044,-0.014954,0.0,0.0,0.030534,7.676587,3.43335,5.079443,0.165088,0.820654,-0.645996,0.523975,0.917554,-0.031104,fine
1616135701.1579623,1,0.0,1.0,-14.0,0.0,-3.0,0.889832,0.142334,-0.433228,-0.014404,0.0,0.007634,0.030534,7.682569,3.202466,5.053125,0.166284,0.596948,-0.669922,0.564648,0.708203,-0.104077,fine
1616135701.1680193,1,-3.0,0.0,-12.0,0.0,-3.0,0.889893,0.14209,-0.433228,-0.013977,-0.007634,0.022901,0.022901,7.674194,3.015845,5.068677,0.156714,0.418701,-0.656763,0.564648,0.535937,-0.151929,fine
1616135701.1779292,1,1.0,1.0,-10.0,3.0,-2.0,0.890076,0.141785,-0.432922,-0.013672,-0.022901,0.030534,0.015267,7.658643,2.863916,5.127295,0.143555,0.27395,-0.604126,0.529956,0.386401,-0.169873,fine
1616135701.1878958,1,-1.0,0.0,-13.0,-2.0,-4.0,0.890381,0.141296,-0.432434,-0.01355,-0.030534,0.045802,0.007634,7.639502,2.719165,5.214624,0.130396,0.137573,-0.527563,0.476123,0.239258,-0.172266,fine
1616135701.1982172,1,-3.0,-2.0,-11.0,-43.0,-5.0,0.890808,0.140747,-0.431763,-0.013428,-0.038168,0.053435,0.007634,7.620361,2.60791,5.325879,0.118433,0.035889,-0.430664,0.403149,0.119629,-0.151929,fine
1616135702.467123,1,-1.0,-1.0,-12.0,0.0,-5.0,0.894165,0.135742,-0.426392,-0.014954,0.0,0.0,-0.007634,7.431348,2.426074,5.802002,-0.001196,-0.077759,-0.072974,0.061011,-0.057422,-0.063403,fine
1616135702.476833,1,-3.0,0.0,-11.0,2.0,-3.0,0.894165,0.135803,-0.426331,-0.014954,0.0,0.0,-0.007634,7.437329,2.45957,5.821143,0.004785,-0.044263,-0.053833,0.047852,-0.029907,-0.039478,fine
1616135702.4870026,1,0.0,-3.0,-11.0,0.0,-4.0,0.894165,0.135864,-0.42627,-0.015015,0.0,0.0,-0.007634,7.451684,2.488281,5.837891,0.020337,-0.017944,-0.037085,0.04187,-0.010767,-0.010767,fine
1616135702.4967914,1,1.0,-2.0,-12.0,0.0,-3.0,0.894226,0.135925,-0.426208,-0.015076,-0.007634,0.0,-0.007634,7.458862,2.5146,5.849854,0.028711,0.005981,-0.027515,0.038281,0.007178,0.005981,fine
1616135702.5068083,1,3.0,0.0,-7.0,-1.0,-1.0,0.894226,0.135864,-0.426208,-0.015198,-0.007634,0.0,-0.007634,7.45647,2.545703,5.848657,0.026318,0.037085,-0.028711,0.034692,0.038281,0.011963,fine
1616135702.5170257,1,0.0,-1.0,-11.0,0.0,-6.0,0.894226,0.135864,-0.426208,-0.01532,-0.007634,0.0,-0.007634,7.463647,2.534936,5.837891,0.033496,0.025122,-0.039478,0.049048,0.027515,0.007178,fine
1616135702.5269282,1,0.0,-2.0,-11.0,-2.0,-1.0,0.894226,0.135803,-0.426208,-0.015381,-0.007634,-0.007634,-0.007634,7.46604,2.508618,5.819946,0.035889,0.0,-0.057422,0.065796,0.007178,-0.007178,fine
1616135702.5369518,1,0.0,-2.0,-11.0,-1.0,-4.0,0.894165,0.135803,-0.42627,-0.015381,0.0,-0.007634,-0.007634,7.464844,2.505029,5.80918,0.034692,-0.002393,-0.066992,0.072974,0.007178,-0.014355,fine
1616135702.5469918,1,-5.0,-1.0,-10.0,-1.0,-5.0,0.894165,0.135864,-0.42627,-0.015381,0.0,-0.007634,-0.007634,7.455274,2.513403,5.80918,0.025122,0.003589,-0.065796,0.065796,0.014355,-0.019141,fine
1616135702.556879,1,-1.0,1.0,-26.0,-2.0,-5.0,0.894165,0.135986,-0.426331,-0.015381,0.0,-0.007634,-0.007634,7.457666,2.519385,5.80918,0.026318,0.007178,-0.065796,0.065796,0.017944,-0.016748,fine
