"Alphabet","timestamp","user_id","flex_1","flex_2","flex_3","flex_4","flex_5","Qw","Qx","Qy","Qz","GYRx","GYRy","GYRz","ACCx","ACCy","ACCz","ACCx_body","ACCy_body","ACCz_body","ACCx_world","ACCy_world","ACCz_world"
"G","1617445667.263157","7","-17","3","44","48","28","0.860291","0.497131","-0.108215","0.030396","-0.030534","0","-0.007634","2.226294","8.966187","4.90957","0.105273","0.647192","0.184229","-0.028711","0.160303","0.660352"
"G","1617445667.2532167","7","-17","5","46","48","31","0.860107","0.497437","-0.108398","0.030518","-0.030534","0.007634","-0.015267","2.222705","9.02002","4.943067","0.096899","0.698633","0.223706","-0.05144","0.153125","0.721362"
"G","1617445667.2433176","7","-15","4","46","47","28","0.859985","0.49762","-0.108643","0.030701","-0.022901","0.007634","-0.022901","2.240649","9.002075","4.955029","0.108862","0.679492","0.239258","-0.039478","0.129199","0.715381"
"G","1617445667.2332792","7","-16","1","41","45","30","0.859863","0.497803","-0.108887","0.030823","-0.015267","0","-0.015267","2.241846","8.950635","4.958618","0.105273","0.625659","0.247632","-0.037085","0.094507","0.672314"
"G","1617445667.2233138","7","-16","4","48","48","29","0.859741","0.497925","-0.109009","0.031006","-0.022901","0","-0.015267","2.215527","8.951831","4.966992","0.075366","0.626855","0.259595","-0.068188","0.086133","0.673511"
"G","1617445667.2134042","7","-17","5","45","50","30","0.859619","0.498108","-0.109131","0.031189","-0.022901","0","-0.015267","2.21792","8.962598","4.978955","0.07417","0.636426","0.275146","-0.072974","0.076563","0.687866"
"G","1617445667.203375","7","-19","3","45","47","30","0.859497","0.49823","-0.109314","0.031311","-0.015267","0.007634","-0.022901","2.213135","8.937475","5.00647","0.065796","0.611304","0.30625","-0.082544","0.038281","0.679492"
"G","1617445667.193334","7","-13","1","46","48","28","0.859436","0.498291","-0.109619","0.031555","-0.015267","0.007634","-0.015267","2.220313","8.901587","5.055518","0.0646","0.575415","0.35769","-0.086133","-0.022729","0.673511"
"G","1617445667.1834135","7","-19","0","45","46","31","0.859375","0.49823","-0.109985","0.031677","0","0.007634","-0.022901","2.264575","8.835791","5.14165","0.101685","0.512012","0.44502","-0.055029","-0.132788","0.669922"
"G","1617445667.1732333","7","-17","3","46","47","31","0.859436","0.498108","-0.110107","0.03186","0.007634","-0.022901","-0.015267","2.225098","8.748462","5.203857","0.058618","0.425879","0.504834","-0.092114","-0.224902","0.616089"
"G","1617445667.1635008","7","-18","4","45","47","31","0.859497","0.498047","-0.109863","0.032104","0","-0.030534","0","2.110254","8.737696","5.205054","-0.053833","0.416309","0.503638","-0.19978","-0.22251","0.582593"
"G","1617445667.1533103","7","-16","4","45","47","30","0.859558","0.498108","-0.109497","0.032349","-0.007634","-0.030534","0","2.074365","8.789136","5.19668","-0.086133","0.466553","0.494067","-0.236865","-0.187817","0.613696"
"G","1617445667.1432505","7","-15","5","44","46","31","0.859436","0.49823","-0.109253","0.032471","-0.015267","-0.015267","0","2.071973","8.834595","5.191895","-0.084937","0.510815","0.491675","-0.242847","-0.163892","0.650781"
"G","1617445667.1332383","7","-17","3","46","46","29","0.859314","0.498535","-0.109253","0.032532","-0.015267","0.007634","0","2.107861","8.869287","5.175147","-0.049048","0.541919","0.479712","-0.210547","-0.139966","0.678296"
"G","1617445667.1234462","7","-17","3","44","48","27","0.859131","0.498779","-0.109558","0.032471","-0.015267","0.022901","-0.007634","2.170068","8.862109","5.152417","0.007178","0.532349","0.46416","-0.153125","-0.133984","0.675903"
"G","1617445667.113222","7","-19","3","43","44","29","0.858948","0.499023","-0.110046","0.032288","-0.007634","0.022901","-0.007634","2.204761","8.84895","5.094995","0.035889","0.516797","0.41272","-0.114844","-0.099292","0.643604"
"G","1617445667.1035368","7","-17","3","42","48","32","0.858765","0.499207","-0.110535","0.032166","-0.007634","0.030534","-0.007634","2.213135","8.863306","5.017236","0.037085","0.529956","0.340942","-0.105273","-0.031104","0.620874"
"G","1617445667.0932322","7","-17","3","44","46","28","0.858643","0.499329","-0.111145","0.031982","0","0.038168","-0.007634","2.288501","8.858521","4.929907","0.104077","0.523975","0.258398","-0.026318","0.0323","0.590967"
"G","1617445667.0832105","7","-19","4","46","44","28","0.858521","0.499329","-0.111877","0.031677","0.007634","0.045802","-0.007634","2.37583","8.822632","4.82583","0.183032","0.489282","0.15791","0.070581","0.096899","0.531152"
"G","1617445667.0733128","7","-16","2","44","44","26","0.858521","0.499207","-0.112549","0.031372","0.007634","0.045802","-0.007634","2.45957","8.778369","4.720557","0.258398","0.447412","0.053833","0.16748","0.161499","0.462964"
"G","1617445667.063345","7","-18","1","45","45","28","0.858582","0.499023","-0.11322","0.031006","0.007634","0.038168","-0.007634","2.507422","8.760425","4.647583","0.297876","0.430664","-0.019141","0.220117","0.212939","0.423486"
"G","1617445667.0532768","7","-15","5","44","46","29","0.858643","0.498779","-0.113708","0.030701","0","0.030534","-0.015267","2.520581","8.773584","4.620069","0.30625","0.447412","-0.049048","0.230884","0.247632","0.425879"
"G","1617445667.0432816","7","-19","0","44","46","28","0.858643","0.498657","-0.114014","0.030518","-0.007634","0.015267","-0.007634","2.479907","8.822632","4.616479","0.261987","0.497656","-0.052637","0.18064","0.277539","0.455786"
"G","1617445667.0334406","7","-14","1","45","46","29","0.858643","0.498657","-0.114258","0.030457","-0.022901","0.015267","-0.007634","2.423682","8.890821","4.628442","0.202173","0.565845","-0.040674","0.108862","0.305054","0.50603"
"G","1617445667.023422","7","-16","2","45","44","53","0.858582","0.498779","-0.114502","0.030334","-0.022901","0.022901","-0.007634","2.446411","8.937475","4.683472","0.22251","0.611304","0.016748","0.111255","0.277539","0.576611"
"G","1617445667.0131743","7","-21","1","44","47","29","0.858459","0.498901","-0.114868","0.030151","-0.015267","0.022901","-0.007634","2.45","8.932691","4.720557","0.221313","0.605322","0.057422","0.104077","0.239258","0.590967"
"G","1617445667.0033514","7","-17","3","46","44","32","0.858398","0.498901","-0.115234","0.029907","0","0.030534","0","2.460767","8.883642","4.73252","0.228491","0.556274","0.071777","0.117236","0.200977","0.558667"
"G","1617445666.9934075","7","-15","5","42","47","27","0.858459","0.498779","-0.115601","0.029602","0.007634","0.022901","0","2.469141","8.823828","4.743286","0.234473","0.497656","0.081348","0.130396","0.162695","0.514404"
"G","1617445666.9834423","7","-17","3","41","44","32","0.858521","0.498535","-0.115906","0.029236","0.007634","0.022901","0","2.489478","8.785547","4.768408","0.252417","0.462964","0.104077","0.150732","0.12561","0.500049"
"G","1617445666.973399","7","-16","4","45","46","32","0.858643","0.498352","-0.11615","0.028931","0.007634","0.007634","0","2.490674","8.781958","4.800708","0.252417","0.460571","0.132788","0.145947","0.099292","0.510815"
"G","1617445666.963281","7","-16","3","46","46","28","0.858765","0.498169","-0.116089","0.028687","0.007634","-0.007634","0.007634","2.434448","8.795117","4.821045","0.19978","0.474927","0.149536","0.089722","0.095703","0.519189"
"G","1617445666.9531927","7","-15","5","46","45","27","0.858887","0.497986","-0.115845","0.028625","0","-0.022901","0.007634","2.390186","8.838183","4.848559","0.160303","0.519189","0.172266","0.040674","0.100488","0.558667"
"G","1617445666.9435868","7","-16","4","45","45","28","0.858948","0.497986","-0.115479","0.028564","-0.007634","-0.022901","0.007634","2.355493","8.882446","4.866504","0.131592","0.562256","0.189014","0.002393","0.110059","0.596948"
"G","1617445666.9334629","7","-16","4","45","47","31","0.859009","0.497986","-0.115112","0.028564","-0.015267","-0.022901","0.007634","2.344727","8.92312","4.898804","0.126807","0.60293","0.218921","-0.011963","0.105273","0.6448"
"G","1617445666.9235654","7","-17","4","44","47","30","0.859009","0.498047","-0.114807","0.028625","-0.015267","-0.015267","0","2.349512","8.953028","4.937085","0.136377","0.631641","0.257202","-0.013159","0.086133","0.689062"
"G","1617445666.9133208","7","-15","4","45","44","29","0.858887","0.49823","-0.114685","0.028687","-0.022901","-0.007634","-0.007634","2.342334","8.969775","4.961011","0.130396","0.645996","0.284717","-0.026318","0.069385","0.712988"
"G","1617445666.903186","7","-15","5","46","47","29","0.858826","0.498413","-0.114685","0.028809","-0.015267","0","-0.007634","2.349512","8.962598","4.971777","0.137573","0.636426","0.297876","-0.020337","0.052637","0.712988"
"G","1617445666.893402","7","-16","1","46","46","28","0.858704","0.498535","-0.114868","0.028809","-0.015267","0.015267","-0.007634","2.423682","8.942261","5.007666","0.208154","0.616089","0.337354","0.044263","0.003589","0.730933"
"G","1617445666.883447","7","-16","4","43","47","31","0.858643","0.498596","-0.115051","0.028687","0","0","-0.007634","2.4823","8.893213","5.04834","0.265576","0.565845","0.38042","0.100488","-0.061011","0.721362"
"G","1617445666.873419","7","-17","1","43","48","31","0.858704","0.498535","-0.114868","0.028687","0.007634","-0.038168","0","2.381812","8.829809","5.019629","0.16748","0.503638","0.349316","0.020337","-0.059814","0.631641"
"G","1617445666.863379","7","-15","5","44","46","30","0.858826","0.498413","-0.114319","0.028809","0.007634","-0.038168","0.015267","2.295679","8.846558","4.957422","0.089722","0.520386","0.283521","-0.044263","0.00957","0.596948"
"G","1617445666.8536236","7","-18","4","42","44","28","0.858948","0.498352","-0.11377","0.028809","0","-0.030534","0.015267","2.319604","8.895605","4.925122","0.122021","0.569434","0.246436","-0.014355","0.0646","0.628052"
"G","1617445666.843435","7","-16","4","46","47","27","0.859009","0.498352","-0.113342","0.028809","-0.007634","-0.015267","0.007634","2.353101","8.95542","4.916748","0.162695","0.628052","0.236865","0.016748","0.099292","0.683081"
"G","1617445666.83336","7","-16","3","45","46","29","0.859009","0.498413","-0.113098","0.028809","-0.015267","-0.007634","0","2.359082","9.02002","4.935889","0.173462","0.691455","0.256006","0.013159","0.114844","0.747681"
"G","1617445666.8241506","7","-20","3","44","47","31","0.858948","0.498535","-0.113037","0.02887","-0.022901","-0.007634","-0.007634","2.34353","9.048731","4.955029","0.15791","0.71897","0.276343","-0.008374","0.111255","0.777588"
"G","1617445666.8143642","7","-19","5","45","46","28","0.858826","0.498657","-0.113037","0.028992","-0.022901","0","-0.015267","2.339942","9.034375","4.975366","0.153125","0.704614","0.300269","-0.014355","0.08374","0.775195"
"G","1617445666.803988","7","-19","5","44","44","31","0.858765","0.498779","-0.11322","0.029175","-0.015267","0.007634","-0.015267","2.361475","8.988916","5.012451","0.169873","0.657959","0.339746","0.001196","0.025122","0.758447"
"G","1617445666.7940528","7","-16","4","47","48","27","0.858765","0.498779","-0.113403","0.029236","0.007634","0","-0.015267","2.377026","8.893213","5.037573","0.181836","0.562256","0.364868","0.023926","-0.044263","0.691455"
"G","1617445666.783545","7","-13","4","45","50","29","0.858826","0.498596","-0.113342","0.029358","0.015267","-0.022901","-0.007634","2.314819","8.753247","5.008862","0.119629","0.424683","0.333765","-0.007178","-0.082544","0.546704"
"G","1617445666.7741127","7","-15","3","44","48","29","0.859009","0.498291","-0.113159","0.029541","0.015267","-0.022901","-0.007634","2.265771","8.682666","4.963403","0.071777","0.35769","0.281128","-0.034692","-0.066992","0.453394"
"G","1617445666.7642057","7","-17","3","44","44","31","0.859131","0.498169","-0.112915","0.029663","0","-0.022901","-0.007634","2.274146","8.707788","4.940674","0.082544","0.384009","0.25481","-0.023926","-0.031104","0.465356"
"G","1617445666.7534933","7","-19","5","44","43","27","0.859131","0.498169","-0.112732","0.029846","-0.015267","-0.022901","-0.015267","2.253808","8.769995","4.917944","0.063403","0.446216","0.23208","-0.049048","0.019141","0.503638"
"G","1617445666.7442772","7","-16","3","42","44","31","0.85907","0.498291","-0.112549","0.030151","-0.022901","-0.022901","-0.015267","2.223901","8.826221","4.896411","0.033496","0.502441","0.211743","-0.08374","0.066992","0.534741"
"G","1617445666.7341046","7","-14","4","44","47","30","0.858948","0.498596","-0.112366","0.030518","-0.030534","-0.022901","-0.015267","2.202368","8.868091","4.864111","0.011963","0.540723","0.184229","-0.10647","0.110059","0.549097"
"G","1617445666.7242649","7","-16","9","44","43","28","0.858765","0.49884","-0.112244","0.030945","-0.030534","-0.022901","-0.015267","2.180835","8.883642","4.827026","-0.010767","0.555078","0.151929","-0.12561","0.145947","0.540723"
"G","1617445666.7141662","7","-17","7","43","47","27","0.858643","0.499084","-0.112244","0.031311","-0.022901","0","-0.015267","2.207153","8.860913","4.804297","0.010767","0.529956","0.132788","-0.098096","0.14834","0.515601"
"G","1617445666.7042325","7","-15","4","45","48","30","0.858521","0.499207","-0.11261","0.031494","-0.015267","0.030534","-0.015267","2.275342","8.802295","4.787549","0.071777","0.471338","0.120825","-0.027515","0.126807","0.47373"
"G","1617445666.694213","7","-15","4","45","45","26","0.858398","0.499207","-0.113342","0.031433","-0.007634","0.045802","-0.022901","2.378223","8.720947","4.803101","0.162695","0.391187","0.139966","0.069385","0.0646","0.435449"
"G","1617445666.684302","7","-16","3","45","47","28","0.858337","0.499207","-0.114197","0.03125","-0.007634","0.045802","-0.015267","2.442822","8.677881","4.818652","0.215332","0.349316","0.15791","0.124414","0.023926","0.419897"
"G","1617445666.6741326","7","-16","3","44","47","26","0.858154","0.499268","-0.114868","0.031067","-0.015267","0.030534","-0.022901","2.45","8.689844","4.828223","0.212939","0.361279","0.173462","0.117236","0.016748","0.437842"
"G","1617445666.6642935","7","-15","4","46","47","29","0.858032","0.499451","-0.115295","0.030945","-0.022901","0.007634","-0.015267","2.405737","8.736499","4.837793","0.162695","0.406738","0.187817","0.057422","0.029907","0.471338"
"G","1617445666.654242","7","-20","5","46","46","31","0.857788","0.499756","-0.115417","0.031067","-0.030534","-0.007634","-0.007634","2.337549","8.813062","4.830615","0.092114","0.480908","0.187817","-0.022729","0.070581","0.517993"
"G","1617445666.6441586","7","-17","1","42","45","27","0.857605","0.500183","-0.115295","0.03125","-0.038168","-0.015267","0","2.32439","8.877661","4.818652","0.078955","0.539526","0.183032","-0.044263","0.104077","0.563452"
"G","1617445666.6341512","7","-17","3","43","46","28","0.857361","0.500549","-0.115112","0.031372","-0.030534","-0.015267","0","2.329175","8.894409","4.792334","0.086133","0.552686","0.163892","-0.035889","0.126807","0.567041"
"G","1617445666.624302","7","-17","3","46","41","28","0.857239","0.500854","-0.115051","0.031494","-0.022901","-0.007634","0","2.36626","8.897998","4.789941","0.123218","0.552686","0.166284","-0.001196","0.122021","0.576611"
"G","1617445666.614112","7","-16","1","44","46","29","0.857117","0.501099","-0.115051","0.031555","-0.022901","0.007634","-0.007634","2.394971","8.896802","4.79353","0.151929","0.549097","0.174658","0.025122","0.111255","0.583789"
"G","1617445666.6041386","7","-16","5","42","44","30","0.856995","0.501221","-0.115173","0.031555","-0.022901","0.007634","-0.007634","2.40813","8.932691","4.819849","0.162695","0.583789","0.203369","0.025122","0.102881","0.629248"
"G","1617445666.5943213","7","-19","4","44","44","32","0.856812","0.501465","-0.115356","0.031555","-0.015267","0.007634","-0.007634","2.40813","8.981738","4.853345","0.160303","0.631641","0.242847","0.007178","0.092114","0.689062"
"G","1617445666.5841196","7","-17","5","42","52","28","0.856689","0.501648","-0.11554","0.031433","-0.015267","0.007634","0","2.37583","9.009253","4.854541","0.12561","0.656763","0.248828","-0.029907","0.100488","0.704614"
"G","1617445666.5741842","7","-17","4","45","46","29","0.856628","0.501709","-0.115601","0.031372","-0.007634","0","0","2.34353","9.012842","4.850952","0.093311","0.659155","0.247632","-0.062207","0.105273","0.698633"
"G","1617445666.5640936","7","-15","1","44","43","26","0.856567","0.501831","-0.115662","0.031372","-0.015267","0","0","2.320801","9.015234","4.836596","0.069385","0.660352","0.235669","-0.08374","0.117236","0.689062"
"G","1617445666.5540757","7","-15","4","44","44","29","0.856567","0.501892","-0.115662","0.031311","-0.015267","0","0","2.330371","9.008057","4.835401","0.080151","0.651978","0.234473","-0.071777","0.113647","0.684277"
"G","1617445666.5443184","7","-19","1","45","45","31","0.856506","0.501953","-0.115723","0.031372","-0.007634","0","-0.007634","2.350708","8.959009","4.838989","0.099292","0.60293","0.239258","-0.045459","0.08374","0.648389"
"G","1617445666.5340965","7","-17","5","46","46","30","0.856506","0.501953","-0.115845","0.031433","-0.007634","0","-0.007634","2.371045","8.902783","4.846167","0.11604","0.546704","0.247632","-0.021533","0.047852","0.608911"
"G","1617445666.5241966","7","-19","4","44","47","28","0.856506","0.501892","-0.116028","0.031494","0","0","-0.015267","2.404541","8.858521","4.871289","0.145947","0.503638","0.272754","0.00957","0.002393","0.58977"
"G","1617445666.5141318","7","-16","4","44","44","28","0.856506","0.501831","-0.116089","0.031555","-0.007634","-0.007634","-0.015267","2.422485","8.841772","4.895215","0.162695","0.488086","0.295483","0.025122","-0.023926","0.592163"
"G","1617445666.5042064","7","-20","3","44","44","29","0.856445","0.501892","-0.116089","0.031677","-0.007634","-0.015267","-0.015267","2.396167","8.851343","4.919141","0.135181","0.497656","0.320605","-0.007178","-0.039478","0.605322"
"G","1617445666.4943724","7","-16","5","45","47","29","0.856445","0.501953","-0.116028","0.031921","-0.015267","-0.022901","-0.022901","2.356689","8.869287","4.920337","0.094507","0.515601","0.322998","-0.050244","-0.031104","0.6125"
"G","1617445666.4842136","7","-19","3","45","48","31","0.856323","0.502075","-0.115906","0.032349","-0.015267","-0.022901","-0.015267","2.318408","8.877661","4.901196","0.053833","0.523975","0.30625","-0.088525","-0.00957","0.601733"
"G","1617445666.474261","7","-16","3","45","48","29","0.856262","0.502197","-0.115784","0.032654","-0.007634","-0.015267","-0.015267","2.306445","8.875269","4.861719","0.040674","0.520386","0.267969","-0.093311","0.021533","0.577808"
"G","1617445666.464289","7","-15","3","44","48","30","0.856262","0.502258","-0.115723","0.032898","-0.007634","-0.015267","-0.007634","2.332764","8.841772","4.827026","0.065796","0.48689","0.234473","-0.058618","0.0323","0.539526"
"G","1617445666.4541078","7","-16","4","44","47","27","0.856262","0.502258","-0.115662","0.033081","0","-0.007634","-0.007634","2.345923","8.813062","4.797119","0.078955","0.458179","0.203369","-0.035889","0.044263","0.503638"
"G","1617445666.4441593","7","-16","4","46","46","31","0.856323","0.502197","-0.115662","0.033081","0","0","0","2.362671","8.798706","4.773193","0.095703","0.443823","0.178247","-0.013159","0.057422","0.483301"
"G","1617445666.4341402","7","-19","1","45","44","29","0.856323","0.502197","-0.115723","0.033081","-0.007634","0.007634","0","2.406934","8.796313","4.776782","0.13877","0.441431","0.181836","0.027515","0.05144","0.492871"
"G","1617445666.424327","7","-16","3","45","48","29","0.856262","0.502197","-0.115906","0.032898","-0.007634","0.015267","-0.007634","2.45","8.785547","4.788745","0.18064","0.43186","0.194995","0.068188","0.0323","0.501245"
"G","1617445666.414421","7","-16","5","44","46","31","0.856262","0.502197","-0.116211","0.032776","-0.007634","0.022901","-0.007634","2.484692","8.771192","4.799512","0.210547","0.417505","0.206958","0.096899","0.013159","0.501245"
"G","1617445666.404241","7","-17","3","43","44","28","0.856201","0.502136","-0.116516","0.032654","0","0.015267","-0.015267","2.5146","8.746069","4.815063","0.236865","0.393579","0.223706","0.124414","-0.013159","0.494067"
"G","1617445666.394308","7","-11","5","44","45","29","0.856201","0.502136","-0.116638","0.032593","-0.007634","-0.007634","-0.007634","2.465552","8.735303","4.804297","0.186621","0.382812","0.212939","0.078955","-0.007178","0.468945"
"G","1617445666.3842876","7","-16","5","45","45","28","0.856201","0.502258","-0.116455","0.032593","-0.015267","-0.015267","-0.007634","2.420093","8.79751","4.792334","0.144751","0.442627","0.202173","0.029907","0.033496","0.504834"
"G","1617445666.374251","7","-16","1","45","47","30","0.856079","0.502441","-0.116394","0.032715","-0.022901","-0.007634","-0.007634","2.404541","8.875269","4.775586","0.129199","0.519189","0.189014","0.003589","0.08374","0.56106"
"G","1617445666.3641431","7","-16","4","45","47","27","0.855896","0.502747","-0.116455","0.032776","-0.022901","0.007634","-0.015267","2.412915","8.932691","4.75166","0.135181","0.573022","0.171069","0.002393","0.124414","0.599341"
"G","1617445666.3542185","7","-15","1","42","46","30","0.855713","0.50293","-0.116699","0.032898","-0.015267","0.015267","-0.015267","2.446411","8.941065","4.739697","0.163892","0.5802","0.165088","0.029907","0.131592","0.610107"
"G","1617445666.3445446","7","-20","1","44","48","29","0.855652","0.503052","-0.117004","0.032837","-0.007634","0.007634","-0.015267","2.472729","8.914746","4.731323","0.186621","0.552686","0.159106","0.057422","0.122021","0.588574"
"G","1617445666.3342574","7","-17","-1","44","43","28","0.855591","0.503113","-0.117126","0.032837","-0.015267","-0.007634","0","2.438037","8.902783","4.707397","0.149536","0.540723","0.137573","0.027515","0.136377","0.559863"
"G","1617445666.324475","7","-27","5","44","53","31","0.85553","0.503235","-0.117065","0.032776","-0.022901","-0.007634","0","2.422485","8.938672","4.721753","0.135181","0.575415","0.154321","0.004785","0.139966","0.593359"
"G","1617445666.3144178","7","-15","4","45","50","31","0.855408","0.503418","-0.116943","0.032837","-0.015267","-0.007634","0","2.42727","8.938672","4.71936","0.142358","0.573022","0.155518","0.011963","0.136377","0.594556"
"G","1617445666.3044095","7","-15","1","44","43","29","0.855347","0.503479","-0.117004","0.032837","-0.007634","0.007634","-0.007634","2.453589","8.911158","4.725342","0.16748","0.545508","0.162695","0.039478","0.114844","0.5802"
"G","1617445666.2942476","7","-13","3","46","47","34","0.855347","0.503479","-0.117188","0.032776","-0.007634","0.015267","-0.007634","2.488281","8.864502","4.756445","0.19978","0.498853","0.193799","0.07417","0.063403","0.562256"
"G","1617445666.2843158","7","-13","5","46","43","32","0.855347","0.503479","-0.117371","0.032715","-0.007634","0.007634","-0.007634","2.489478","8.840576","4.777978","0.198584","0.474927","0.216528","0.072974","0.0323","0.551489"
"G","1617445666.2742765","7","-16","5","45","44","30","0.855347","0.503479","-0.117554","0.032654","-0.007634","0.007634","-0.007634","2.478711","8.869287","4.806689","0.185425","0.503638","0.245239","0.050244","0.021533","0.587378"
"G","1617445666.2643194","7","-18","4","44","44","29","0.855286","0.50354","-0.117615","0.032654","-0.007634","-0.007634","0","2.458374","8.911158","4.831811","0.163892","0.544312","0.272754","0.017944","0.019141","0.629248"
"G","1617445666.2545033","7","-15","0","44","43","26","0.855225","0.503662","-0.117432","0.032593","-0.007634","-0.022901","0.007634","2.412915","8.950635","4.835401","0.122021","0.582593","0.277539","-0.028711","0.035889","0.65437"
"G","1617445666.2443783","7","-17","3","42","46","29","0.855225","0.503784","-0.117065","0.032593","-0.015267","-0.022901","0.015267","2.356689","8.982935","4.823438","0.071777","0.6125","0.265576","-0.080151","0.0646","0.662744"
"G","1617445666.234301","7","-17","3","42","48","32","0.855225","0.503845","-0.116699","0.032532","-0.007634","-0.022901","0.007634","2.359082","8.976954","4.823438","0.081348","0.605322","0.265576","-0.069385","0.059814","0.659155"
"G","1617445666.2246902","7","-19","5","45","44","33","0.855225","0.503906","-0.116333","0.032532","-0.007634","-0.015267","0.007634","2.374634","8.950635","4.819849","0.102881","0.577808","0.261987","-0.043066","0.047852","0.638818"
"G","1617445666.214308","7","-15","1","44","48","30","0.855225","0.503967","-0.11615","0.032593","-0.015267","-0.007634","0","2.420093","8.936279","4.841382","0.150732","0.562256","0.283521","0.001196","0.019141","0.645996"
"G","1617445666.2043188","7","-17","1","44","47","30","0.855164","0.504028","-0.116089","0.032654","-0.015267","-0.007634","-0.015267","2.444019","8.914746","4.879663","0.174658","0.540723","0.322998","0.021533","-0.026318","0.651978"
"G","1617445666.194464","7","-16","5","43","46","29","0.855103","0.504089","-0.11615","0.032837","-0.007634","-0.007634","-0.022901","2.430859","8.890821","4.929907","0.159106","0.516797","0.375635","0.002393","-0.082544","0.651978"
"G","1617445666.1846046","7","-20","1","44","44","28","0.855103","0.50415","-0.11615","0.033142","-0.007634","-0.022901","-0.015267","2.380615","8.877661","4.955029","0.105273","0.502441","0.400757","-0.050244","-0.108862","0.638818"
"G","1617445666.1744704","7","-16","3","44","44","27","0.855042","0.504211","-0.115845","0.033386","-0.007634","-0.030534","-0.007634","2.330371","8.880054","4.95144","0.058618","0.504834","0.398364","-0.095703","-0.102881","0.629248"
"G","1617445666.164379","7","-16","3","44","43","26","0.855042","0.504333","-0.115479","0.03363","-0.007634","-0.030534","0.007634","2.286108","8.875269","4.908374","0.017944","0.498853","0.355298","-0.126807","-0.065796","0.594556"
"G","1617445666.1544492","7","-20","2","45","48","32","0.85498","0.504456","-0.115173","0.033752","-0.015267","-0.015267","0.007634","2.32439","8.902783","4.872485","0.059814","0.525171","0.320605","-0.084937","-0.025122","0.611304"
"G","1617445666.1442816","7","-15","3","46","47","29","0.854858","0.5047","-0.11499","0.033691","-0.022901","0","0.007634","2.388989","8.951831","4.849756","0.128003","0.57063","0.302661","-0.023926","0.007178","0.656763"
"G","1617445666.1344156","7","-13","5","44","43","27","0.854675","0.505005","-0.115173","0.03363","-0.022901","0.015267","-0.007634","2.442822","8.978149","4.829419","0.179443","0.593359","0.288306","0.023926","0.027515","0.681885"
"G","1617445666.1244838","7","-16","2","42","44","29","0.854553","0.505188","-0.115479","0.033508","-0.007634","0.022901","-0.007634","2.489478","8.962598","4.804297","0.22251","0.576611","0.267969","0.071777","0.033496","0.668726"
"G","1617445666.114423","7","-16","4","46","50","29","0.854492","0.505249","-0.115784","0.033447","0","0.007634","-0.015267","2.507422","8.921924","4.785156","0.236865","0.534741","0.251221","0.094507","0.026318","0.628052"
"G","1617445666.1044126","7","-16","3","42","47","29","0.854492","0.505188","-0.115906","0.033386","0","-0.015267","-0.007634","2.45957","8.907568","4.768408","0.186621","0.521582","0.234473","0.05144","0.038281","0.596948"
"G","1617445666.094423","7","-15","5","42","44","27","0.854553","0.505127","-0.115662","0.033447","-0.007634","-0.030534","0","2.37583","8.953028","4.766016","0.10647","0.568237","0.229687","-0.0323","0.069385","0.616089"
"G","1617445666.085161","7","-16","3","45","44","29","0.854614","0.505188","-0.115112","0.03363","-0.015267","-0.045802","0.007634","2.293286","9.028394","4.773193","0.031104","0.641211","0.234473","-0.118433","0.105273","0.66394"
"G","1617445666.0744872","7","-17","1","42","44","26","0.854614","0.505249","-0.114502","0.033813","-0.007634","-0.045802","0.015267","2.247827","9.063086","4.797119","-0.004785","0.674707","0.258398","-0.162695","0.102881","0.695044"
"G","1617445666.06447","7","-16","1","46","55","30","0.854736","0.505249","-0.113892","0.033997","0","-0.038168","0.015267","2.247827","9.023608","4.801904","0.002393","0.634033","0.259595","-0.14834","0.081348","0.662744"
"G","1617445666.054446","7","-15","4","44","46","35","0.854858","0.505127","-0.113342","0.033997","0","-0.030534","0.007634","2.281323","8.966187","4.834204","0.045459","0.577808","0.287109","-0.100488","0.028711","0.637622"
"G","1617445666.0451655","7","-17","1","48","46","29","0.85498","0.505005","-0.112976","0.034058","0","-0.022901","0","2.290894","8.914746","4.883252","0.059814","0.526367","0.331372","-0.084937","-0.034692","0.617285"
"G","1617445666.0350935","7","-15","3","44","44","29","0.855042","0.504883","-0.112732","0.034119","0.007634","-0.015267","-0.007634","2.307642","8.869287","4.919141","0.080151","0.483301","0.364868","-0.062207","-0.086133","0.600537"
"G","1617445666.0252943","7","-13","4","45","46","27","0.855103","0.504822","-0.11261","0.034241","0.007634","-0.015267","-0.015267","2.31123","8.845362","4.938281","0.084937","0.459375","0.381616","-0.056226","-0.112451","0.588574"
"G","1617445666.015252","7","-16","4","44","46","30","0.855164","0.504761","-0.112488","0.034424","0","-0.022901","-0.007634","2.264575","8.863306","4.9323","0.038281","0.478516","0.374438","-0.104077","-0.094507","0.592163"
"G","1617445666.0050852","7","-17","7","44","44","31","0.855103","0.504883","-0.112305","0.034607","-0.015267","-0.022901","-0.007634","2.225098","8.945849","4.939477","0","0.559863","0.382812","-0.156714","-0.059814","0.656763"
"G","1617445665.9943025","7","-17","3","45","43","28","0.855042","0.505127","-0.111938","0.034912","-0.022901","-0.045802","0","2.116235","9.060694","4.898804","-0.105273","0.671118","0.344531","-0.271558","0.0323","0.710596"
"G","1617445665.9850783","7","-19","1","44","46","29","0.854919","0.505371","-0.111389","0.035278","-0.022901","-0.045802","0.007634","2.015747","9.14563","4.835401","-0.19978","0.753662","0.284717","-0.368457","0.128003","0.732129"
"G","1617445665.975149","7","-16","1","44","43","29","0.854858","0.505554","-0.111084","0.035461","-0.007634","-0.015267","0.015267","2.051636","9.158789","4.789941","-0.160303","0.764429","0.240454","-0.324194","0.169873","0.729736"
"G","1617445665.9653056","7","-19","4","45","43","28","0.854858","0.505493","-0.111145","0.035339","0.007634","0.022901","0.015267","2.193994","9.095386","4.775586","-0.017944","0.702222","0.226099","-0.173462","0.144751","0.702222"
"G","1617445665.9543016","7","-19","3","44","32","27","0.85498","0.505249","-0.111572","0.034851","0.022901","0.038168","0.015267","2.338745","8.966187","4.777978","0.123218","0.575415","0.224902","-0.013159","0.076563","0.624463"
"G","1617445665.9445603","7","-17","4","44","42","28","0.855225","0.504761","-0.112122","0.034241","0.030534","0.045802","0.007634","2.423682","8.835791","4.79353","0.204565","0.449805","0.233276","0.084937","0.004785","0.539526"
"G","1617445665.934312","7","-17","0","44","46","30","0.855408","0.504333","-0.112732","0.03363","0.022901","0.045802","0","2.501441","8.785547","4.859326","0.278735","0.403149","0.294287","0.154321","-0.07417","0.544312"
"G","1617445665.9251835","7","-19","4","45","43","28","0.85553","0.504028","-0.113159","0.033203","0.015267","0.007634","-0.015267","2.515796","8.795117","4.94187","0.289502","0.416309","0.373242","0.149536","-0.136377","0.594556"
"G","1617445665.9151056","7","-17","4","42","46","27","0.855652","0.503906","-0.113037","0.033325","0.007634","-0.045802","-0.022901","2.336353","8.817846","4.937085","0.111255","0.440234","0.364868","-0.025122","-0.107666","0.57063"
"G","1617445665.9053211","7","-18","4","44","40","28","0.855713","0.503967","-0.112366","0.033936","-0.022901","-0.076336","-0.007634","2.148535","8.919531","4.898804","-0.070581","0.540723","0.324194","-0.211743","-0.013159","0.596948"
"G","1617445665.89519","7","-16","4","43","46","29","0.855591","0.504272","-0.111511","0.034607","-0.030534","-0.053435","0","2.095898","9.072657","4.877271","-0.11604","0.691455","0.305054","-0.278735","0.077759","0.707007"
"G","1617445665.8844278","7","-16","1","42","43","29","0.855408","0.504639","-0.111023","0.035034","-0.022901","-0.022901","0","2.14375","9.128881","4.854541","-0.063403","0.744092","0.287109","-0.233276","0.11604","0.756055"
"G","1617445665.8744464","7","-19","3","44","44","30","0.855347","0.5047","-0.110962","0.035156","0","0.007634","0.007634","2.205957","9.053515","4.815063","-0.001196","0.668726","0.250024","-0.154321","0.107666","0.687866"
"G","1617445665.865111","7","-17","4","42","46","29","0.855469","0.504456","-0.111206","0.034912","0.022901","0.022901","0.015267","2.317212","8.902783","4.789941","0.10647","0.520386","0.220117","-0.019141","0.056226","0.57063"
"G","1617445665.855101","7","-16","5","42","47","28","0.855713","0.503967","-0.111572","0.034424","0.038168","0.030534","0.015267","2.381812","8.758032","4.76123","0.169873","0.38042","0.184229","0.070581","0.016748","0.448608"
"G","1617445665.845255","7","-17","5","44","51","26","0.856018","0.503479","-0.112","0.033813","0.022901","0.038168","0.007634","2.466748","8.70061","4.77439","0.253613","0.326587","0.189014","0.160303","-0.017944","0.424683"
"G","1617445665.8351238","7","-17","2","45","47","27","0.85614","0.503235","-0.112366","0.033325","0.007634","0.015267","-0.007634","2.518188","8.758032","4.843774","0.303857","0.386401","0.25481","0.189014","-0.047852","0.517993"
"G","1617445665.8252065","7","-15","5","43","45","27","0.85614","0.503235","-0.112366","0.033203","-0.007634","-0.038168","-0.022901","2.377026","8.846558","4.872485","0.163892","0.474927","0.283521","0.033496","-0.021533","0.575415"
"G","1617445665.8154297","7","-17","4","42","46","27","0.85614","0.503296","-0.111755","0.03363","-0.015267","-0.068702","-0.007634","2.136572","8.918335","4.819849","-0.069385","0.545508","0.229687","-0.196191","0.071777","0.557471"
"G","1617445665.805189","7","-16","4","45","46","31","0.85614","0.503418","-0.110901","0.034241","-0.015267","-0.061069","0.007634","2.002588","8.99729","4.727735","-0.196191","0.623267","0.136377","-0.317017","0.197388","0.551489"
"G","1617445665.795232","7","-16","3","41","47","27","0.85614","0.50354","-0.110413","0.034546","-0.015267","0","0.022901","2.058814","9.017627","4.665527","-0.133984","0.642407","0.07417","-0.251221","0.257202","0.552686"
"G","1617445665.7851698","7","-16","4","45","46","28","0.85614","0.50354","-0.110657","0.03418","-0.015267","0.061069","0.022901","2.272949","8.992505","4.682275","0.077759","0.616089","0.092114","-0.043066","0.217725","0.586182"
"G","1617445665.7750587","7","-17","1","41","46","27","0.856018","0.503601","-0.111572","0.033386","-0.007634","0.083969","0","2.467944","8.949438","4.752856","0.265576","0.573022","0.16748","0.133984","0.119629","0.626855"
"G","1617445660.9514167","7","-19","7","41","47","27","0.835022","0.542847","-0.077393","0.044312","0","0.007634","-0.007634","1.890137","9.444702","4.06499","0.151929","0.626855","0.159106","0.037085","0.107666","0.653174"
"G","1617445660.9413228","7","-20","4","45","89","27","0.835083","0.542786","-0.077515","0.04425","0","0.007634","-0.007634","1.908081","9.430346","4.091309","0.16748","0.6125","0.183032","0.052637","0.080151","0.653174"
"G","1617445660.9313805","7","-21","3","77","46","27","0.835083","0.542725","-0.077698","0.044189","0","0.007634","-0.007634","1.924829","9.426758","4.136767","0.183032","0.610107","0.228491","0.0646","0.037085","0.672314"
"G","1617445660.921523","7","-19","4","44","47","28","0.835144","0.542664","-0.077759","0.044128","-0.007634","-0.007634","-0.007634","1.891333","9.435132","4.177442","0.14834","0.618481","0.267969","0.025122","0.004785","0.689062"
"G","1617445660.9116497","7","-21","3","44","50","31","0.835144","0.542664","-0.077576","0.044189","-0.007634","-0.022901","0","1.817163","9.454272","4.185815","0.076563","0.637622","0.276343","-0.047852","0.005981","0.69624"
"G","1617445660.9014506","7","-19","5","42","46","27","0.835144","0.542725","-0.077271","0.044312","-0.007634","-0.030534","0","1.762134","9.466235","4.173852","0.025122","0.648389","0.26438","-0.098096","0.021533","0.692651"
"G","1617445660.8914137","7","-20","5","44","44","26","0.835144","0.542725","-0.076904","0.044495","-0.007634","-0.022901","0","1.75376","9.468628","4.158301","0.021533","0.650781","0.247632","-0.100488","0.038281","0.687866"
"G","1617445660.8814526","7","-20","2","43","46","26","0.835144","0.542725","-0.076782","0.044678","-0.007634","-0.015267","-0.007634","1.774097","9.475805","4.136767","0.04187","0.659155","0.226099","-0.080151","0.061011","0.690259"
"G","1617445660.8715646","7","-20","4","43","47","28","0.835144","0.542725","-0.076782","0.0448","-0.007634","0","-0.007634","1.81477","9.486572","4.12959","0.081348","0.669922","0.218921","-0.043066","0.071777","0.703418"
"G","1617445660.8614452","7","-17","5","42","49","26","0.835083","0.542786","-0.076965","0.044861","-0.007634","0.007634","-0.015267","1.855444","9.484179","4.135571","0.118433","0.667529","0.226099","-0.007178","0.063403","0.710596"
"G","1617445660.8516483","7","-20","3","43","46","26","0.835022","0.542786","-0.077271","0.044922","-0.007634","0.015267","-0.015267","1.890137","9.466235","4.146338","0.147144","0.650781","0.238062","0.021533","0.045459","0.705811"
"G","1617445660.8415442","7","-22","5","42","46","27","0.835022","0.542786","-0.077637","0.044922","0","0.015267","-0.015267","1.91167","9.429151","4.145142","0.162695","0.613696","0.238062","0.04187","0.029907","0.675903"
"G","1617445660.8314438","7","-17","5","44","50","27","0.835022","0.542725","-0.078003","0.044922","0","0.015267","-0.015267","1.929614","9.401636","4.143945","0.174658","0.587378","0.236865","0.058618","0.020337","0.653174"
"G","1617445660.8215046","7","-20","1","43","51","26","0.835022","0.542664","-0.078247","0.044861","0","0.007634","-0.007634","1.927222","9.386084","4.13916","0.168677","0.573022","0.23208","0.055029","0.019141","0.637622"
"G","1617445660.8116355","7","-19","5","44","46","27","0.835083","0.542603","-0.078308","0.044861","0","0","-0.007634","1.899707","9.378906","4.112842","0.139966","0.565845","0.203369","0.029907","0.043066","0.614893"
"G","1617445660.8015332","7","-20","4","42","46","26","0.835083","0.542542","-0.078369","0.044861","-0.007634","0","0","1.898511","9.392065","4.09729","0.137573","0.5802","0.187817","0.026318","0.062207","0.620874"
"G","1617445660.7916784","7","-21","4","42","48","28","0.835083","0.542603","-0.07843","0.044861","-0.007634","0","0","1.916455","9.420776","4.080542","0.155518","0.607715","0.171069","0.040674","0.088525","0.642407"
"G","1617445660.7814314","7","-19","1","44","48","28","0.835083","0.542603","-0.078491","0.044739","-0.007634","0.007634","0","1.929614","9.439917","4.070971","0.168677","0.626855","0.162695","0.05144","0.104077","0.657959"
"G","1617445660.771631","7","-16","4","44","47","27","0.835083","0.542603","-0.078613","0.044617","0","0.007634","0","1.949951","9.447095","4.067383","0.187817","0.634033","0.159106","0.069385","0.110059","0.666333"
"G","1617445660.761469","7","-20","4","40","48","27","0.835083","0.542542","-0.078735","0.044434","0","0.007634","0","1.949951","9.444702","4.05542","0.187817","0.632837","0.147144","0.070581","0.120825","0.660352"
"G","1617445660.7516215","7","-20","1","42","48","29","0.835144","0.542419","-0.078796","0.04425","0","0.007634","0.007634","1.955933","9.427954","4.04585","0.194995","0.617285","0.135181","0.081348","0.12561","0.643604"
"G","1617445660.741538","7","-23","4","44","48","27","0.835266","0.542297","-0.078918","0.044006","0.007634","0.015267","0","1.975073","9.394458","4.044653","0.215332","0.583789","0.131592","0.107666","0.114844","0.614893"
"G","1617445660.7315216","7","-17","3","45","46","26","0.835327","0.542175","-0.079041","0.043762","0","0.007634","0","1.979858","9.364551","4.033887","0.220117","0.555078","0.118433","0.117236","0.114844","0.584985"
"G","1617445660.7217288","7","-19","5","42","46","29","0.835388","0.542114","-0.079224","0.04364","-0.007634","0.007634","-0.007634","1.987036","9.357373","4.041064","0.226099","0.5479","0.124414","0.124414","0.10647","0.582593"
"G","1617445660.71183","7","-22","3","42","44","23","0.835388","0.542114","-0.079285","0.043579","-0.007634","0","-0.015267","1.98584","9.358569","4.051831","0.223706","0.549097","0.135181","0.120825","0.096899","0.587378"
"G","1617445660.7016811","7","-19","4","43","48","28","0.835327","0.542114","-0.079346","0.04364","-0.007634","-0.007634","-0.015267","1.971484","9.364551","4.057813","0.208154","0.556274","0.142358","0.104077","0.093311","0.593359"
"G","1617445660.6917562","7","-20","4","43","48","26","0.835327","0.542175","-0.079407","0.043823","-0.007634","-0.007634","-0.015267","1.965503","9.368139","4.063794","0.198584","0.558667","0.14834","0.093311","0.089722","0.596948"
"G","1617445660.6815228","7","-19","1","42","44","26","0.835266","0.542175","-0.079468","0.043945","0","-0.007634","-0.015267","1.970288","9.351392","4.053027","0.202173","0.543115","0.13877","0.099292","0.092114","0.579004"
"G","1617445660.6714656","7","-18","4","46","47","27","0.835327","0.542175","-0.079407","0.044006","0","-0.007634","-0.007634","1.945166","9.334643","4.042261","0.177051","0.526367","0.126807","0.078955","0.095703","0.555078"
"G","1617445660.6617043","7","-19","3","41","46","26","0.835388","0.542053","-0.079285","0.044128","0","-0.015267","0","1.917651","9.350195","4.037476","0.149536","0.543115","0.119629","0.049048","0.110059","0.562256"
"G","1617445660.6517313","7","-20","3","37","46","26","0.835388","0.542053","-0.079163","0.044128","-0.007634","-0.015267","0","1.897314","9.360962","4.04585","0.131592","0.553882","0.128003","0.029907","0.107666","0.571826"
"G","1617445660.6416008","7","-19","3","44","44","27","0.835449","0.541992","-0.078979","0.044189","-0.007634","-0.015267","0","1.873389","9.375318","4.070971","0.110059","0.568237","0.150732","0.004785","0.092114","0.58977"
"G","1617445660.6315875","7","-18","32","44","47","27","0.835449","0.542053","-0.078796","0.04425","-0.007634","-0.015267","0","1.850659","9.393262","4.093701","0.089722","0.584985","0.173462","-0.019141","0.078955","0.610107"
"G","1617445660.6216166","7","-20","5","43","46","26","0.835449","0.542053","-0.078674","0.044312","-0.007634","-0.007634","0","1.844678","9.405225","4.118823","0.084937","0.596948","0.198584","-0.027515","0.061011","0.630444"
"G","1617445660.6116228","7","-21","5","44","47","26","0.835388","0.542114","-0.078613","0.044373","-0.007634","-0.007634","0","1.865015","9.404028","4.146338","0.105273","0.595752","0.228491","-0.00957","0.0323","0.6448"
"G","1617445660.6018326","7","-20","4","44","48","26","0.835388","0.542175","-0.078552","0.044312","-0.007634","-0.007634","0","1.885352","9.404028","4.176245","0.128003","0.594556","0.258398","0.00957","0.004785","0.660352"
"G","1617445660.5915685","7","-17","4","45","50","27","0.835388","0.542175","-0.07843","0.044312","-0.007634","-0.007634","0","1.872192","9.412402","4.196582","0.11604","0.60293","0.278735","-0.004785","-0.00957","0.673511"
"G","1617445660.5817542","7","-19","3","42","47","26","0.835327","0.542236","-0.078369","0.044312","-0.007634","-0.007634","-0.007634","1.868603","9.429151","4.207349","0.113647","0.618481","0.290698","-0.00957","-0.013159","0.691455"
"G","1617445660.5717976","7","-19","1","44","45","27","0.835327","0.542297","-0.078308","0.044373","-0.007634","-0.007634","-0.007634","1.859033","9.459058","4.2229","0.105273","0.648389","0.307446","-0.023926","-0.016748","0.723755"
"G","1617445660.5615811","7","-17","5","46","48","28","0.835266","0.542419","-0.078308","0.044434","-0.007634","0","-0.007634","1.863818","9.503321","4.246826","0.108862","0.690259","0.332568","-0.029907","-0.022729","0.772803"
"G","1617445660.5516822","7","-16","4","42","46","26","0.835205","0.54248","-0.078369","0.044434","-0.007634","0","-0.007634","1.862622","9.520068","4.252808","0.10647","0.707007","0.340942","-0.035889","-0.023926","0.790747"
"G","1617445660.541636","7","-20","5","44","45","28","0.835144","0.54248","-0.07843","0.044434","-0.007634","0","-0.007634","1.851856","9.532031","4.240845","0.094507","0.720166","0.330176","-0.049048","-0.008374","0.795532"
"G","1617445660.531602","7","-19","4","45","47","26","0.835144","0.542542","-0.078552","0.044434","-0.007634","0.007634","0","1.860229","9.553564","4.243237","0.101685","0.740503","0.333765","-0.045459","-0.003589","0.817065"
"G","1617445660.5217886","7","-21","3","41","49","27","0.835083","0.542603","-0.078674","0.044312","-0.007634","0.007634","0","1.881763","9.559546","4.244433","0.122021","0.746484","0.336157","-0.026318","-0.003589","0.826636"
"G","1617445660.5116515","7","-19","0","46","48","26","0.835022","0.542664","-0.078857","0.044189","-0.007634","0","-0.007634","1.886548","9.543994","4.196582","0.12561","0.729736","0.290698","-0.016748","0.029907","0.794336"
"G","1617445660.5017886","7","-21","4","44","46","26","0.834961","0.542725","-0.078979","0.044189","-0.007634","0","0","1.874585","9.532031","4.154712","0.111255","0.717773","0.250024","-0.025122","0.062207","0.764429"
"G","1617445660.491625","7","-21","5","43","47","26","0.834961","0.542725","-0.079102","0.044128","-0.007634","0","-0.007634","1.905689","9.486572","4.115234","0.141162","0.672314","0.211743","0.013159","0.077759","0.714185"
"G","1617445660.4816048","7","-21","3","43","46","26","0.834961","0.542725","-0.079224","0.044128","-0.007634","0.007634","-0.007634","1.934399","9.437525","4.072168","0.16748","0.623267","0.168677","0.050244","0.096899","0.656763"
"G","1617445660.4790108","7","-21","3","42","46","26","0.834961","0.542725","-0.079346","0.044128","-0.007634","0","-0.007634","1.937988","9.389673","4.037476","0.169873","0.575415","0.133984","0.063403","0.108862","0.600537"
"G","1617445660.4778411","7","-20","0","44","46","25","0.834961","0.542664","-0.079407","0.044128","-0.007634","0","-0.015267","1.940381","9.340625","4.02312","0.171069","0.527563","0.118433","0.072974","0.104077","0.551489"
"G","1617445660.451625","7","-21","4","42","47","29","0.834961","0.542664","-0.079468","0.04425","-0.007634","-0.007634","-0.015267","1.932007","9.295166","4.030298","0.160303","0.482104","0.12561","0.069385","0.078955","0.512012"
"G","1617445660.441724","7","-20","5","46","47","26","0.834961","0.542603","-0.079529","0.044373","-0.007634","0","-0.015267","1.926025","9.274829","4.035083","0.151929","0.46416","0.130396","0.063403","0.066992","0.49646"
"G","1617445660.4315815","7","-19","1","44","47","28","0.834961","0.542664","-0.07959","0.044495","-0.007634","0","-0.015267","1.928418","9.272436","4.037476","0.151929","0.460571","0.132788","0.063403","0.063403","0.494067"
"G","1617445660.421975","7","-21","3","42","45","26","0.8349","0.542664","-0.079712","0.044556","-0.007634","0.007634","-0.015267","1.942773","9.276026","4.033887","0.163892","0.465356","0.130396","0.07417","0.068188","0.498853"
"G","1617445660.4118185","7","-16","4","44","46","29","0.8349","0.542664","-0.079895","0.044556","0","0","-0.007634","1.941577","9.267652","4.026709","0.159106","0.456982","0.124414","0.071777","0.069385","0.489282"
"G","1617445660.4017334","7","-20","5","42","45","27","0.8349","0.542603","-0.079956","0.044495","0","0","0","1.933203","9.255689","4.020728","0.150732","0.446216","0.117236","0.065796","0.071777","0.474927"
"G","1617445660.3916564","7","-19","2","41","47","26","0.834961","0.542542","-0.080017","0.044434","0.007634","0","0","1.940381","9.243726","4.018335","0.15791","0.434253","0.113647","0.075366","0.070581","0.46416"
"G","1617445660.3817103","7","-19","4","44","50","26","0.835083","0.542419","-0.079956","0.04425","0","0","0.007634","1.940381","9.240137","3.997998","0.160303","0.430664","0.089722","0.080151","0.090918","0.451001"
"G","1617445660.3719106","7","-21","4","45","46","26","0.835144","0.542358","-0.079895","0.044006","0","0","0.007634","1.94397","9.247314","3.98125","0.16748","0.437842","0.071777","0.087329","0.110059","0.452197"
"G","1617445660.3617413","7","-20","3","47","44","26","0.835144","0.542358","-0.079773","0.043823","-0.007634","0","0.007634","1.95354","9.272436","3.974072","0.181836","0.462964","0.0646","0.099292","0.126807","0.47373"
"G","1617445660.3518407","7","-16","1","43","48","27","0.835144","0.542358","-0.079651","0.04364","-0.007634","0","0.007634","1.966699","9.308325","3.975269","0.198584","0.497656","0.065796","0.110059","0.139966","0.508423"
"G","1617445660.342408","7","-17","3","42","50","26","0.835144","0.54248","-0.07959","0.043457","-0.015267","0","0","1.988232","9.337036","3.984839","0.22251","0.523975","0.076563","0.128003","0.139966","0.540723"
"G","1617445660.3324506","7","-17","4","44","50","26","0.835083","0.542542","-0.079651","0.043335","-0.015267","0.007634","0","2.000195","9.360962","3.996802","0.235669","0.5479","0.090918","0.136377","0.136377","0.57063"
"G","1617445660.322495","7","-24","0","43","47","27","0.835022","0.542664","-0.079651","0.043152","-0.015267","0.007634","0","2.015747","9.383692","4.015943","0.252417","0.569434","0.112451","0.147144","0.124414","0.601733"
"G","1617445660.3123956","7","-19","1","42","44","27","0.834961","0.542725","-0.079651","0.04303","-0.007634","-0.007634","0","1.994214","9.398046","4.026709","0.23208","0.582593","0.124414","0.124414","0.119629","0.614893"
"G","1617445660.302505","7","-19","5","42","47","26","0.834961","0.542786","-0.079407","0.042908","-0.007634","-0.015267","0.007634","1.94397","9.417188","4.031494","0.187817","0.600537","0.129199","0.077759","0.123218","0.624463"
"G","1617445660.2917385","7","-17","3","44","46","27","0.834961","0.542847","-0.079102","0.042847","-0.007634","-0.015267","0.015267","1.935596","9.433935","4.041064","0.184229","0.616089","0.139966","0.071777","0.119629","0.642407"
"G","1617445660.2818942","7","-19","9","42","48","26","0.834961","0.542908","-0.078735","0.042725","-0.007634","-0.015267","0.015267","1.929614","9.449488","4.048242","0.185425","0.630444","0.147144","0.070581","0.118433","0.657959"
"G","1617445660.2717712","7","-20","1","45","45","29","0.834961","0.542908","-0.078308","0.042542","-0.007634","-0.015267","0.015267","1.920044","9.469824","4.053027","0.185425","0.649585","0.150732","0.068188","0.123218","0.6771"
"G","1617445660.26179","7","-19","3","43","46","26","0.834961","0.54303","-0.078003","0.042419","-0.015267","-0.015267","0.007634","1.917651","9.497339","4.061401","0.189014","0.674707","0.160303","0.066992","0.124414","0.703418"
"G","1617445660.252649","7","-19","3","41","47","26","0.8349","0.543152","-0.077759","0.042358","-0.015267","-0.007634","0.007634","1.924829","9.539209","4.073364","0.200977","0.715381","0.174658","0.071777","0.128003","0.748877"
"G","1617445660.242625","7","-20","3","43","44","26","0.834778","0.543335","-0.077576","0.042297","-0.022901","-0.007634","0","1.935596","9.576294","4.082934","0.215332","0.750073","0.187817","0.078955","0.129199","0.787158"
"G","1617445660.2324462","7","-20","4","42","44","26","0.834717","0.543518","-0.077454","0.042236","-0.022901","-0.007634","0","1.942773","9.603808","4.092505","0.224902","0.775195","0.19978","0.08374","0.128003","0.815869"
"G","1617445660.222545","7","-19","7","41","44","27","0.834595","0.543701","-0.077393","0.042175","-0.015267","0","0","1.957129","9.613379","4.112842","0.24165","0.782373","0.224902","0.098096","0.107666","0.836206"
"G","1617445660.2124178","7","-19","0","43","47","26","0.834534","0.543762","-0.077332","0.042114","-0.007634","-0.007634","0","1.959522","9.618164","4.134375","0.245239","0.787158","0.247632","0.098096","0.088525","0.849365"
"G","1617445660.2024505","7","-19","6","46","46","26","0.834534","0.543823","-0.077148","0.042053","-0.007634","-0.015267","0","1.910474","9.61936","4.164282","0.19978","0.787158","0.277539","0.05144","0.062207","0.85415"
"G","1617445660.192464","7","-19","5","44","53","27","0.834595","0.543823","-0.076843","0.042053","-0.007634","-0.022901","0.007634","1.855444","9.645679","4.177442","0.149536","0.81228","0.289502","-0.001196","0.062207","0.872095"
"G","1617445660.1824238","7","-20","4","46","48","27","0.834595","0.543823","-0.076477","0.042114","-0.007634","-0.022901","0.007634","1.812378","9.658838","4.192993","0.112451","0.825439","0.303857","-0.040674","0.053833","0.882861"
"G","1617445660.1726134","7","-19","5","42","47","26","0.834656","0.543823","-0.076111","0.042236","0","-0.022901","0","1.768115","9.650464","4.195386","0.071777","0.815869","0.305054","-0.078955","0.050244","0.868506"
"G","1617445660.1624656","7","-17","5","44","50","29","0.834717","0.543762","-0.075806","0.042297","0","-0.022901","0","1.734619","9.628931","4.184619","0.043066","0.795532","0.291895","-0.101685","0.053833","0.839795"
"G","1617445660.1527188","7","-22","4","42","47","26","0.834717","0.543701","-0.075562","0.042358","-0.007634","-0.015267","0","1.714282","9.601416","4.163086","0.026318","0.768018","0.269165","-0.112451","0.0646","0.80271"
"G","1617445660.1425338","7","-20","3","42","48","26","0.834717","0.543701","-0.075562","0.04248","-0.007634","0","-0.007634","1.735815","9.561938","4.14873","0.046655","0.72854","0.25481","-0.084937","0.061011","0.765625"
"G","1617445660.1324935","7","-19","3","45","45","27","0.834717","0.543701","-0.075684","0.04248","-0.007634","0.007634","-0.015267","1.776489","9.515284","4.142749","0.084937","0.683081","0.248828","-0.040674","0.047852","0.72854"
"G","1617445660.122404","7","-22","3","44","48","76","0.834656","0.543762","-0.075928","0.042542","-0.007634","0.007634","-0.015267","1.801611","9.482984","4.147534","0.105273","0.649585","0.256006","-0.015552","0.027515","0.704614"
"G","1617445660.11269","7","-23","3","42","45","27","0.834595","0.543762","-0.076172","0.042725","-0.015267","0","-0.022901","1.808789","9.450684","4.149927","0.10647","0.618481","0.259595","-0.010767","0.010767","0.678296"
"G","1617445660.102615","7","-20","3","42","47","28","0.834534","0.543884","-0.076355","0.042969","-0.015267","-0.007634","-0.022901","1.804004","9.427954","4.163086","0.096899","0.595752","0.275146","-0.017944","-0.010767","0.662744"
"G","1617445660.0924442","7","-19","4","49","46","26","0.834473","0.543945","-0.076416","0.043274","-0.007634","-0.015267","-0.022901","1.790845","9.421972","4.169067","0.078955","0.58977","0.282324","-0.035889","-0.020337","0.656763"
"G","1617445660.0825984","7","-17","4","45","47","29","0.834412","0.543945","-0.076355","0.043518","-0.007634","-0.022901","-0.015267","1.766919","9.417188","4.16189","0.053833","0.586182","0.276343","-0.059814","-0.015552","0.645996"
"G","1617445660.0726278","7","-20","4","45","47","27","0.834473","0.543945","-0.076172","0.043823","0","-0.022901","-0.007634","1.747778","9.425562","4.13916","0.034692","0.593359","0.252417","-0.077759","0.008374","0.640015"
"G","1617445660.062527","7","-19","5","45","45","26","0.834473","0.543884","-0.075989","0.044006","0","-0.015267","0","1.764526","9.420776","4.128394","0.05144","0.58977","0.240454","-0.059814","0.017944","0.635229"
"G","1617445660.0525537","7","-21","1","44","48","29","0.834534","0.543823","-0.075867","0.044067","0.007634","-0.007634","0","1.787256","9.400439","4.104468","0.076563","0.57063","0.214136","-0.029907","0.033496","0.611304"
"G","1617445660.042527","7","-19","4","42","48","26","0.834656","0.543701","-0.075867","0.044006","0","0","0","1.813574","9.390869","4.081738","0.102881","0.56106","0.187817","0","0.053833","0.596948"
"G","1617445660.0326035","7","-20","3","42","46","26","0.834656","0.54364","-0.075928","0.043945","0","0.007634","-0.007634","1.838696","9.398046","4.070971","0.128003","0.569434","0.177051","0.022729","0.066992","0.605322"
"G","1617445660.0225382","7","-19","4","43","50","27","0.834656","0.54364","-0.07605","0.043945","-0.007634","0.007634","-0.007634","1.859033","9.418384","4.057813","0.145947","0.58977","0.163892","0.038281","0.087329","0.620874"
"G","1617445660.0126512","7","-22","2","44","46","27","0.834595","0.543701","-0.076233","0.043945","-0.015267","0","-0.015267","1.862622","9.437525","4.050635","0.147144","0.608911","0.159106","0.035889","0.099292","0.636426"
"G","1617445660.0025198","7","-17","5","46","50","26","0.834534","0.543762","-0.076416","0.044067","-0.007634","0.007634","-0.015267","1.866211","9.436328","4.043457","0.145947","0.607715","0.153125","0.035889","0.104077","0.632837"
"G","1617445659.9924374","7","-21","4","43","44","26","0.834534","0.543762","-0.076599","0.044128","-0.007634","0.007634","-0.015267","1.870996","9.427954","4.049438","0.147144","0.599341","0.160303","0.037085","0.094507","0.629248"
"G","1617445659.9826174","7","-19","5","44","44","26","0.834534","0.543762","-0.076782","0.044189","0","0","-0.015267","1.862622","9.420776","4.059009","0.135181","0.592163","0.169873","0.026318","0.082544","0.624463"
"G","1617445659.9725325","7","-19","4","44","43","26","0.834534","0.543701","-0.076782","0.04425","-0.007634","-0.007634","-0.007634","1.830322","9.441113","4.061401","0.101685","0.613696","0.171069","-0.00957","0.090918","0.637622"
"G","1617445659.9627385","7","-21","4","42","46","26","0.834534","0.543701","-0.07666","0.044312","0","-0.015267","0","1.799219","9.471021","4.06499","0.072974","0.643604","0.174658","-0.043066","0.099292","0.661548"
"G","1617445659.9525712","7","-23","1","42","44","26","0.834595","0.54364","-0.076477","0.044312","0","-0.015267","0.007634","1.775293","9.475805","4.063794","0.05144","0.648389","0.171069","-0.0646","0.105273","0.660352"
"G","1617445659.942721","7","-19","1","43","47","26","0.834717","0.543518","-0.076355","0.04425","0.007634","-0.007634","0.007634","1.76333","9.450684","4.063794","0.04187","0.624463","0.16748","-0.069385","0.099292","0.635229"
"G","1617445659.932698","7","-21","1","44","47","26","0.834778","0.543396","-0.076294","0.044189","0.007634","-0.007634","0.007634","1.771704","9.408813","4.062598","0.052637","0.583789","0.163892","-0.052637","0.086133","0.599341"
"G","1617445659.922608","7","-20","0","42","47","27","0.8349","0.543213","-0.076172","0.044128","0.007634","-0.007634","0","1.78606","9.371729","4.066186","0.069385","0.5479","0.163892","-0.029907","0.071777","0.57063"
"G","1617445659.9126232","7","-20","1","37","46","27","0.835022","0.543091","-0.076111","0.044067","0","-0.007634","0","1.796826","9.348999","4.073364","0.081348","0.525171","0.16748","-0.014355","0.058618","0.552686"
"G","1617445659.902605","7","-22","3","65","55","26","0.835022","0.54303","-0.076111","0.044006","-0.007634","0","-0.007634","1.812378","9.358569","4.08772","0.098096","0.535937","0.181836","-0.001196","0.050244","0.571826"
"G","1617445659.8926778","7","-20","4","44","46","28","0.835022","0.543091","-0.076172","0.044067","-0.015267","0","-0.007634","1.84707","9.382495","4.100879","0.130396","0.558667","0.194995","0.025122","0.046655","0.60293"
"G","1617445659.8825498","7","-19","4","44","50","28","0.8349","0.543213","-0.076294","0.044128","-0.015267","0","-0.015267","1.859033","9.415991","4.112842","0.139966","0.592163","0.210547","0.027515","0.045459","0.641211"
"G","1617445659.8727517","7","-19","3","45","47","37","0.834778","0.543335","-0.076416","0.044189","-0.015267","0","-0.007634","1.854248","9.463842","4.098486","0.132788","0.640015","0.19978","0.014355","0.075366","0.678296"
"G","1617445659.8625188","7","-21","2","44","46","27","0.834717","0.543518","-0.076477","0.04425","-0.007634","0","-0.007634","1.870996","9.503321","4.067383","0.14834","0.6771","0.172266","0.025122","0.114844","0.703418"
"G","1617445659.8528004","7","-24","4","40","50","26","0.834656","0.543518","-0.076599","0.044189","-0.007634","0.007634","0","1.886548","9.514087","4.049438","0.162695","0.687866","0.155518","0.039478","0.133984","0.709399"
"G","1617445659.8425283","7","-19","0","41","46","26","0.834656","0.543518","-0.07666","0.044128","0","0","0","1.884155","9.516479","4.039868","0.159106","0.690259","0.145947","0.035889","0.143555","0.707007"
"G","1617445659.8326447","7","-19","1","44","46","27","0.834717","0.543457","-0.07666","0.044006","0","0","0.007634","1.87937","9.515284","4.031494","0.155518","0.689062","0.135181","0.033496","0.153125","0.701025"
"G","1617445659.822665","7","-20","5","45","12","26","0.834778","0.543396","-0.076599","0.043823","0.007634","0","0.007634","1.884155","9.485376","4.039868","0.163892","0.659155","0.142358","0.046655","0.135181","0.678296"
"G","1617445659.8126178","7","-17","4","42","47","27","0.8349","0.543213","-0.076599","0.04364","0.007634","0","0.007634","1.892529","9.438721","4.059009","0.173462","0.614893","0.15791","0.061011","0.102881","0.645996"
"G","1617445659.8027654","7","-18","1","44","47","28","0.835083","0.542969","-0.076599","0.043457","0.007634","0","0.007634","1.903296","9.412402","4.098486","0.186621","0.58977","0.191406","0.075366","0.062207","0.638818"
"G","1617445659.7926683","7","-20","3","43","44","28","0.835205","0.542847","-0.076538","0.043274","0","-0.007634","0","1.88894","9.410009","4.130786","0.174658","0.587378","0.221313","0.062207","0.034692","0.647192"
"G","1617445659.7826526","7","-17","2","43","47","26","0.835266","0.542786","-0.076416","0.043152","0","-0.015267","0","1.868603","9.424365","4.154712","0.15791","0.60293","0.242847","0.04187","0.021533","0.666333"
"G","1617445659.772585","7","-20","1","43","46","28","0.835266","0.542786","-0.076172","0.043152","-0.007634","-0.015267","0","1.839893","9.443506","4.155908","0.132788","0.620874","0.244043","0.014355","0.027515","0.678296"
"G","1617445659.7627733","7","-21","5","44","51","27","0.835205","0.542908","-0.075989","0.043274","-0.015267","-0.015267","-0.007634","1.817163","9.471021","4.146338","0.112451","0.647192","0.236865","-0.008374","0.045459","0.69624"
"G","1617445659.7526689","7","-21","2","43","46","28","0.835083","0.54303","-0.075867","0.043396","-0.015267","-0.007634","-0.007634","1.819556","9.491358","4.141553","0.114844","0.667529","0.234473","-0.008374","0.055029","0.714185"
"G","1617445659.7427452","7","-19","5","43","47","26","0.835022","0.543152","-0.075928","0.043518","-0.007634","-0.007634","-0.015267","1.830322","9.485376","4.127197","0.123218","0.660352","0.22251","0","0.063403","0.704614"
"G","1617445659.7326672","7","-21","-20","42","47","26","0.834961","0.543213","-0.075928","0.043701","-0.007634","-0.007634","-0.007634","1.8052","9.472217","4.091309","0.096899","0.647192","0.187817","-0.019141","0.089722","0.673511"
"G","1617445659.7226348","7","-19","1","41","46","26","0.834961","0.543213","-0.075928","0.043823","0","0","-0.007634","1.802808","9.457861","4.049438","0.093311","0.632837","0.145947","-0.017944","0.122021","0.643604"
"G","1617445659.7125409","7","-19","2","41","44","27","0.835022","0.543091","-0.07605","0.043823","0.007634","0.007634","-0.007634","1.8375","9.427954","4.011157","0.12561","0.604126","0.105273","0.020337","0.147144","0.607715"
"G","1617445659.7026148","7","-20","1","42","47","27","0.835083","0.542969","-0.076294","0.043762","0.007634","0.015267","-0.007634","1.868603","9.396851","3.984839","0.153125","0.574219","0.077759","0.053833","0.160303","0.574219"
"G","1617445659.6928115","7","-21","1","44","48","26","0.835144","0.542847","-0.076721","0.04364","0","0.022901","-0.015267","1.903296","9.386084","3.970483","0.183032","0.565845","0.062207","0.086133","0.171069","0.565845"
"G","1617445659.6827028","7","-19","7","44","46","27","0.835205","0.542725","-0.077087","0.043579","-0.007634","0.007634","-0.015267","1.909277","9.405225","3.965698","0.183032","0.586182","0.055029","0.08374","0.185425","0.581396"
"G","1617445659.6727262","7","-19","4","41","44","27","0.835205","0.542725","-0.077271","0.043579","-0.007634","0","-0.007634","1.881763","9.436328","3.965698","0.153125","0.617285","0.055029","0.049048","0.198584","0.604126"
"G","1617445659.662635","7","-22","3","44","44","29","0.835144","0.542725","-0.077332","0.043579","-0.007634","0","-0.007634","1.898511","9.432739","3.963306","0.168677","0.614893","0.053833","0.0646","0.198584","0.604126"
"G","1617445659.6526394","7","-17","4","45","47","28","0.835205","0.542664","-0.077454","0.043579","0","0.007634","-0.007634","1.929614","9.402832","3.962109","0.197388","0.584985","0.05144","0.098096","0.187817","0.581396"
"G","1617445659.6426458","7","-19","4","44","47","26","0.835266","0.542542","-0.077637","0.043518","0","0.007634","-0.007634","1.937988","9.364551","3.992017","0.203369","0.5479","0.078955","0.10647","0.14834","0.559863"
"G","1617445659.6329784","7","-20","5","44","45","26","0.835388","0.542358","-0.077759","0.043457","0.007634","0.007634","-0.007634","1.927222","9.337036","4.043457","0.191406","0.522778","0.126807","0.095703","0.094507","0.553882"
"G","1617445659.6226048","7","-20","4","45","45","26","0.835449","0.542175","-0.07782","0.043396","0.007634","-0.007634","-0.007634","1.896118","9.305933","4.096094","0.160303","0.494067","0.177051","0.0646","0.037085","0.543115"
"G","1617445659.6132033","7","-18","3","46","48","27","0.835571","0.542053","-0.077637","0.043396","0","-0.015267","0","1.835107","9.314306","4.130786","0.101685","0.502441","0.208154","0.003589","0.013159","0.552686"
"G","1617445659.6026514","7","-19","3","43","46","27","0.835632","0.541992","-0.077393","0.043518","-0.007634","-0.022901","0","1.79563","9.341822","4.147534","0.0646","0.529956","0.22251","-0.037085","0.011963","0.576611"
"G","1617445659.5931478","7","-20","4","42","43","26","0.835571","0.542053","-0.077209","0.04364","-0.015267","-0.015267","-0.007634","1.783667","9.386084","4.154712","0.055029","0.574219","0.230884","-0.053833","0.022729","0.617285"
"G","1617445659.583532","7","-22","4","42","48","26","0.83551","0.542236","-0.077087","0.043823","-0.015267","-0.015267","-0.007634","1.760937","9.430346","4.149927","0.0323","0.616089","0.228491","-0.082544","0.04187","0.650781"
"G","1617445659.5734982","7","-20","5","41","48","26","0.835388","0.542419","-0.077026","0.043945","-0.022901","-0.007634","-0.007634","1.768115","9.456665","4.140357","0.039478","0.641211","0.223706","-0.078955","0.056226","0.672314"
"G","1617445659.563476","7","-21","4","45","25","61","0.835266","0.542603","-0.077148","0.044006","-0.015267","0.007634","-0.007634","1.808789","9.455469","4.122412","0.077759","0.638818","0.209351","-0.040674","0.068188","0.671118"
"G","1617445659.5528371","7","-21","4","42","47","26","0.835144","0.542725","-0.077393","0.044006","-0.015267","0.015267","-0.007634","1.861426","9.421972","4.110449","0.12561","0.604126","0.200977","0.011963","0.059814","0.6448"
"G","1617445659.5426872","7","-18","3","41","46","26","0.835083","0.542786","-0.077759","0.043884","-0.007634","0.015267","-0.007634","1.910474","9.378906","4.109253","0.169873","0.56106","0.202173","0.061011","0.040674","0.614893"
"G","1617445659.533431","7","-19","3","42","46","27","0.835083","0.542786","-0.078003","0.043823","-0.007634","0.015267","-0.007634","1.935596","9.337036","4.110449","0.192603","0.519189","0.203369","0.089722","0.022729","0.581396"
"G","1617445659.52342","7","-20","4","44","46","26","0.835022","0.542725","-0.078247","0.043701","-0.007634","0.007634","-0.007634","1.954736","9.308325","4.124804","0.208154","0.492871","0.218921","0.107666","-0.001196","0.567041"
"G","1617445659.5136063","7","-19","4","44","54","26","0.835022","0.542786","-0.078491","0.04364","-0.007634","0.007634","-0.007634","1.96311","9.305933","4.136767","0.214136","0.489282","0.23208","0.113647","-0.014355","0.57063"
"G","1617445659.5028446","7","-17","3","38","44","28","0.834961","0.542847","-0.078552","0.04364","-0.007634","-0.007634","-0.007634","1.947559","9.338232","4.143945","0.197388","0.521582","0.240454","0.090918","-0.00957","0.599341"
"G","1617445659.492762","7","-19","5","40","48","28","0.8349","0.542969","-0.078491","0.043701","-0.015267","-0.015267","0","1.916455","9.399243","4.130786","0.166284","0.5802","0.229687","0.05144","0.023926","0.642407"
"G","1617445659.48258","7","-20","4","44","46","26","0.834778","0.543152","-0.078308","0.043762","-0.015267","-0.015267","0","1.903296","9.469824","4.102075","0.155518","0.649585","0.204565","0.0323","0.07417","0.692651"
"G","1617445659.4725082","7","-21","4","42","50","26","0.834656","0.543335","-0.078125","0.043762","-0.015267","-0.007634","0.007634","1.910474","9.538013","4.085327","0.166284","0.715381","0.191406","0.034692","0.112451","0.748877"
"G","1617445659.463316","7","-19","4","40","48","26","0.834534","0.543518","-0.078003","0.043701","-0.015267","0","0.007634","1.928418","9.581079","4.063794","0.186621","0.757251","0.173462","0.049048","0.145947","0.783569"
"G","1617445659.023706","7","-18","1","42","44","26","0.832947","0.545776","-0.078735","0.0448","-0.015267","0","-0.007634","1.94397","9.460254","4.076953","0.178247","0.618481","0.236865","0.056226","0.027515","0.681885"
"G","1617445659.0136254","7","-20","5","45","45","27","0.832825","0.545959","-0.078674","0.044861","-0.015267","-0.015267","-0.007634","1.91167","9.494946","4.060205","0.147144","0.651978","0.224902","0.020337","0.052637","0.702222"
"G","1617445659.003787","7","-17","1","44","44","26","0.832764","0.546143","-0.078552","0.044922","-0.015267","-0.015267","0","1.905689","9.528442","4.043457","0.142358","0.683081","0.210547","0.011963","0.077759","0.723755"
"G","1617445658.9935343","7","-19","6","44","47","26","0.832703","0.546204","-0.07843","0.044983","-0.007634","-0.007634","0","1.899707","9.528442","4.020728","0.137573","0.681885","0.189014","0.00957","0.096899","0.712988"
"G","1617445658.983848","7","-18","4","42","50","27","0.832764","0.546143","-0.078308","0.044983","0","-0.007634","0","1.896118","9.517675","4.006372","0.136377","0.672314","0.172266","0.011963","0.108862","0.698633"
"G","1617445658.9739015","7","-20","3","44","47","26","0.832825","0.546082","-0.078247","0.044922","0","0","0.007634","1.906885","9.504517","4.009961","0.14834","0.659155","0.174658","0.025122","0.100488","0.689062"
"G","1617445658.9636917","7","-19","4","45","48","26","0.832947","0.545959","-0.078186","0.044739","0.007634","0","0.007634","1.923633","9.490161","4.01355","0.16748","0.6448","0.174658","0.046655","0.095703","0.679492"
"G","1617445658.9538114","7","-20","4","43","48","27","0.833008","0.545837","-0.078186","0.044556","0.007634","0","0.007634","1.933203","9.484179","4.012353","0.179443","0.640015","0.172266","0.059814","0.095703","0.6771"
"G","1617445658.9437237","7","-19","4","42","42","26","0.833069","0.545715","-0.078186","0.044434","0","0","0.007634","1.942773","9.487768","3.997998","0.19021","0.6448","0.155518","0.070581","0.112451","0.675903"
"G","1617445658.9337497","7","-21","3","42","46","26","0.83313","0.545654","-0.078125","0.044312","-0.007634","0","0","1.972681","9.496142","3.993213","0.22251","0.653174","0.14834","0.101685","0.122021","0.68667"
"G","1617445658.9237723","7","-19","1","44","48","26","0.83313","0.545654","-0.078125","0.044189","-0.007634","0","0","1.998999","9.506909","3.993213","0.250024","0.66394","0.14834","0.128003","0.126807","0.701025"
"G","1617445658.9138432","7","-19","4","44","46","8","0.83313","0.545654","-0.078064","0.044128","-0.015267","-0.007634","-0.007634","2.007373","9.52605","4.000391","0.259595","0.683081","0.155518","0.133984","0.128003","0.722559"
"G","1617445658.9039323","7","-21","3","42","47","28","0.833069","0.545776","-0.077942","0.044189","-0.015267","-0.015267","-0.007634","1.99541","9.543994","3.999194","0.250024","0.699829","0.156714","0.122021","0.132788","0.736914"
"G","1617445658.8937273","7","-19","4","42","48","26","0.833069","0.545837","-0.07782","0.044373","-0.015267","-0.007634","-0.015267","1.971484","9.557154","3.995605","0.226099","0.711792","0.153125","0.096899","0.141162","0.741699"
"G","1617445658.883797","7","-20","3","44","46","27","0.833008","0.545837","-0.077759","0.044556","-0.007634","-0.007634","-0.015267","1.95354","9.547583","3.994409","0.206958","0.703418","0.153125","0.078955","0.13877","0.730933"
"G","1617445658.8736918","7","-17","3","42","45","26","0.833069","0.545776","-0.077881","0.044678","0","0","-0.007634","1.947559","9.511694","4.005176","0.197388","0.667529","0.162695","0.07417","0.114844","0.701025"
"G","1617445658.863766","7","-20","3","42","47","26","0.833191","0.545593","-0.078003","0.044678","0.007634","0.007634","-0.007634","1.94397","9.460254","4.008765","0.191406","0.618481","0.162695","0.075366","0.095703","0.655566"
"G","1617445658.8537147","7","-21","1","44","49","27","0.833313","0.545349","-0.078064","0.044617","0.007634","0","-0.007634","1.941577","9.414795","4.02312","0.189014","0.575415","0.172266","0.078955","0.070581","0.619678"
"G","1617445658.843691","7","-17","3","44","48","26","0.833435","0.545166","-0.078125","0.044556","0.007634","-0.007634","0","1.939185","9.382495","4.050635","0.186621","0.544312","0.196191","0.080151","0.035889","0.600537"
"G","1617445658.8344867","7","-19","4","45","47","26","0.833557","0.545044","-0.078003","0.044495","-0.007634","-0.015267","0","1.885352","9.369336","4.04585","0.135181","0.532349","0.187817","0.0323","0.039478","0.577808"
"G","1617445658.8242428","7","-20","4","42","47","31","0.833557","0.545044","-0.077881","0.044617","-0.015267","-0.015267","-0.007634","1.854248","9.395655","4.042261","0.104077","0.558667","0.184229","-0.001196","0.053833","0.594556"
"G","1617445658.8138466","7","-19","4","44","50","27","0.833435","0.545166","-0.077759","0.044739","-0.015267","-0.007634","-0.007634","1.856641","9.427954","4.041064","0.107666","0.58977","0.185425","-0.002393","0.065796","0.623267"
"G","1617445658.803821","7","-17","4","42","47","27","0.833313","0.545349","-0.07782","0.044861","-0.022901","0","-0.015267","1.873389","9.462646","4.036279","0.122021","0.623267","0.184229","0.004785","0.078955","0.655566"
"G","1617445658.7939615","7","-19","4","45","47","26","0.833191","0.545532","-0.077942","0.044983","-0.015267","0.007634","-0.015267","1.876978","9.482984","4.039868","0.122021","0.642407","0.192603","0.001196","0.078955","0.675903"
"G","1617445658.783698","7","-19","3","42","46","26","0.83313","0.545654","-0.078125","0.045044","-0.007634","0.007634","-0.007634","1.885352","9.491358","4.038672","0.126807","0.649585","0.193799","0.004785","0.080151","0.684277"
"G","1617445658.7738214","7","-20","1","44","45","28","0.833069","0.545654","-0.078369","0.044983","-0.007634","0.007634","-0.007634","1.910474","9.498535","4.049438","0.149536","0.657959","0.205762","0.023926","0.072974","0.701025"
"G","1617445658.7639568","7","-19","3","42","48","28","0.833069","0.545593","-0.078491","0.044922","0","0","-0.007634","1.916455","9.504517","4.062598","0.154321","0.66394","0.218921","0.026318","0.063403","0.711792"
"G","1617445658.7537882","7","-20","4","41","46","26","0.83313","0.545593","-0.078491","0.044861","-0.007634","-0.015267","-0.007634","1.866211","9.529638","4.081738","0.104077","0.689062","0.236865","-0.027515","0.057422","0.732129"
"G","1617445658.7446463","7","-17","3","43","44","27","0.833069","0.545654","-0.078308","0.044983","-0.015267","-0.022901","-0.007634","1.829126","9.565527","4.103271","0.069385","0.724951","0.259595","-0.068188","0.05144","0.768018"
"G","1617445658.7346342","7","-19","1","42","46","26","0.833008","0.545776","-0.078125","0.045166","-0.015267","-0.015267","-0.007634","1.820752","9.583471","4.118823","0.061011","0.741699","0.277539","-0.081348","0.040674","0.788355"
"G","1617445658.7239263","7","-20","3","45","48","26","0.832947","0.545837","-0.078003","0.045349","-0.007634","-0.007634","-0.007634","1.839893","9.542798","4.104468","0.080151","0.699829","0.26438","-0.053833","0.035889","0.748877"
"G","1617445658.7137508","7","-20","4","46","44","27","0.832947","0.545837","-0.078064","0.045471","0","0","-0.007634","1.87937","9.462646","4.079346","0.118433","0.620874","0.239258","-0.002393","0.027515","0.674707"
"G","1617445658.704565","7","-17","5","43","48","27","0.833008","0.545715","-0.078186","0.045471","0.007634","0.007634","-0.007634","1.918848","9.389673","4.059009","0.155518","0.549097","0.216528","0.046655","0.019141","0.607715"
"G","1617445658.6944802","7","-19","1","45","50","26","0.833069","0.545593","-0.078369","0.04541","0","0.007634","-0.007634","1.94397","9.360962","4.051831","0.178247","0.521582","0.206958","0.07417","0.016748","0.582593"
"G","1617445658.684491","7","-19","5","46","43","7","0.83313","0.545532","-0.078491","0.045349","-0.007634","-0.007634","-0.015267","1.910474","9.380102","4.051831","0.143555","0.540723","0.205762","0.037085","0.026318","0.593359"
"G","1617445658.67455","7","-21","5","42","46","27","0.833069","0.545654","-0.078491","0.045532","-0.015267","-0.015267","-0.015267","1.855444","9.426758","4.048242","0.086133","0.586182","0.204565","-0.026318","0.045459","0.624463"
"G","1617445658.664657","7","-19","4","45","46","27","0.832947","0.545837","-0.07843","0.045776","-0.015267","-0.015267","-0.015267","1.849463","9.467432","4.033887","0.078955","0.625659","0.193799","-0.038281","0.071777","0.65437"
"G","1617445658.6540923","7","-19","6","42","47","29","0.832825","0.545959","-0.07843","0.045959","-0.007634","-0.007634","-0.015267","1.880566","9.459058","4.020728","0.107666","0.617285","0.183032","-0.008374","0.077759","0.647192"
"G","1617445658.643762","7","-19","3","44","43","26","0.832764","0.545959","-0.078552","0.046082","0","0","-0.007634","1.915259","9.413599","3.994409","0.139966","0.573022","0.15791","0.031104","0.082544","0.60293"
"G","1617445658.6344712","7","-36","1","42","48","27","0.832825","0.545898","-0.078735","0.046021","0.007634","0.007634","-0.007634","1.955933","9.363355","3.982446","0.178247","0.522778","0.144751","0.077759","0.07417","0.559863"
"G","1617445658.6244948","7","-20","4","43","47","26","0.832947","0.545715","-0.078857","0.045898","0.007634","0.007634","0","1.970288","9.32268","3.994409","0.191406","0.483301","0.153125","0.096899","0.050244","0.529956"
"G","1617445658.6136632","7","-19","4","44","47","28","0.833008","0.545593","-0.078979","0.045715","0.007634","0","0","1.951147","9.325073","4.007568","0.172266","0.48689","0.165088","0.076563","0.04187","0.534741"
"G","1617445658.604515","7","-20","4","38","47","26","0.833069","0.545471","-0.078979","0.045532","0","0","0","1.910474","9.341822","4.015943","0.133984","0.504834","0.171069","0.035889","0.043066","0.545508"
"G","1617445658.594581","7","-19","3","42","44","26","0.83313","0.54541","-0.078857","0.045471","0","-0.007634","0.007634","1.886548","9.352588","4.015943","0.112451","0.515601","0.168677","0.013159","0.050244","0.550293"
"G","1617445658.5845602","7","-20","1","47","44","26","0.833191","0.54541","-0.078674","0.04541","-0.007634","-0.015267","0.007634","1.878174","9.371729","4.006372","0.107666","0.534741","0.15791","0.005981","0.068188","0.563452"
"G","1617445658.5746195","7","-19","-3","44","46","26","0.833191","0.545471","-0.078491","0.04541","-0.015267","-0.015267","0","1.884155","9.410009","3.996802","0.11604","0.571826","0.149536","0.00957","0.090918","0.594556"
"G","1617445658.5648072","7","-18","5","44","52","27","0.833069","0.545593","-0.078308","0.045471","-0.022901","-0.007634","-0.007634","1.904492","9.45188","4.001587","0.13877","0.6125","0.156714","0.023926","0.099292","0.638818"
"G","1617445658.5546217","7","-18","5","41","46","27","0.832947","0.545837","-0.078308","0.045593","-0.022901","-0.007634","-0.015267","1.918848","9.49375","4.009961","0.151929","0.651978","0.169873","0.029907","0.102881","0.681885"
"G","1617445658.544809","7","-14","4","41","45","27","0.832764","0.546021","-0.078369","0.045776","-0.015267","0","-0.015267","1.929614","9.500928","4.01355","0.160303","0.657959","0.178247","0.035889","0.096899","0.691455"
"G","1617445658.5345943","7","-20","1","43","44","26","0.832703","0.546143","-0.078552","0.045898","-0.007634","0.007634","-0.007634","1.959522","9.468628","4.026709","0.185425","0.625659","0.193799","0.0646","0.069385","0.673511"
"G","1617445658.5244946","7","-21","1","44","121","27","0.832703","0.546082","-0.078735","0.045837","0.007634","0.007634","-0.007634","1.970288","9.425562","4.042261","0.193799","0.582593","0.209351","0.078955","0.038281","0.642407"
"G","1617445658.514604","7","-23","3","52","47","27","0.832825","0.545959","-0.078735","0.045654","0.007634","-0.007634","0.007634","1.936792","9.412402","4.047046","0.162695","0.57063","0.210547","0.050244","0.0323","0.625659"
"G","1617445658.5045512","7","-20","6","43","47","29","0.832886","0.545898","-0.078491","0.045471","0","-0.015267","0.015267","1.906885","9.441113","4.048242","0.13877","0.599341","0.210547","0.021533","0.044263","0.647192"
"G","1617445658.4945333","7","-20","4","43","46","27","0.832947","0.545898","-0.078186","0.045288","-0.007634","-0.015267","0.015267","1.899707","9.467432","4.031494","0.137573","0.624463","0.191406","0.019141","0.071777","0.662744"
"G","1617445658.4846995","7","-19","4","44","48","27","0.832947","0.545898","-0.077759","0.045166","-0.015267","-0.022901","0.015267","1.887744","9.505713","4.01355","0.133984","0.661548","0.173462","0.010767","0.104077","0.687866"
"G","1617445658.4747157","7","-22","5","42","46","26","0.832947","0.546021","-0.077393","0.045105","-0.015267","-0.015267","0.007634","1.886548","9.555957","4.002783","0.139966","0.709399","0.163892","0.010767","0.131592","0.72854"
"G","1617445658.4647117","7","-20","5","36","46","26","0.832825","0.546143","-0.077209","0.045166","-0.015267","-0.007634","0","1.900903","9.584668","4.005176","0.156714","0.73811","0.168677","0.022729","0.137573","0.759644"
"G","1617445658.4547467","7","-20","4","44","48","26","0.832764","0.546265","-0.077148","0.045166","-0.007634","0","-0.007634","1.92124","9.582275","4.007568","0.178247","0.733325","0.173462","0.044263","0.131592","0.76084"
"G","1617445658.4445975","7","-17","1","45","47","26","0.832764","0.546265","-0.077271","0.045166","0","0.007634","-0.007634","1.942773","9.548779","4.001587","0.197388","0.699829","0.16748","0.068188","0.123218","0.732129"
"G","1617445658.4346988","7","-20","4","43","47","26","0.832825","0.546143","-0.077515","0.045044","0","0.015267","-0.007634","1.975073","9.515284","4.017138","0.227295","0.668726","0.181836","0.101685","0.098096","0.714185"
"G","1617445658.4246528","7","-16","1","42","47","26","0.832947","0.545959","-0.077698","0.044861","0.007634","0","-0.007634","1.975073","9.491358","4.051831","0.226099","0.645996","0.212939","0.101685","0.059814","0.705811"
"G","1617445658.414595","7","-20","5","45","46","26","0.833008","0.545898","-0.077576","0.0448","0","-0.030534","0","1.885352","9.488965","4.075757","0.13877","0.643604","0.234473","0.014355","0.040674","0.697437"
"G","1617445658.4046314","7","-19","3","43","46","-7","0.833069","0.545898","-0.077087","0.044922","-0.007634","-0.038168","0.007634","1.801611","9.515284","4.090112","0.062207","0.668726","0.247632","-0.0646","0.039478","0.710596"
"G","1617445658.3946657","7","-21","4","43","47","28","0.833069","0.545959","-0.076538","0.045105","-0.007634","-0.038168","0.007634","1.782471","9.517675","4.092505","0.049048","0.669922","0.248828","-0.076563","0.038281","0.710596"
"G","1617445658.3847926","7","-20","4","42","46","26","0.833069","0.545959","-0.076172","0.045349","-0.007634","-0.022901","0","1.780078","9.480591","4.094897","0.050244","0.632837","0.251221","-0.069385","0.021533","0.678296"
"G","1617445658.3747444","7","-21","2","45","51","27","0.833069","0.545959","-0.075928","0.045532","0","-0.015267","-0.007634","1.802808","9.431543","4.090112","0.075366","0.583789","0.245239","-0.037085","0.007178","0.636426"
"G","1617445658.3646634","7","-20","1","42","42","26","0.83313","0.545898","-0.075928","0.045654","0","0","-0.015267","1.838696","9.386084","4.088916","0.110059","0.539526","0.242847","0.003589","-0.007178","0.600537"
"G","1617445658.354752","7","-20","4","42","46","27","0.83313","0.545776","-0.076172","0.045776","0","0.015267","-0.022901","1.880566","9.359766","4.074561","0.145947","0.515601","0.227295","0.043066","-0.002393","0.5802"
"G","1617445658.3446877","7","-19","3","44","47","26","0.83313","0.545715","-0.076538","0.045837","-0.007634","0.015267","-0.030534","1.894922","9.368139","4.075757","0.154321","0.525171","0.228491","0.049048","0","0.58977"
"G","1617445658.3347158","7","-21","0","43","46","27","0.833069","0.545776","-0.076965","0.045959","-0.015267","0.015267","-0.022901","1.887744","9.435132","4.086524","0.13877","0.592163","0.24165","0.021533","0.013159","0.653174"
"G","1617445658.3246405","7","-5","1","42","48","26","0.832886","0.545959","-0.077332","0.046143","-0.015267","0","-0.022901","1.854248","9.510498","4.073364","0.096899","0.667529","0.233276","-0.029907","0.05144","0.710596"
"G","1617445658.3147607","7","-19","4","45","48","26","0.832825","0.546082","-0.077515","0.046265","-0.007634","0","-0.007634","1.830322","9.521265","4.032691","0.069385","0.6771","0.194995","-0.056226","0.090918","0.699829"
"G","1617445658.3046548","7","-20","3","42","45","-6","0.832825","0.546021","-0.077637","0.046326","0","0.007634","0","1.8375","9.484179","3.976465","0.07417","0.641211","0.13877","-0.040674","0.128003","0.645996"
"G","1617445658.2948482","7","-20","5","44","47","27","0.832886","0.545898","-0.077759","0.046143","0","0.007634","0.007634","1.880566","9.463842","3.941772","0.117236","0.62207","0.101685","0.005981","0.154321","0.62207"
"G","1617445658.284598","7","-21","4","41","46","26","0.832947","0.545837","-0.077881","0.045898","0","0.015267","0.007634","1.904492","9.454272","3.925025","0.141162","0.6125","0.08374","0.0323","0.166284","0.610107"
"G","1617445658.274677","7","-19","4","45","45","26","0.832947","0.545776","-0.078064","0.045593","-0.007634","0.022901","-0.007634","1.932007","9.436328","3.927417","0.168677","0.595752","0.086133","0.062207","0.156714","0.600537"
"G","1617445658.264632","7","-23","1","43","44","27","0.832947","0.545776","-0.078491","0.04541","-0.007634","0.030534","-0.015267","1.964307","9.411206","3.951343","0.196191","0.57063","0.111255","0.090918","0.123218","0.593359"
"G","1617445658.2546165","7","-19","5","45","50","27","0.832947","0.545776","-0.079041","0.045227","-0.007634","0.030534","-0.015267","1.990625","9.395655","3.999194","0.215332","0.555078","0.159106","0.108862","0.072974","0.601733"
"G","1617445658.2447453","7","-20","5","44","46","26","0.832886","0.545776","-0.079468","0.045105","-0.007634","0.015267","-0.015267","1.988232","9.388476","4.043457","0.208154","0.549097","0.205762","0.098096","0.028711","0.6125"
"G","1617445658.234657","7","-21","1","41","44","26","0.832886","0.545776","-0.079651","0.045105","-0.007634","0","-0.015267","1.945166","9.404028","4.070971","0.161499","0.564648","0.233276","0.046655","0.00957","0.629248"
"G","1617445658.2248538","7","-19","3","44","48","26","0.832825","0.545837","-0.079773","0.045166","-0.007634","0","-0.007634","1.914062","9.423169","4.081738","0.128003","0.583789","0.246436","0.00957","0.005981","0.645996"
"G","1617445658.2147317","7","-21","4","43","46","26","0.832825","0.545837","-0.079773","0.045166","0","0","-0.007634","1.906885","9.426758","4.084131","0.120825","0.587378","0.248828","0.002393","0.004785","0.648389"
"G","1617445658.204878","7","-20","4","42","47","26","0.832825","0.545837","-0.079834","0.045227","-0.007634","0","-0.007634","1.904492","9.425562","4.075757","0.117236","0.586182","0.240454","0","0.011963","0.643604"
"G","1617445658.194789","7","-19","4","44","48","27","0.832764","0.545898","-0.079895","0.045166","-0.007634","0","-0.007634","1.914062","9.439917","4.078149","0.12561","0.599341","0.244043","0.004785","0.014355","0.657959"
"G","1617445658.1848235","7","-19","3","44","48","29","0.832703","0.545959","-0.079956","0.045166","-0.007634","-0.007634","0","1.9021","9.459058","4.080542","0.113647","0.618481","0.248828","-0.00957","0.016748","0.675903"
"G","1617445658.1747775","7","-19","4","42","46","28","0.832642","0.546021","-0.079895","0.045166","-0.015267","-0.007634","0","1.881763","9.492554","4.073364","0.094507","0.651978","0.242847","-0.0323","0.035889","0.699829"
"G","1617445658.1646802","7","-20","4","44","51","28","0.832581","0.546143","-0.079834","0.045227","-0.007634","-0.007634","0","1.891333","9.504517","4.051831","0.104077","0.662744","0.223706","-0.023926","0.057422","0.703418"
"G","1617445658.154928","7","-18","1","41","47","26","0.832581","0.546143","-0.079834","0.045166","-0.007634","0","0","1.915259","9.499731","4.027905","0.128003","0.657959","0.19978","0.001196","0.077759","0.693848"
"G","1617445658.1448247","7","-19","5","44","50","26","0.832581","0.546143","-0.079895","0.045105","-0.007634","0.007634","0","1.967896","9.490161","4.031494","0.18064","0.648389","0.203369","0.055029","0.069385","0.69624"
"G","1617445658.1347558","7","-19","4","41","47","27","0.832642","0.546143","-0.080017","0.044922","0","0.007634","0","2.019336","9.479395","4.033887","0.23208","0.636426","0.204565","0.107666","0.063403","0.69624"
"G","1617445658.1247642","7","-19","3","42","46","29","0.832642","0.546082","-0.080139","0.0448","0","0","-0.007634","2.033691","9.472217","4.035083","0.245239","0.630444","0.205762","0.120825","0.059814","0.693848"
"G","1617445658.1147382","7","-16","4","42","51","29","0.832642","0.546143","-0.080078","0.044739","-0.015267","-0.007634","-0.007634","1.989429","9.484179","4.025513","0.203369","0.641211","0.197388","0.078955","0.071777","0.692651"
"G","1617445658.1046436","7","-20","3","42","46","26","0.832581","0.546265","-0.079956","0.0448","-0.015267","-0.015267","-0.007634","1.947559","9.53562","4.018335","0.162695","0.691455","0.191406","0.031104","0.098096","0.727344"
"G","1617445658.0948896","7","-20","4","44","47","26","0.832458","0.546387","-0.079834","0.044922","-0.015267","-0.015267","-0.007634","1.934399","9.552368","4.006372","0.150732","0.707007","0.183032","0.017944","0.111255","0.736914"
"G","1617445658.0848591","7","-19","3","45","47","26","0.832397","0.546448","-0.079773","0.045044","-0.015267","-0.007634","-0.007634","1.937988","9.557154","3.98125","0.153125","0.711792","0.159106","0.021533","0.135181","0.732129"
"G","1617445658.0748942","7","-18","1","42","46","28","0.832336","0.54657","-0.079773","0.045105","-0.007634","0","-0.007634","1.964307","9.552368","3.963306","0.179443","0.705811","0.143555","0.049048","0.147144","0.724951"
"G","1617445658.06472","7","-19","4","43","47","26","0.832336","0.54657","-0.079895","0.045044","-0.007634","0.007634","-0.007634","2.004981","9.520068","3.944165","0.218921","0.673511","0.124414","0.094507","0.150732","0.69624"
"G","1617445658.0546951","7","-19","5","42","44","27","0.832336","0.54657","-0.080017","0.045044","-0.007634","0.007634","-0.007634","2.038476","9.492554","3.93938","0.250024","0.645996","0.119629","0.130396","0.143555","0.674707"
"G","1617445658.0449035","7","-20","5","44","44","26","0.832336","0.546509","-0.0802","0.044983","-0.007634","0.007634","-0.015267","2.065991","9.472217","3.960913","0.275146","0.626855","0.141162","0.155518","0.11604","0.669922"
"G","1617445658.0348115","7","-16","3","42","44","27","0.832336","0.546509","-0.080322","0.044983","-0.007634","-0.007634","-0.015267","2.064795","9.460254","3.994409","0.271558","0.614893","0.174658","0.151929","0.081348","0.672314"
"G","1617445658.025072","7","-19","4","45","47","29","0.832336","0.546509","-0.080322","0.045105","-0.007634","-0.015267","-0.015267","2.010962","9.457861","4.020728","0.216528","0.6125","0.200977","0.095703","0.056226","0.669922"
"G","1617445658.0149288","7","-20","1","40","44","27","0.832336","0.546509","-0.080139","0.045349","-0.007634","-0.022901","-0.007634","1.96311","9.472217","4.029101","0.169873","0.626855","0.209351","0.046655","0.055029","0.678296"
"G","1617445658.0047853","7","-20","4","44","47","28","0.832275","0.54657","-0.079956","0.045532","-0.007634","-0.015267","-0.007634","1.945166","9.474609","4.036279","0.151929","0.629248","0.217725","0.027515","0.049048","0.679492"
"G","1617445657.9956656","7","-24","1","42","48","26","0.832275","0.54657","-0.079773","0.045715","-0.007634","-0.015267","-0.007634","1.934399","9.471021","4.031494","0.142358","0.625659","0.211743","0.019141","0.052637","0.672314"
"G","1617445657.9848306","7","-23","4","46","50","26","0.832275","0.54657","-0.07959","0.045898","-0.007634","-0.015267","0","1.914062","9.482984","4.024316","0.123218","0.637622","0.204565","0","0.0646","0.6771"
"G","1617445657.974919","7","-20","4","42","47","26","0.832275","0.546631","-0.079407","0.046021","-0.007634","-0.015267","0","1.908081","9.503321","4.019531","0.119629","0.657959","0.19978","-0.005981","0.076563","0.692651"
"G","1617445657.964828","7","-19","6","43","48","26","0.832275","0.546692","-0.079224","0.046143","-0.007634","-0.015267","-0.007634","1.906885","9.524854","4.007568","0.119629","0.678296","0.187817","-0.008374","0.095703","0.707007"
"G","1617445657.9556007","7","-20","3","44","44","26","0.832275","0.546692","-0.079102","0.046265","-0.007634","-0.015267","-0.007634","1.920044","9.520068","3.997998","0.132788","0.673511","0.178247","0.004785","0.102881","0.701025"
"G","1617445657.945514","7","-21","3","42","48","26","0.832275","0.546631","-0.079041","0.046448","-0.007634","-0.007634","-0.015267","1.933203","9.496142","3.993213","0.145947","0.650781","0.172266","0.022729","0.099292","0.680689"
"G","1617445657.935689","7","-22","3","42","42","26","0.832336","0.54657","-0.079102","0.046631","-0.007634","-0.007634","-0.015267","1.935596","9.484179","3.994409","0.144751","0.638818","0.172266","0.022729","0.094507","0.669922"
"G","1617445657.925634","7","-23","2","45","48","26","0.832275","0.54657","-0.079163","0.046875","-0.007634","0","-0.022901","1.94397","9.480591","3.999194","0.149536","0.636426","0.178247","0.027515","0.088525","0.671118"
"G","1617445657.915536","7","-21","1","42","48","26","0.832275","0.546509","-0.079346","0.047058","0","0","-0.022901","1.954736","9.455469","4.00398","0.155518","0.6125","0.181836","0.037085","0.075366","0.651978"
"G","1617445657.9054873","7","-20","4","44","48","26","0.832336","0.546448","-0.07959","0.04718","0","0.007634","-0.022901","1.958325","9.414795","3.995605","0.154321","0.573022","0.172266","0.04187","0.068188","0.6125"
"G","1617445657.895028","7","-20","4","43","46","26","0.832397","0.546265","-0.079834","0.047302","0","0.007634","-0.015267","1.955933","9.380102","3.996802","0.145947","0.540723","0.171069","0.039478","0.057422","0.5802"
"G","1617445657.884825","7","-19","5","42","44","26","0.832458","0.546143","-0.080017","0.047363","0","0","-0.015267","1.959522","9.384888","4.015943","0.145947","0.5479","0.187817","0.035889","0.044263","0.593359"
"G","1617445657.8755343","7","-17","1","42","46","28","0.832458","0.546143","-0.080078","0.047424","-0.007634","-0.007634","-0.007634","1.939185","9.408813","4.035083","0.124414","0.571826","0.206958","0.00957","0.037085","0.618481"
"G","1617445657.8656175","7","-21","5","43","47","26","0.832458","0.546143","-0.079956","0.047546","-0.007634","-0.015267","-0.007634","1.918848","9.432739","4.024316","0.105273","0.595752","0.196191","-0.010767","0.056226","0.632837"
"G","1617445657.8556669","7","-19","3","43","48","27","0.832458","0.546143","-0.079834","0.047668","-0.007634","-0.015267","-0.007634","1.930811","9.445898","4.019531","0.117236","0.608911","0.191406","-0.001196","0.065796","0.6448"
"G","1617445657.84486","7","-20","1","44","48","27","0.832458","0.546204","-0.079773","0.047791","-0.007634","-0.007634","-0.007634","1.952344","9.460254","4.025513","0.13877","0.62207","0.197388","0.016748","0.065796","0.662744"
"G","1617445657.835579","7","-15","1","43","46","26","0.832397","0.546204","-0.079773","0.047974","-0.007634","0","-0.015267","1.966699","9.478198","4.035083","0.150732","0.641211","0.208154","0.023926","0.063403","0.68667"
"G","1617445657.8256278","7","-20","-17","40","43","26","0.832397","0.546204","-0.079895","0.048096","-0.007634","0.007634","-0.015267","1.98584","9.492554","4.043457","0.166284","0.655566","0.216528","0.035889","0.061011","0.705811"
"G","1617445657.8148692","7","-21","5","42","44","26","0.832397","0.546204","-0.080139","0.048157","0","0.007634","-0.015267","2.008569","9.491358","4.039868","0.185425","0.655566","0.212939","0.053833","0.0646","0.708203"
"G","1617445657.8054998","7","-19","3","41","46","26","0.832458","0.546082","-0.080383","0.048096","0.007634","0.007634","-0.007634","2.016943","9.490161","4.044653","0.19021","0.655566","0.215332","0.058618","0.062207","0.709399"
"G","1617445657.7955606","7","-20","3","43","46","26","0.83252","0.545959","-0.080505","0.048035","0.007634","0","0","2.000195","9.512891","4.050635","0.172266","0.679492","0.220117","0.037085","0.066992","0.729736"
"G","1617445657.7856524","7","-19","3","42","46","26","0.832581","0.545837","-0.080505","0.047913","0","-0.007634","0.007634","1.965503","9.545191","4.036279","0.13877","0.712988","0.203369","0","0.096899","0.747681"
"G","1617445657.7755282","7","-19","1","42","44","26","0.832703","0.545715","-0.080383","0.047852","0","-0.007634","0.007634","1.959522","9.561938","4.02312","0.135181","0.729736","0.186621","-0.003589","0.118433","0.754858"
"G","1617445657.765731","7","-19","3","42","43","26","0.832764","0.545593","-0.0802","0.047791","0","-0.007634","0.007634","1.981055","9.541601","4.020728","0.160303","0.710596","0.181836","0.023926","0.11604","0.740503"
"G","1617445657.7555366","7","-23","4","44","47","26","0.832886","0.545471","-0.080139","0.047729","0","-0.007634","0","2.019336","9.518872","4.019531","0.19978","0.689062","0.177051","0.065796","0.111255","0.726147"
"G","1617445657.7456045","7","-21","1","42","45","28","0.832947","0.545349","-0.080078","0.047668","0","0","-0.007634","2.056421","9.497339","4.033887","0.239258","0.668726","0.189014","0.107666","0.092114","0.720166"
"G","1617445657.7356908","7","-21","4","43","50","25","0.833008","0.545227","-0.080139","0.047729","0","0","-0.015267","2.085132","9.461451","4.049438","0.265576","0.634033","0.202173","0.137573","0.065796","0.698633"
"G","1617445657.7256749","7","-20","1","42","44","28","0.83313","0.545105","-0.0802","0.047791","0.007634","0","-0.015267","2.086328","9.417188","4.057813","0.265576","0.590967","0.208154","0.144751","0.044263","0.662744"
"G","1617445657.7154918","7","-17","-8","43","48","28","0.833191","0.544922","-0.080383","0.047913","0.007634","0","-0.022901","2.07915","9.398046","4.06499","0.253613","0.574219","0.211743","0.135181","0.033496","0.647192"
"G","1617445657.705608","7","-21","3","44","45","26","0.833313","0.544739","-0.080505","0.048035","0.007634","-0.007634","-0.022901","2.06001","9.389673","4.072168","0.23208","0.568237","0.215332","0.114844","0.028711","0.638818"
"G","1617445657.695509","7","-17","5","45","45","27","0.833374","0.544556","-0.080505","0.048218","0.007634","-0.007634","-0.015267","2.010962","9.390869","4.060205","0.18064","0.571826","0.19978","0.0646","0.045459","0.626855"
"G","1617445657.6856298","7","-20","1","45","47","27","0.833496","0.544434","-0.080505","0.04834","0.007634","-0.015267","-0.007634","1.991821","9.392065","4.025513","0.160303","0.573022","0.162695","0.046655","0.080151","0.608911"
"G","1617445657.6756508","7","-20","4","41","42","26","0.833557","0.54425","-0.080444","0.048462","0","-0.007634","-0.007634","2.001392","9.404028","4.007568","0.169873","0.588574","0.141162","0.056226","0.10647","0.616089"
"G","1617445657.6656284","7","-19","3","41","48","25","0.833618","0.544189","-0.080322","0.048523","-0.007634","-0.007634","-0.007634","2.007373","9.402832","3.997998","0.177051","0.587378","0.129199","0.063403","0.117236","0.611304"
"G","1617445657.6556215","7","-22","-1","42","45","26","0.833679","0.544128","-0.080261","0.048645","-0.007634","-0.007634","-0.007634","2.012158","9.386084","4.017138","0.181836","0.57063","0.147144","0.070581","0.093311","0.604126"
"G","1617445657.6456757","7","-21","4","44","46","27","0.83374","0.544067","-0.080261","0.048706","0","-0.007634","-0.007634","2.001392","9.353785","4.051831","0.169873","0.539526","0.179443","0.061011","0.05144","0.587378"
"G","1617445657.6357048","7","-19","3","45","44","27","0.833801","0.543945","-0.080261","0.048828","0.007634","-0.007634","-0.007634","1.99541","9.299952","4.088916","0.162695","0.48689","0.214136","0.059814","0","0.552686"
"G","1617445657.6256642","7","-19","4","43","47","26","0.833923","0.543762","-0.080261","0.048889","0.007634","-0.007634","-0.007634","1.982251","9.256885","4.131982","0.14834","0.44502","0.253613","0.049048","-0.052637","0.527563"
"G","1617445657.6156995","7","-19","3","44","45","27","0.834045","0.543579","-0.080261","0.04895","0.007634","-0.007634","-0.015267","1.935596","9.236547","4.157104","0.101685","0.427075","0.275146","0.004785","-0.078955","0.510815"
"G","1617445657.605821","7","-21","6","45","45","26","0.834106","0.543457","-0.0802","0.049072","0","-0.007634","-0.015267","1.894922","9.249707","4.176245","0.061011","0.441431","0.290698","-0.037085","-0.087329","0.522778"
"G","1617445657.5957477","7","-19","5","44","46","28","0.834106","0.543396","-0.080139","0.049255","-0.007634","-0.015267","-0.007634","1.860229","9.29397","4.173852","0.025122","0.48689","0.288306","-0.080151","-0.065796","0.556274"
"G","1617445657.585719","7","-20","3","43","46","26","0.834045","0.543518","-0.080139","0.049438","-0.007634","-0.007634","-0.007634","1.842285","9.344213","4.146338","0.004785","0.535937","0.261987","-0.10647","-0.022729","0.586182"
"G","1617445657.575658","7","-20","3","43","47","27","0.833984","0.54364","-0.080261","0.049561","-0.015267","0","-0.007634","1.861426","9.37771","4.090112","0.020337","0.568237","0.208154","-0.092114","0.038281","0.596948"
"G","1617445657.565652","7","-22","3","41","46","26","0.833862","0.543762","-0.080444","0.049561","-0.015267","0.007634","-0.007634","1.898511","9.401636","4.035083","0.055029","0.592163","0.156714","-0.058618","0.094507","0.604126"
"G","1617445657.5557077","7","-19","1","44","44","26","0.833801","0.543823","-0.080688","0.0495","-0.007634","0.015267","0","1.941577","9.384888","3.98125","0.094507","0.575415","0.105273","-0.013159","0.135181","0.576611"
"G","1617445657.5456226","7","-20","5","44","48","27","0.83374","0.543884","-0.081055","0.049316","-0.007634","0.022901","0","1.984644","9.366943","3.953735","0.133984","0.557471","0.080151","0.029907","0.150732","0.557471"
"G","1617445657.535472","7","-22","3","42","47","26","0.833679","0.543884","-0.08136","0.049133","-0.007634","0.022901","0","2.01814","9.359766","3.93938","0.163892","0.550293","0.068188","0.061011","0.15791","0.551489"
"G","1617445657.066607","7","-21","4","44","42","26","0.834045","0.543457","-0.082642","0.046631","-0.015267","0.007634","-0.007634","1.972681","9.481787","4.072168","0.124414","0.672314","0.193799","-0.007178","0.093311","0.703418"
"G","1617445657.0566962","7","-19","1","43","46","27","0.833984","0.543518","-0.082886","0.046631","-0.007634","0.007634","-0.007634","1.987036","9.454272","4.06499","0.135181","0.6448","0.189014","0.007178","0.086133","0.679492"
"G","1617445657.0466125","7","-21","4","44","46","25","0.833923","0.543518","-0.08313","0.04657","-0.007634","0.015267","-0.007634","2.012158","9.415991","4.048242","0.156714","0.607715","0.173462","0.035889","0.084937","0.643604"
"G","1617445657.0366156","7","-20","3","41","46","26","0.833923","0.543457","-0.083374","0.046509","-0.007634","0.007634","-0.007634","2.043262","9.382495","4.044653","0.184229","0.575415","0.169873","0.068188","0.07417","0.618481"
"G","1617445657.0267117","7","-21","2","42","50","26","0.833923","0.543457","-0.083557","0.046448","-0.007634","0","-0.007634","2.048047","9.382495","4.05542","0.186621","0.575415","0.181836","0.069385","0.063403","0.623267"
"G","1617445657.0167203","7","-21","4","41","48","26","0.833862","0.543579","-0.083618","0.046509","-0.015267","-0.007634","-0.007634","2.024121","9.410009","4.069776","0.161499","0.601733","0.198584","0.039478","0.058618","0.649585"
"G","1617445657.006518","7","-17","4","42","43","27","0.83374","0.543701","-0.083496","0.046631","-0.015267","-0.015267","-0.007634","2.008569","9.445898","4.081738","0.147144","0.636426","0.212939","0.017944","0.059814","0.683081"
"G","1617445656.9966614","7","-20","4","44","47","41","0.833618","0.543884","-0.083374","0.046814","-0.015267","-0.015267","-0.007634","1.997803","9.486572","4.078149","0.136377","0.675903","0.212939","0","0.075366","0.716577"
"G","1617445656.9860172","7","-16","4","42","46","27","0.833557","0.544006","-0.083252","0.046875","-0.007634","-0.007634","0","2.012158","9.510498","4.057813","0.151929","0.698633","0.194995","0.013159","0.101685","0.733325"
"G","1617445656.976496","7","-19","3","42","45","27","0.833557","0.544006","-0.083252","0.046875","0","0","0","2.030102","9.502124","4.048242","0.169873","0.690259","0.185425","0.033496","0.10647","0.724951"
"G","1617445656.9666183","7","-19","3","38","48","29","0.833618","0.543945","-0.083374","0.046814","0.007634","0.007634","0","2.050439","9.481787","4.042261","0.189014","0.669922","0.178247","0.056226","0.104077","0.708203"
"G","1617445656.9567618","7","-19","7","45","47","26","0.833679","0.543762","-0.083557","0.046692","0.007634","0.015267","-0.007634","2.074365","9.465039","4.04585","0.210547","0.655566","0.178247","0.080151","0.098096","0.698633"
"G","1617445656.9466176","7","-19","5","44","47","57","0.833801","0.54364","-0.083801","0.046509","0","0.015267","-0.015267","2.085132","9.455469","4.066186","0.218921","0.647192","0.196191","0.087329","0.078955","0.699829"
"G","1617445656.936742","7","-16","7","44","46","26","0.833801","0.543579","-0.083984","0.046509","0","-0.007634","-0.015267","2.038476","9.455469","4.075757","0.169873","0.648389","0.205762","0.038281","0.071777","0.69624"
"G","1617445656.9266696","7","-23","5","44","52","26","0.833801","0.543518","-0.083984","0.046631","-0.007634","-0.007634","-0.015267","1.991821","9.450684","4.066186","0.122021","0.6448","0.194995","-0.005981","0.080151","0.679492"
"G","1617445656.9165826","7","-17","4","42","47","26","0.833801","0.543518","-0.084106","0.046814","-0.007634","0","-0.015267","2.014551","9.424365","4.050635","0.141162","0.618481","0.179443","0.016748","0.08374","0.653174"
"G","1617445656.9066908","7","-20","1","42","44","26","0.833801","0.543518","-0.08429","0.046875","-0.007634","0.007634","-0.015267","2.057617","9.390869","4.036279","0.18064","0.584985","0.165088","0.062207","0.082544","0.624463"
"G","1617445656.8966384","7","-19","4","44","46","26","0.83374","0.543518","-0.084595","0.046936","-0.007634","0.007634","-0.015267","2.088721","9.372925","4.021924","0.205762","0.568237","0.153125","0.090918","0.086133","0.610107"
"G","1617445656.8865852","7","-20","5","42","43","26","0.833679","0.543579","-0.084778","0.046936","-0.007634","0","-0.015267","2.089917","9.360962","4.014746","0.204565","0.556274","0.147144","0.092114","0.087329","0.596948"
"G","1617445656.8766687","7","-20","1","39","45","25","0.833679","0.543518","-0.0849","0.046997","0","0","-0.007634","2.074365","9.348999","4.00398","0.185425","0.545508","0.136377","0.075366","0.093311","0.579004"
"G","1617445656.8665907","7","-21","4","42","46","28","0.83374","0.543518","-0.0849","0.047058","0","-0.007634","-0.007634","2.051636","9.333447","3.996802","0.162695","0.529956","0.128003","0.057422","0.094507","0.557471"
"G","1617445656.8565974","7","-20","1","41","48","26","0.833801","0.543457","-0.084778","0.047119","0","-0.007634","-0.007634","2.025317","9.332251","3.996802","0.137573","0.52876","0.12561","0.0323","0.096899","0.550293"
"G","1617445656.8466458","7","-17","4","45","47","26","0.833801","0.543396","-0.084717","0.04718","-0.007634","-0.007634","-0.007634","2.007373","9.338232","3.996802","0.119629","0.535937","0.12561","0.014355","0.100488","0.553882"
"G","1617445656.836774","7","-19","2","42","44","26","0.833801","0.543396","-0.084656","0.047241","-0.007634","-0.007634","-0.007634","1.998999","9.346606","4.006372","0.111255","0.544312","0.135181","0.003589","0.094507","0.563452"
"G","1617445656.8266585","7","-12","4","42","45","25","0.833801","0.543396","-0.084656","0.047302","-0.007634","0","-0.007634","2.009766","9.34541","4.014746","0.122021","0.543115","0.143555","0.013159","0.086133","0.567041"
"G","1617445656.8166738","7","-20","4","46","47","26","0.833801","0.543396","-0.084778","0.047302","-0.007634","0.007634","-0.007634","2.034888","9.34541","4.017138","0.144751","0.543115","0.145947","0.035889","0.08374","0.573022"
"G","1617445656.8066542","7","-19","4","44","47","26","0.833801","0.543396","-0.084961","0.047241","-0.007634","0.007634","-0.007634","2.063599","9.353785","4.027905","0.171069","0.551489","0.156714","0.058618","0.076563","0.58977"
"G","1617445656.7968032","7","-19","4","41","44","26","0.83374","0.543457","-0.085144","0.04718","-0.007634","0.007634","-0.007634","2.080347","9.366943","4.038672","0.185425","0.564648","0.169873","0.069385","0.070581","0.608911"
"G","1617445656.7866635","7","-20","5","34","44","27","0.83374","0.543457","-0.085205","0.047119","-0.007634","0","-0.007634","2.074365","9.386084","4.031494","0.179443","0.583789","0.162695","0.061011","0.084937","0.62207"
"G","1617445656.7768624","7","-19","0","42","47","26","0.83374","0.543457","-0.085144","0.047119","-0.007634","-0.007634","0","2.057617","9.412402","4.036279","0.163892","0.610107","0.16748","0.040674","0.090918","0.6448"
"G","1617445656.7666895","7","-19","4","42","46","27","0.83374","0.543518","-0.085022","0.047119","-0.007634","-0.015267","0","2.038476","9.441113","4.041064","0.147144","0.637622","0.172266","0.019141","0.098096","0.668726"
"G","1617445656.756724","7","-21","-3","40","46","26","0.83374","0.543518","-0.084839","0.04718","-0.007634","-0.015267","0","2.01814","9.465039","4.042261","0.128003","0.661548","0.173462","-0.002393","0.10647","0.68667"
"G","1617445656.746735","7","-19","5","42","47","26","0.833679","0.543579","-0.084717","0.047241","-0.007634","-0.007634","0","2.013355","9.461451","4.047046","0.12561","0.656763","0.179443","-0.004785","0.099292","0.684277"
"G","1617445656.736735","7","-21","1","38","44","26","0.833679","0.543579","-0.084656","0.047302","-0.007634","-0.007634","0","2.025317","9.444702","4.051831","0.137573","0.640015","0.184229","0.008374","0.088525","0.673511"
"G","1617445656.7268145","7","-20","5","44","48","27","0.83374","0.543579","-0.084595","0.047241","-0.007634","-0.007634","0","2.032495","9.433935","4.080542","0.145947","0.629248","0.211743","0.016748","0.058618","0.675903"
"G","1617445656.7166405","7","-19","6","42","44","26","0.833679","0.543579","-0.084473","0.047241","-0.007634","-0.015267","0","1.998999","9.444702","4.112842","0.114844","0.640015","0.245239","-0.017944","0.0323","0.692651"
"G","1617445656.706685","7","-19","3","43","47","26","0.833679","0.54364","-0.084229","0.047302","-0.007634","-0.022901","0","1.94397","9.445898","4.128394","0.063403","0.640015","0.260791","-0.069385","0.019141","0.689062"
"G","1617445656.6967585","7","-19","4","42","51","28","0.833679","0.543701","-0.083862","0.047424","-0.007634","-0.030534","0.007634","1.904492","9.437525","4.12959","0.028711","0.630444","0.261987","-0.101685","0.014355","0.674707"
"G","1617445656.686767","7","-21","4","42","52","27","0.833679","0.543701","-0.083435","0.047485","-0.007634","-0.030534","0.015267","1.884155","9.432739","4.126001","0.014355","0.625659","0.257202","-0.113647","0.016748","0.666333"
"G","1617445656.6768937","7","-19","-5","42","48","27","0.83374","0.543762","-0.083008","0.047546","-0.007634","-0.022901","0.015267","1.890137","9.430346","4.115234","0.026318","0.620874","0.245239","-0.100488","0.025122","0.659155"
"G","1617445656.666764","7","-19","5","44","44","27","0.83374","0.543762","-0.082642","0.047546","-0.007634","-0.022901","0.007634","1.906885","9.423169","4.096094","0.049048","0.613696","0.226099","-0.07417","0.039478","0.649585"
"G","1617445656.656833","7","-16","4","42","47","27","0.833801","0.543762","-0.082336","0.047546","-0.007634","-0.015267","0.007634","1.928418","9.423169","4.085327","0.075366","0.6125","0.212939","-0.046655","0.05144","0.648389"
"G","1617445656.64685","7","-19","1","41","49","26","0.83374","0.543884","-0.082153","0.047546","-0.015267","-0.007634","0","1.961914","9.443506","4.086524","0.112451","0.631641","0.216528","-0.014355","0.055029","0.673511"
"G","1617445656.6367135","7","-20","0","42","47","26","0.833618","0.544006","-0.082153","0.047607","-0.015267","0","-0.007634","1.993018","9.468628","4.070971","0.142358","0.656763","0.204565","0.010767","0.075366","0.697437"
"G","1617445656.6267445","7","-17","3","45","45","26","0.833557","0.544128","-0.082275","0.047607","-0.015267","0.007634","-0.015267","2.01814","9.477002","4.057813","0.165088","0.66394","0.193799","0.0323","0.088525","0.704614"
"G","1617445656.6167016","7","-19","1","43","46","27","0.833435","0.544312","-0.08252","0.047668","-0.015267","0.007634","-0.015267","2.030102","9.465039","4.049438","0.173462","0.649585","0.189014","0.043066","0.086133","0.691455"
"G","1617445656.606841","7","-16","4","44","46","26","0.833374","0.544312","-0.082764","0.047668","-0.007634","0.007634","-0.007634","2.038476","9.429151","4.039868","0.177051","0.614893","0.181836","0.053833","0.078955","0.657959"
"G","1617445656.596682","7","-20","5","44","50","26","0.833374","0.54425","-0.082947","0.047607","0","0","0","2.03728","9.381299","4.037476","0.173462","0.568237","0.178247","0.057422","0.063403","0.613696"
"G","1617445656.586762","7","-19","3","43","44","26","0.833435","0.54425","-0.083008","0.047485","0","0","0","2.024121","9.353785","4.025513","0.161499","0.539526","0.166284","0.052637","0.063403","0.5802"
"G","1617445656.5767255","7","-19","3","42","47","26","0.833496","0.544189","-0.082886","0.047363","0","-0.007634","0.007634","2.012158","9.332251","4.005176","0.151929","0.517993","0.143555","0.049048","0.075366","0.550293"
"G","1617445656.5667405","7","-21","1","42","44","26","0.833496","0.544128","-0.082825","0.047241","0","0","0.007634","2.030102","9.328662","3.982446","0.172266","0.515601","0.120825","0.070581","0.094507","0.543115"
"G","1617445656.556949","7","-19","1","41","45","26","0.833557","0.544128","-0.082764","0.047119","-0.007634","0","0","2.051636","9.343018","3.964502","0.196191","0.52876","0.101685","0.094507","0.117236","0.552686"
"G","1617445656.5468311","7","-23","4","44","42","26","0.833496","0.544189","-0.082703","0.046997","-0.015267","0","0","2.075562","9.364551","3.956128","0.22251","0.550293","0.094507","0.117236","0.132788","0.573022"
"G","1617445656.5370283","7","-21","0","40","47","26","0.833496","0.54425","-0.082703","0.046936","-0.015267","0","0","2.099487","9.371729","3.962109","0.247632","0.556274","0.101685","0.139966","0.128003","0.586182"
"G","1617445656.52689","7","-22","3","42","44","26","0.833435","0.54425","-0.082703","0.046814","-0.007634","0","0","2.117432","9.368139","3.969287","0.266772","0.552686","0.110059","0.159106","0.118433","0.58977"
"G","1617445656.5168662","7","-21","3","42","47","26","0.833435","0.544312","-0.082703","0.046753","-0.007634","0","0","2.119824","9.352588","3.97168","0.269165","0.535937","0.112451","0.163892","0.108862","0.576611"
"G","1617445656.5068653","7","-19","3","45","46","26","0.833496","0.54425","-0.082642","0.046692","-0.007634","-0.007634","0","2.11145","9.343018","3.982446","0.263184","0.526367","0.122021","0.159106","0.096899","0.57063"
"G","1617445656.4968672","7","-23","1","42","44","37","0.833496","0.54425","-0.082458","0.04657","-0.007634","-0.007634","0","2.100684","9.351392","4.001587","0.256006","0.534741","0.141162","0.149536","0.082544","0.583789"
"G","1617445656.4868343","7","-22","1","42","42","26","0.833496","0.544312","-0.082214","0.046448","-0.015267","-0.015267","0.007634","2.070776","9.402832","4.015943","0.23208","0.584985","0.155518","0.11604","0.089722","0.630444"
"G","1617445656.476845","7","-20","5","41","47","26","0.833435","0.544434","-0.08197","0.046448","-0.015267","-0.015267","0.007634","2.038476","9.469824","4.018335","0.203369","0.650781","0.160303","0.076563","0.112451","0.68667"
"G","1617445656.4667602","7","-22","1","42","45","26","0.833374","0.544617","-0.081665","0.046387","-0.015267","-0.015267","0.007634","2.025317","9.517675","4.021924","0.196191","0.695044","0.166284","0.062207","0.124414","0.727344"
"G","1617445656.4572148","7","-17","3","44","50","26","0.833313","0.5448","-0.081482","0.046326","-0.015267","0","0.007634","2.048047","9.532031","4.006372","0.22251","0.707007","0.153125","0.087329","0.141162","0.73811"
"G","1617445656.4467044","7","-20","5","44","46","26","0.833252","0.5448","-0.08136","0.046204","-0.007634","0.007634","0.007634","2.074365","9.538013","4.011157","0.251221","0.712988","0.159106","0.114844","0.137573","0.750073"
"G","1617445656.4368348","7","-20","3","43","44","26","0.833313","0.5448","-0.08136","0.045959","-0.007634","0","0","2.071973","9.52605","4.041064","0.251221","0.701025","0.187817","0.114844","0.10647","0.75127"
"G","1617445656.4268582","7","-23","1","42","44","26","0.833374","0.544739","-0.081299","0.045837","0","-0.007634","0","2.040869","9.503321","4.08772","0.22251","0.678296","0.233276","0.086133","0.056226","0.742895"
"G","1617445656.4169033","7","-20","3","45","47","26","0.833435","0.544678","-0.081116","0.045776","-0.007634","-0.015267","0","2.007373","9.492554","4.136767","0.192603","0.667529","0.279932","0.055029","0.00957","0.746484"
"G","1617445656.406854","7","-19","3","42","45","28","0.833435","0.544678","-0.080811","0.045776","-0.007634","-0.022901","0","1.969092","9.503321","4.166675","0.160303","0.678296","0.309839","0.019141","-0.011963","0.762036"
"G","1617445656.3969646","7","-21","5","42","44","27","0.833435","0.544739","-0.080444","0.045959","-0.015267","-0.030534","0","1.929614","9.540405","4.177442","0.124414","0.714185","0.320605","-0.021533","-0.007178","0.791943"
"G","1617445656.3868406","7","-19","4","43","47","26","0.833313","0.544922","-0.080139","0.046143","-0.015267","-0.022901","-0.007634","1.900903","9.584668","4.160693","0.098096","0.756055","0.307446","-0.052637","0.020337","0.819458"
"G","1617445656.376937","7","-22","3","43","51","29","0.833191","0.545105","-0.079895","0.046387","-0.022901","-0.015267","-0.007634","1.906885","9.630127","4.133179","0.10647","0.800317","0.282324","-0.049048","0.061011","0.850561"
"G","1617445656.3668854","7","-18","3","41","45","26","0.833069","0.545349","-0.079834","0.04657","-0.015267","0","-0.007634","1.940381","9.655249","4.111646","0.13877","0.823047","0.265576","-0.020337","0.084937","0.870898"
"G","1617445656.357093","7","-19","4","44","46","27","0.832947","0.545471","-0.079956","0.046692","-0.015267","0.007634","-0.015267","1.96311","9.66123","4.074561","0.15791","0.829028","0.23208","0","0.117236","0.866113"
"G","1617445656.3469274","7","-16","4","42","47","26","0.832886","0.545532","-0.0802","0.046753","-0.007634","0.007634","-0.015267","1.967896","9.638501","4.044653","0.15791","0.806299","0.203369","0.004785","0.133984","0.83501"
"G","1617445656.336735","7","-20","4","41","44","27","0.832886","0.545471","-0.080383","0.046753","0","0.007634","-0.015267","1.959522","9.572705","4.026709","0.147144","0.741699","0.185425","0.005981","0.12561","0.768018"
"G","1617445656.3276615","7","-19","5","42","46","27","0.833008","0.545288","-0.080566","0.046814","0.007634","0","-0.015267","1.923633","9.490161","4.035083","0.107666","0.660352","0.19021","-0.019141","0.088525","0.689062"
"G","1617445656.317627","7","-17","-15","43","46","26","0.83313","0.545105","-0.080688","0.046936","0.007634","-0.007634","-0.007634","1.885352","9.433935","4.044653","0.065796","0.606519","0.196191","-0.05144","0.062207","0.635229"
"G","1617445656.3068554","7","-20","1","44","50","26","0.833191","0.544983","-0.080627","0.047119","0","-0.015267","-0.007634","1.851856","9.383692","4.054224","0.031104","0.557471","0.203369","-0.078955","0.037085","0.587378"
"G","1617445656.297625","7","-19","1","41","46","27","0.833252","0.544861","-0.080566","0.047302","-0.007634","-0.015267","-0.015267","1.842285","9.337036","4.051831","0.020337","0.512012","0.198584","-0.081348","0.022729","0.541919"
