timestamp,user_id,flex_1,flex_2,flex_3,flex_4,flex_5,Qw,Qx,Qy,Qz,GYRx,GYRy,GYRz,ACCx,ACCy,ACCz,ACCx_body,ACCy_body,ACCz_body,ACCx_world,ACCy_world,ACCz_world,Alphabet
1616136672.6862354,1,8.0,-6.0,-14.0,-14.0,-13.0,0.694336,-0.034058,-0.718811,0.00415,0.0,-0.007634,0.007634,9.442309,-0.519189,-0.519189,-0.336157,0.002393,-0.168677,0.179443,-0.022729,-0.328979,goodbye
1616136672.6955123,1,11.0,-6.0,-16.0,-17.0,-13.0,0.694275,-0.03418,-0.718872,0.004333,0.0,-0.007634,0.007634,9.436328,-0.519189,-0.527563,-0.342139,0.005981,-0.174658,0.185425,-0.019141,-0.334961,goodbye
1616136672.7060046,1,7.0,-6.0,-16.0,-14.0,-11.0,0.694214,-0.034302,-0.718994,0.004456,0.0,-0.007634,0.007634,9.426758,-0.523975,-0.532349,-0.352905,0.004785,-0.177051,0.187817,-0.021533,-0.345728,goodbye
1616136672.715474,1,7.0,-5.0,-16.0,-16.0,-13.0,0.694092,-0.034363,-0.719055,0.004578,0.0,-0.007634,0.007634,9.413599,-0.527563,-0.541919,-0.364868,0.003589,-0.184229,0.196191,-0.023926,-0.356494,goodbye
1616136672.725488,1,9.0,-6.0,-15.0,-16.0,-13.0,0.693909,-0.034485,-0.719177,0.0047,0.0,-0.007634,0.007634,9.411206,-0.535937,-0.537134,-0.366064,0.0,-0.174658,0.186621,-0.027515,-0.35769,goodbye
1616136672.736261,1,7.0,-6.0,-15.0,-12.0,-12.0,0.693787,-0.034546,-0.719299,0.004822,0.0,-0.007634,0.007634,9.418384,-0.543115,-0.539526,-0.358887,-0.004785,-0.174658,0.186621,-0.031104,-0.350513,goodbye
1616136672.7455418,1,8.0,-5.0,-15.0,-13.0,-13.0,0.693665,-0.034607,-0.719421,0.005005,0.0,-0.007634,0.007634,9.414795,-0.5479,-0.543115,-0.362476,-0.005981,-0.174658,0.186621,-0.033496,-0.354102,goodbye
1616136672.755344,1,6.0,-4.0,-15.0,-17.0,-9.0,0.693542,-0.034668,-0.719543,0.005188,0.0,-0.007634,0.007634,9.398046,-0.549097,-0.540723,-0.379224,-0.003589,-0.168677,0.18064,-0.031104,-0.37085,goodbye
1616136672.765468,1,8.0,-6.0,-16.0,-14.0,-8.0,0.69342,-0.034729,-0.719666,0.005371,0.0,-0.007634,0.007634,9.38728,-0.553882,-0.540723,-0.38999,-0.005981,-0.165088,0.178247,-0.034692,-0.381616,goodbye
1616136672.775435,1,7.0,-6.0,-15.0,-12.0,-11.0,0.693298,-0.034729,-0.719788,0.005554,0.0,-0.015267,0.0,9.386084,-0.56106,-0.540723,-0.38999,-0.010767,-0.161499,0.174658,-0.039478,-0.381616,goodbye
1616136672.7853944,1,8.0,-6.0,-15.0,-13.0,-11.0,0.693176,-0.034729,-0.71991,0.005737,0.007634,-0.007634,0.0,9.383692,-0.564648,-0.553882,-0.392383,-0.010767,-0.171069,0.184229,-0.039478,-0.384009,goodbye
1616136672.796268,1,6.0,-6.0,-16.0,-17.0,-11.0,0.693054,-0.034668,-0.720032,0.00592,0.007634,-0.007634,0.0,9.389673,-0.553882,-0.553882,-0.386401,0.0,-0.168677,0.181836,-0.028711,-0.378027,goodbye
1616136672.805343,1,8.0,-6.0,-18.0,-13.0,-12.0,0.692932,-0.034607,-0.720154,0.006104,0.007634,-0.007634,0.0,9.383692,-0.540723,-0.556274,-0.392383,0.014355,-0.16748,0.181836,-0.014355,-0.385205,goodbye
1616136672.8155878,1,7.0,-6.0,-16.0,-13.0,-9.0,0.692871,-0.034607,-0.720215,0.006287,0.0,-0.007634,0.0,9.380102,-0.527563,-0.558667,-0.395972,0.031104,-0.16748,0.183032,0.001196,-0.38999,goodbye
1616136672.82528,1,7.0,-6.0,-16.0,-17.0,-11.0,0.692749,-0.034607,-0.720337,0.006409,0.0,-0.007634,0.007634,9.37771,-0.526367,-0.558667,-0.398364,0.033496,-0.165088,0.18064,0.003589,-0.392383,goodbye
1616136672.8354845,1,7.0,-6.0,-16.0,-14.0,-11.0,0.692627,-0.034668,-0.720398,0.006592,0.0,-0.007634,0.007634,9.371729,-0.543115,-0.552686,-0.403149,0.020337,-0.156714,0.172266,-0.00957,-0.395972,goodbye
1616136672.8453755,1,7.0,-6.0,-16.0,-17.0,-9.0,0.692566,-0.034729,-0.720459,0.006836,0.0,-0.007634,0.007634,9.356176,-0.5479,-0.543115,-0.418701,0.019141,-0.144751,0.160303,-0.010767,-0.41272,goodbye
1616136672.8553112,1,8.0,-6.0,-16.0,-13.0,-9.0,0.692444,-0.034729,-0.720581,0.006958,0.0,-0.007634,0.007634,9.348999,-0.546704,-0.535937,-0.425879,0.022729,-0.133984,0.150732,-0.007178,-0.419897,goodbye
1616136672.8653986,1,8.0,-5.0,-17.0,-12.0,-9.0,0.692383,-0.03479,-0.720642,0.00708,0.0,-0.007634,0.007634,9.364551,-0.559863,-0.532349,-0.409131,0.011963,-0.129199,0.144751,-0.016748,-0.403149,goodbye
1616136672.875227,1,7.0,-5.0,-15.0,-16.0,-11.0,0.692383,-0.034851,-0.720703,0.007263,0.0,0.0,0.0,9.378906,-0.576611,-0.525171,-0.395972,0.0,-0.120825,0.135181,-0.027515,-0.38999,goodbye
1616136672.8853865,1,6.0,-6.0,-15.0,-14.0,-15.0,0.692383,-0.034851,-0.720642,0.007385,0.0,0.0,0.0,9.384888,-0.584985,-0.534741,-0.388794,-0.007178,-0.131592,0.145947,-0.034692,-0.381616,goodbye
1616136672.8954668,1,7.0,-4.0,-17.0,-16.0,-13.0,0.692383,-0.03479,-0.720642,0.007507,0.007634,0.0,0.0,9.374121,-0.600537,-0.550293,-0.399561,-0.021533,-0.147144,0.161499,-0.050244,-0.391187,goodbye
1616136672.9052792,1,7.0,-5.0,-14.0,-17.0,-11.0,0.692444,-0.034729,-0.720642,0.00769,0.007634,0.0,0.0,9.360962,-0.608911,-0.556274,-0.413916,-0.028711,-0.154321,0.168677,-0.058618,-0.404346,goodbye
1616136672.915511,1,7.0,-6.0,-18.0,-14.0,-11.0,0.692444,-0.034668,-0.720581,0.007812,0.007634,0.0,0.0,9.347803,-0.596948,-0.539526,-0.425879,-0.015552,-0.137573,0.153125,-0.045459,-0.417505,goodbye
1616136672.9253857,1,8.0,-6.0,-15.0,-16.0,-9.0,0.692444,-0.034668,-0.720581,0.007874,0.0,0.0,0.0,9.337036,-0.592163,-0.520386,-0.436646,-0.00957,-0.118433,0.133984,-0.039478,-0.429468,goodbye
1616136672.9353,1,5.0,-6.0,-16.0,-22.0,-12.0,0.692444,-0.034729,-0.720581,0.007996,-0.007634,-0.007634,0.0,9.323877,-0.60293,-0.504834,-0.449805,-0.017944,-0.102881,0.118433,-0.049048,-0.442627,goodbye
1616136672.945444,1,7.0,-6.0,-14.0,-18.0,-12.0,0.692383,-0.03479,-0.720642,0.008057,-0.007634,-0.007634,0.0,9.327466,-0.617285,-0.484497,-0.446216,-0.031104,-0.081348,0.096899,-0.061011,-0.439038,goodbye
1616136672.955469,1,5.0,-5.0,-16.0,-16.0,-10.0,0.692322,-0.034851,-0.720703,0.008118,0.0,-0.007634,0.0,9.337036,-0.635229,-0.478516,-0.436646,-0.046655,-0.07417,0.088525,-0.075366,-0.429468,goodbye
1616136672.9655485,1,7.0,-5.0,-15.0,-13.0,-11.0,0.692261,-0.03479,-0.720764,0.00824,0.0,-0.007634,-0.007634,9.364551,-0.640015,-0.455786,-0.409131,-0.05144,-0.049048,0.062207,-0.077759,-0.401953,goodbye
1616136672.9753044,1,9.0,-6.0,-15.0,-16.0,-11.0,0.692261,-0.034729,-0.720764,0.008301,0.007634,-0.007634,-0.007634,9.38728,-0.630444,-0.441431,-0.386401,-0.04187,-0.034692,0.047852,-0.065796,-0.38042,goodbye
1616136672.9854228,1,10.0,-4.0,-16.0,-12.0,-6.0,0.692261,-0.034607,-0.720764,0.008301,0.0,-0.007634,-0.007634,9.388476,-0.611304,-0.441431,-0.385205,-0.023926,-0.034692,0.047852,-0.047852,-0.38042,goodbye
1616136672.9953475,1,8.0,-6.0,-13.0,-13.0,-12.0,0.6922,-0.034485,-0.720825,0.008301,0.0,-0.007634,-0.007634,9.375318,-0.584985,-0.437842,-0.398364,0.0,-0.029907,0.045459,-0.025122,-0.395972,goodbye
1616136673.0053954,1,7.0,-5.0,-15.0,-14.0,-13.0,0.692139,-0.034424,-0.720886,0.00824,-0.007634,-0.007634,-0.007634,9.375318,-0.573022,-0.440234,-0.398364,0.00957,-0.031104,0.046655,-0.015552,-0.395972,goodbye
1616136673.0153072,1,5.0,-6.0,-15.0,-18.0,-13.0,0.692078,-0.034424,-0.721008,0.00824,-0.007634,-0.007634,-0.007634,9.388476,-0.583789,-0.443823,-0.385205,0.0,-0.031104,0.045459,-0.023926,-0.382812,goodbye
1616136673.025495,1,8.0,-6.0,-17.0,-17.0,-11.0,0.691956,-0.034424,-0.721069,0.00824,-0.007634,-0.007634,-0.007634,9.400439,-0.592163,-0.448608,-0.373242,-0.008374,-0.033496,0.047852,-0.0323,-0.369653,goodbye
1616136673.0353224,1,8.0,-6.0,-17.0,-11.0,-11.0,0.691895,-0.034424,-0.72113,0.00824,0.0,-0.007634,-0.007634,9.381299,-0.593359,-0.462964,-0.392383,-0.00957,-0.046655,0.061011,-0.034692,-0.387598,goodbye
1616136673.0454528,1,7.0,-6.0,-14.0,-16.0,-11.0,0.691833,-0.034424,-0.721191,0.00824,-0.007634,-0.007634,-0.007634,9.360962,-0.584985,-0.468945,-0.41272,-0.001196,-0.05144,0.066992,-0.027515,-0.409131,goodbye
1616136673.0552652,1,9.0,-6.0,-15.0,-46.0,-9.0,0.691711,-0.034485,-0.721313,0.00824,-0.007634,-0.015267,0.0,9.366943,-0.586182,-0.478516,-0.405542,-0.001196,-0.057422,0.072974,-0.027515,-0.400757,goodbye
1616136673.065258,1,10.0,-6.0,-15.0,-13.0,-9.0,0.691589,-0.034546,-0.721436,0.008179,-0.007634,-0.007634,0.0,9.388476,-0.594556,-0.488086,-0.384009,-0.00957,-0.063403,0.077759,-0.034692,-0.379224,goodbye
1616136673.07549,1,8.0,-5.0,-14.0,-15.0,-11.0,0.691467,-0.034607,-0.721497,0.008179,-0.007634,-0.007634,0.0,9.418384,-0.604126,-0.503638,-0.354102,-0.019141,-0.076563,0.089722,-0.043066,-0.34812,goodbye
1616136673.0854137,1,6.0,-6.0,-17.0,-12.0,-11.0,0.691406,-0.034729,-0.721558,0.008179,-0.007634,-0.007634,0.0,9.431543,-0.60293,-0.509619,-0.340942,-0.015552,-0.080151,0.093311,-0.038281,-0.334961,goodbye
1616136673.0954,1,8.0,-6.0,-15.0,-12.0,-11.0,0.691406,-0.034851,-0.721619,0.008179,-0.007634,0.0,0.0,9.424365,-0.604126,-0.522778,-0.34812,-0.015552,-0.092114,0.105273,-0.039478,-0.342139,goodbye
1616136673.1053782,1,7.0,-6.0,-16.0,-14.0,-9.0,0.691345,-0.034973,-0.721619,0.008118,-0.015267,0.0,0.0,9.421972,-0.613696,-0.531152,-0.350513,-0.023926,-0.100488,0.113647,-0.049048,-0.343335,goodbye
1616136673.1153553,1,5.0,-6.0,-16.0,-17.0,-10.0,0.691345,-0.035156,-0.721619,0.007996,-0.015267,0.0,0.0,9.492554,-0.605322,-0.520386,-0.279932,-0.015552,-0.088525,0.099292,-0.035889,-0.27395,goodbye
1616136673.1253164,1,9.0,-6.0,-15.0,-13.0,-12.0,0.69165,-0.035217,-0.721375,0.007751,-0.015267,0.022901,-0.015267,9.850245,-0.571826,-0.416309,0.075366,0.014355,0.005981,-0.008374,0.019141,0.072974,goodbye
1616136673.1353185,1,8.0,-2.0,-12.0,-16.0,-9.0,0.692444,-0.034912,-0.720581,0.007141,-0.022901,0.068702,-0.045802,10.383789,-0.581396,-0.313428,0.608911,-0.005981,0.087329,-0.110059,0.033496,0.60293,goodbye
1616136673.1452656,1,8.0,3.0,-3.0,-12.0,-9.0,0.69342,-0.034119,-0.719727,0.005981,-0.015267,0.068702,-0.10687,11.032178,-0.756055,-0.244043,1.253711,-0.206958,0.130396,-0.183032,-0.129199,1.2573,goodbye
1616136673.155175,1,9.0,9.0,5.0,-4.0,-7.0,0.694092,-0.032715,-0.719116,0.004822,0.007634,0.022901,-0.145038,12.395947,-1.021631,0.105273,2.615088,-0.508423,0.461768,-0.57063,-0.34812,2.618677,goodbye
1616136673.1652117,1,11.0,13.0,19.0,12.0,-6.0,0.695007,-0.030762,-0.718323,0.003357,0.022901,0.007634,-0.175573,13.982226,-1.008472,0.806299,4.198975,-0.541919,1.137671,-1.291992,-0.291895,4.178638,goodbye
1616136673.1752825,1,12.0,22.0,30.0,23.0,5.0,0.696472,-0.027527,-0.717041,0.002625,0.145038,0.045802,-0.183206,14.970362,-1.471436,0.989331,5.18352,-1.058716,1.281226,-1.464258,-0.788355,5.182324,goodbye
1616136673.185209,1,10.0,28.0,31.0,29.0,7.0,0.698547,-0.021606,-0.71521,0.007019,0.59542,0.175573,-0.175573,13.26206,-2.436841,0.498853,3.471631,-2.042065,0.733325,-0.855347,-1.882959,3.531445,goodbye
1616136673.195292,1,21.0,31.0,38.0,35.0,14.0,0.700378,-0.011414,-0.71344,0.016541,0.900763,0.129771,-0.137405,8.167066,-2.618677,0.366064,-1.622168,-2.229883,0.545508,-0.498853,-2.295679,-1.542017,goodbye
1616136673.2053297,1,12.0,35.0,44.0,41.0,24.0,0.699097,-0.002563,-0.7146,0.023682,0.625954,-0.167939,-0.137405,3.172559,-1.799219,-1.335059,-6.617871,-1.431958,-1.125708,1.314722,-1.638916,-6.532935,goodbye
1616136673.2153506,1,9.0,37.0,48.0,45.0,26.0,0.690491,0.0047,-0.722778,0.027954,0.458015,-0.717557,-0.053435,1.092212,-0.535937,-2.234668,-8.69104,-0.203369,-1.794434,2.202368,-0.394775,-8.589355,goodbye
1616136673.225137,1,13.0,40.0,52.0,54.0,28.0,0.67865,0.009888,-0.733826,0.029602,0.221374,-0.954198,-0.099237,3.651074,0.31582,-2.365063,-6.11543,0.608911,-1.607813,2.048047,0.541919,-5.988623,goodbye
1616136673.2352777,1,15.0,39.0,50.0,54.0,31.0,0.672241,0.014038,-0.739746,0.027161,0.015267,-0.419847,-0.251908,7.881152,0.781177,-1.476221,-1.872192,0.989331,-0.546704,0.665137,0.989331,-1.832715,goodbye
1616136673.2450542,1,16.0,44.0,56.0,55.0,32.0,0.674561,0.017883,-0.737671,0.021851,-0.10687,0.312977,-0.389313,10.871875,0.729736,-1.52168,1.110156,0.808691,-0.649585,0.501245,0.846973,1.156811,goodbye
1616136673.2550714,1,16.0,43.0,56.0,56.0,33.0,0.682251,0.02179,-0.730591,0.015442,-0.137405,0.732824,-0.496183,11.477198,0.474927,-1.510913,1.699927,0.404346,-0.838599,0.697437,0.428271,1.756152,goodbye
1616136673.265159,1,13.0,43.0,56.0,57.0,37.0,0.691345,0.026611,-0.721985,0.009094,-0.076336,0.778626,-0.541985,9.978247,-0.019141,-1.67002,0.19021,-0.250024,-1.239355,1.240552,-0.192603,0.238062,goodbye
1616136673.2751834,1,15.0,42.0,59.0,57.0,28.0,0.697693,0.031738,-0.715698,0.004456,0.022901,0.51145,-0.473282,8.159887,-0.406738,-1.674805,-1.629346,-0.777588,-1.41521,1.491772,-0.640015,-1.618579,goodbye
1616136673.2852485,1,12.0,40.0,57.0,56.0,33.0,0.700317,0.036377,-0.712891,0.001587,0.076336,0.175573,-0.343511,7.044946,-0.41272,-1.418799,-2.740698,-0.888843,-1.230981,1.321899,-0.684277,-2.75625,goodbye
1616136673.2951798,1,13.0,43.0,59.0,57.0,36.0,0.699707,0.039734,-0.713318,-0.000122,0.061069,-0.122137,-0.19084,6.599927,-0.090918,-1.028809,-3.182129,-0.636426,-0.824243,0.913965,-0.406738,-3.194092,goodbye
1616136673.305343,1,15.0,43.0,58.0,57.0,35.0,0.696716,0.041443,-0.716125,-0.00116,0.022901,-0.312977,-0.076336,6.901392,0.197388,-0.637622,-2.875879,-0.384009,-0.351709,0.446216,-0.186621,-2.88186,goodbye
1616136673.3145325,1,15.0,42.0,57.0,57.0,36.0,0.692627,0.041809,-0.720093,-0.001465,0.015267,-0.389313,0.0,7.408618,0.267969,-0.404346,-2.365063,-0.319409,-0.005981,0.111255,-0.169873,-2.377026,goodbye
1616136673.3244534,1,16.0,43.0,57.0,57.0,35.0,0.687927,0.041687,-0.724548,-0.000793,0.045802,-0.427481,0.045802,7.847656,0.259595,-0.331372,-1.920044,-0.313428,0.191406,-0.075366,-0.204565,-1.941577,goodbye
1616136673.3344684,1,16.0,43.0,56.0,58.0,37.0,0.6828,0.041626,-0.72937,0.000793,0.083969,-0.450382,0.083969,8.224487,0.354102,-0.395972,-1.537231,-0.191406,0.26438,-0.151929,-0.113647,-1.558765,goodbye
1616136673.3443408,1,16.0,43.0,57.0,57.0,35.0,0.677429,0.041687,-0.734436,0.002625,0.091603,-0.458015,0.099237,8.478101,0.702222,-0.565845,-1.275244,0.185425,0.239258,-0.149536,0.242847,-1.278833,goodbye
1616136673.3545558,1,11.0,41.0,54.0,57.0,32.0,0.671631,0.041748,-0.739685,0.003479,0.038168,-0.48855,0.083969,8.425464,1.319507,-0.900806,-1.313525,0.819458,0.056226,0.013159,0.887646,-1.268066,goodbye
1616136673.364409,1,12.0,40.0,53.0,54.0,28.0,0.665283,0.041504,-0.745422,0.002686,-0.053435,-0.503817,0.061069,8.5427,1.977466,-1.214233,-1.178345,1.475024,-0.088525,0.122021,1.543213,-1.082642,goodbye
1616136673.3743603,1,11.0,32.0,49.0,48.0,26.0,0.659607,0.040039,-0.750549,-6.1e-05,-0.206107,-0.458015,0.053435,8.760425,2.479907,-1.263281,-0.942676,1.960718,0.008374,-0.005981,2.009766,-0.830225,goodbye
1616136673.3844218,1,9.0,27.0,41.0,40.0,17.0,0.655334,0.036865,-0.754456,-0.004211,-0.335878,-0.351145,0.053435,9.10376,2.442822,-1.241748,-0.583789,1.906885,0.139966,-0.153125,1.930811,-0.491675,goodbye
1616136673.395119,1,13.0,26.0,32.0,30.0,6.0,0.65271,0.032532,-0.756897,-0.007996,-0.343511,-0.206107,0.068702,9.741382,1.843481,-1.306348,0.063403,1.307544,0.142358,-0.19978,1.295581,0.112451,goodbye
1616136673.404218,1,11.0,20.0,24.0,21.0,-1.0,0.652466,0.028137,-0.757263,-0.01001,-0.259542,0.015267,0.099237,10.857519,1.128101,-1.402051,1.178345,0.619678,0.05144,-0.24165,0.551489,1.187915,goodbye
1616136673.4145772,1,9.0,9.0,10.0,2.0,-11.0,0.654541,0.024597,-0.755554,-0.010376,-0.145038,0.19084,0.10687,11.830103,0.502441,-1.472632,2.141357,0.0323,-0.071777,-0.233276,-0.07417,2.128198,goodbye
1616136673.424511,1,9.0,5.0,-1.0,-13.0,-12.0,0.65802,0.021362,-0.752625,-0.009277,-0.083969,0.274809,0.160305,12.334936,0.165088,-1.302759,2.631836,-0.246436,0.008374,-0.352905,-0.362476,2.593555,goodbye
1616136673.4345355,1,9.0,8.0,-3.0,-16.0,-16.0,0.661499,0.018066,-0.749695,-0.00769,-0.068702,0.229008,0.19084,12.130371,0.011963,-0.930713,2.412915,-0.334961,0.290698,-0.581396,-0.427075,2.34353,goodbye
1616136673.4444957,1,11.0,5.0,-3.0,-7.0,-7.0,0.663086,0.015137,-0.748352,-0.006348,-0.068702,0.007634,0.152672,12.180615,-0.128003,-0.238062,2.455981,-0.417505,0.942676,-1.223804,-0.502441,2.310034,goodbye
1616136673.4545977,1,8.0,20.0,6.0,-2.0,-3.0,0.662598,0.013672,-0.74884,-0.005371,0.007634,-0.206107,0.038168,13.274023,-0.624463,0.687866,3.54939,-0.880469,1.881763,-2.287305,-0.996509,3.268262,goodbye
1616136673.464433,1,12.0,26.0,18.0,12.0,5.0,0.660828,0.015991,-0.750366,-0.002502,0.312977,-0.29771,-0.122137,14.714355,-1.515698,1.845874,4.995703,-1.758545,3.086426,-3.654663,-1.947559,4.518384,goodbye
1616136673.4744864,1,16.0,29.0,28.0,25.0,15.0,0.663147,0.023254,-0.748108,0.004211,0.70229,0.183206,-0.221374,14.703588,-3.198877,1.778882,4.977759,-3.439331,2.958423,-3.389087,-3.690552,4.499243,goodbye
1616136673.484393,1,16.0,39.0,41.0,35.0,25.0,0.668396,0.033203,-0.742798,0.020203,1.244275,0.610687,0.068702,10.863501,-4.007568,-1.296777,1.11853,-4.147534,-0.260791,0.458179,-4.140357,1.079053,goodbye
1616136673.494465,1,13.0,43.0,52.0,44.0,31.0,0.666199,0.042236,-0.743408,0.041443,1.328244,0.022901,0.549618,4.093701,-1.282422,-3.712085,-5.646484,-1.229785,-2.643799,3.36875,-0.866113,-5.317505,goodbye
1616136673.50449,1,19.0,43.0,56.0,57.0,39.0,0.653748,0.048096,-0.753296,0.053101,0.610687,-1.038168,0.549618,0.705811,3.619971,-2.981152,-8.996094,3.787451,-1.612598,2.306445,4.005176,-8.746069,goodbye
1616136673.5145109,1,16.0,49.0,63.0,58.0,40.0,0.639648,0.050537,-0.765381,0.049683,-0.175573,-1.183206,0.10687,4.865308,5.081836,-1.825537,-4.779175,5.193091,-0.093311,0.202173,5.219409,-4.745679,goodbye
1616136673.5245287,1,17.0,49.0,61.0,58.0,42.0,0.633972,0.047974,-0.770569,0.044617,-0.343511,-0.343511,0.007634,8.772388,3.070874,-2.130591,-0.843384,3.147437,-0.246436,-0.008374,3.166577,-0.805103,goodbye
1616136673.5343485,1,18.0,48.0,62.0,60.0,42.0,0.637146,0.045044,-0.76825,0.043213,-0.152672,0.412214,-0.038168,11.155396,1.48938,-2.557666,1.522876,1.576709,-0.750073,0.25481,1.635327,1.619775,goodbye
1616136673.544442,1,13.0,48.0,62.0,59.0,44.0,0.645508,0.04657,-0.76123,0.040955,-0.045802,0.740458,-0.335878,10.703198,0.979761,-2.679688,1.033594,1.001294,-1.079053,0.764429,1.106567,1.1927,goodbye
1616136673.5544548,1,17.0,49.0,63.0,60.0,42.0,0.654419,0.052673,-0.753479,0.035583,-0.015267,0.732824,-0.641221,9.578687,0.061011,-2.799316,-0.122021,-0.088525,-1.417603,1.419995,0.089722,0.076563,goodbye
1616136673.564476,1,17.0,49.0,63.0,61.0,42.0,0.66217,0.060547,-0.746277,0.030029,0.053435,0.656489,-0.748092,9.07146,-0.81228,-2.871094,-0.649585,-1.158008,-1.681982,1.881763,-0.903198,-0.480908,goodbye
1616136673.5744464,1,17.0,48.0,62.0,64.0,45.0,0.669006,0.069458,-0.739624,0.024353,0.068702,0.580153,-0.778626,8.38479,-1.217822,-2.861523,-1.345825,-1.775293,-1.844678,2.186816,-1.423584,-1.245337,goodbye
1616136673.584546,1,17.0,47.0,63.0,62.0,42.0,0.673889,0.078003,-0.734497,0.018188,0.038168,0.389313,-0.732824,7.312915,-1.559961,-2.70481,-2.415308,-2.327979,-1.811182,2.302856,-1.841089,-2.415308,goodbye
1616136673.5944092,1,16.0,48.0,63.0,63.0,42.0,0.675171,0.084106,-0.732727,0.013489,0.022901,0.038168,-0.503817,5.762525,-1.966699,-2.428467,-3.956128,-2.885449,-1.565942,2.246631,-2.219116,-4.05542,goodbye
1616136673.6043775,1,15.0,49.0,63.0,58.0,42.0,0.670898,0.086975,-0.736328,0.011414,0.038168,-0.458015,-0.19084,4.163086,-2.034888,-2.123413,-5.537622,-3.013452,-1.147241,2.031299,-2.189209,-5.668017,goodbye
1616136673.6144657,1,17.0,48.0,62.0,61.0,42.0,0.660583,0.086853,-0.745605,0.01123,0.015267,-0.954198,0.068702,3.51709,-1.746582,-2.033691,-6.154907,-2.706006,-0.788355,1.855444,-1.854248,-6.239844,goodbye
1616136673.6242082,1,16.0,46.0,58.0,57.0,42.0,0.645813,0.084351,-0.758728,0.011719,-0.030534,-1.244275,0.236641,4.512403,-1.216626,-2.252612,-5.110547,-2.109058,-0.629248,1.691553,-1.421191,-5.105762,goodbye
1616136673.6345224,1,12.0,43.0,57.0,57.0,39.0,0.630371,0.079956,-0.772095,0.012268,-0.10687,-1.206107,0.328244,6.944458,-0.346924,-2.465552,-2.613892,-1.148438,-0.455786,1.105371,-0.795532,-2.549292,goodbye
1616136673.6443512,1,14.0,41.0,48.0,64.0,33.0,0.619141,0.074036,-0.781677,0.011841,-0.229008,-0.832061,0.374046,9.656446,0.815869,-2.308838,0.153125,0.098096,-0.025122,-0.021533,0.08374,0.161499,goodbye
1616136673.6544998,1,15.0,35.0,44.0,44.0,29.0,0.614746,0.066895,-0.785828,0.009888,-0.366412,-0.312977,0.374046,11.254687,1.959522,-2.149731,1.7729,1.305151,0.240454,-0.801514,1.104175,1.742993,goodbye
1616136673.664313,1,11.0,29.0,32.0,34.0,21.0,0.615784,0.059448,-0.785645,0.006592,-0.435115,0.099237,0.312977,11.515478,2.64021,-2.104272,2.025317,2.024121,0.261987,-0.933105,1.81477,2.024121,goodbye
1616136673.674254,1,11.0,23.0,24.0,19.0,8.0,0.620178,0.052429,-0.782715,0.003235,-0.435115,0.351145,0.259542,11.077637,2.53374,-2.255005,1.559961,1.945166,0.005981,-0.523975,1.811182,1.629346,goodbye
1616136673.68425,1,10.0,14.0,15.0,8.0,-6.0,0.625183,0.045349,-0.779175,0.000671,-0.412214,0.396947,0.259542,10.388575,2.238257,-2.628247,0.839795,1.692749,-0.488086,0.173462,1.654468,1.018042,goodbye
1616136673.6943517,1,9.0,10.0,4.0,-7.0,-11.0,0.628784,0.03894,-0.776611,-0.001038,-0.328244,0.274809,0.236641,9.866992,1.644897,-2.692847,0.29668,1.148438,-0.641211,0.49646,1.156811,0.480908,goodbye
1616136673.7043374,1,9.0,5.0,-2.0,-14.0,-16.0,0.631226,0.033264,-0.774902,-0.001282,-0.221374,0.152672,0.236641,9.686353,0.986938,-2.29209,0.099292,0.555078,-0.300269,0.245239,0.559863,0.181836,goodbye
1616136673.714257,1,9.0,7.0,-6.0,-17.0,-17.0,0.632385,0.028198,-0.77417,0.000244,-0.114504,0.015267,0.29771,9.798803,0.80271,-1.520483,0.202173,0.455786,0.441431,-0.491675,0.429468,0.12561,goodbye
1616136673.7243185,1,10.0,5.0,-13.0,-20.0,-24.0,0.632996,0.023071,-0.773804,0.002441,-0.091603,-0.045802,0.358779,10.235449,0.898413,-0.910376,0.632837,0.648389,1.035986,-1.163989,0.592163,0.430664,goodbye
1616136673.7344608,1,8.0,-1.0,-16.0,-22.0,-24.0,0.633118,0.017334,-0.773865,0.004395,-0.145038,-0.068702,0.374046,10.532129,0.99292,-0.659155,0.927124,0.843384,1.283618,-1.467847,0.785962,0.666333,goodbye
1616136673.744495,1,9.0,-1.0,-14.0,-21.0,-16.0,0.632874,0.011597,-0.774109,0.005371,-0.19084,-0.068702,0.320611,10.601514,0.954639,-0.763232,0.997705,0.891235,1.184326,-1.379321,0.851758,0.747681,goodbye
1616136673.7544785,1,9.0,-3.0,-17.0,-21.0,-24.0,0.632629,0.00647,-0.774414,0.005737,-0.183206,-0.038168,0.251908,10.571607,0.599341,-0.986938,0.967798,0.605322,0.967798,-1.15083,0.584985,0.753662,goodbye
1616136673.7642322,1,9.0,-3.0,-16.0,-19.0,-23.0,0.63269,0.00238,-0.774414,0.006714,-0.099237,0.007634,0.19084,10.423266,0.0,-1.317114,0.819458,0.071777,0.636426,-0.787158,0.066992,0.674707,goodbye
1616136673.7742312,1,11.0,-3.0,-16.0,-22.0,-43.0,0.632935,-0.000122,-0.77417,0.008545,0.0,0.030534,0.137405,10.121801,-0.417505,-1.634131,0.516797,-0.285913,0.312231,-0.405542,-0.283521,0.447412,goodbye
1616136673.784381,1,9.0,-1.0,-19.0,-21.0,-24.0,0.633057,-0.001282,-0.774048,0.010559,0.053435,0.022901,0.091603,9.698316,-0.522778,-1.908081,0.093311,-0.345728,0.034692,-0.047852,-0.344531,0.089722,goodbye
1616136673.7943723,1,8.0,1.0,-14.0,-20.0,-23.0,0.63269,-0.001587,-0.774353,0.012024,0.053435,-0.015267,0.053435,9.279614,-0.440234,-2.104272,-0.321802,-0.238062,-0.151929,0.215332,-0.240454,-0.279932,goodbye
1616136673.8043575,1,11.0,-1.0,-18.0,-20.0,-16.0,0.631897,-0.001648,-0.774963,0.012634,0.015267,-0.053435,0.022901,9.057104,-0.344531,-2.155713,-0.539526,-0.131592,-0.184229,0.290698,-0.137573,-0.488086,goodbye
1616136673.8143072,1,7.0,-2.0,-18.0,-16.0,-23.0,0.63092,-0.001892,-0.775757,0.012512,-0.030534,-0.076336,0.0,9.064282,-0.326587,-2.140161,-0.527563,-0.112451,-0.144751,0.250024,-0.119629,-0.483301,goodbye
1616136673.824463,1,8.0,-1.0,-18.0,-20.0,-15.0,0.630005,-0.00238,-0.776489,0.012146,-0.045802,-0.068702,0.0,9.194677,-0.398364,-2.13418,-0.392383,-0.183032,-0.11604,0.196191,-0.187817,-0.355298,goodbye
1616136673.834436,1,8.0,0.0,-18.0,-14.0,-16.0,0.629456,-0.00293,-0.776978,0.01178,-0.045802,-0.045802,0.0,9.358569,-0.50603,-2.132983,-0.226099,-0.289502,-0.100488,0.147144,-0.291895,-0.193799,goodbye
1616136673.8442297,1,11.0,1.0,-17.0,30.0,-15.0,0.629211,-0.003479,-0.777161,0.011658,-0.030534,-0.007634,0.0,9.479395,-0.600537,-2.152124,-0.104077,-0.379224,-0.113647,0.135181,-0.379224,-0.069385,goodbye
1616136673.854358,1,9.0,1.0,-17.0,-15.0,-15.0,0.629456,-0.003906,-0.776978,0.011658,-0.022901,0.030534,0.0,9.505713,-0.641211,-2.182031,-0.078955,-0.415112,-0.149536,0.165088,-0.413916,-0.035889,goodbye
1616136673.864321,1,9.0,1.0,-19.0,-15.0,-15.0,0.630066,-0.004211,-0.776428,0.011719,-0.015267,0.061069,0.0,9.38728,-0.683081,-2.257397,-0.19978,-0.452197,-0.240454,0.279932,-0.452197,-0.135181,goodbye
1616136673.8745725,1,11.0,0.0,-20.0,-11.0,-13.0,0.630798,-0.004333,-0.775879,0.011841,0.0,0.076336,-0.007634,9.148023,-0.679492,-2.363867,-0.442627,-0.44502,-0.364868,0.451001,-0.448608,-0.34812,goodbye
1616136673.884287,1,9.0,0.0,-13.0,-20.0,-23.0,0.631409,-0.004456,-0.775391,0.011902,-0.007634,0.061069,-0.007634,8.925512,-0.598145,-2.403345,-0.668726,-0.361279,-0.418701,0.5479,-0.369653,-0.56106,goodbye
1616136673.894321,1,11.0,1.0,-20.0,-14.0,-13.0,0.631775,-0.004578,-0.775024,0.011719,-0.022901,0.038168,-0.007634,8.817846,-0.476123,-2.353101,-0.777588,-0.240454,-0.379224,0.529956,-0.252417,-0.678296,goodbye
1616136673.9043028,1,11.0,1.0,-20.0,-14.0,-13.0,0.632019,-0.004761,-0.774841,0.011353,-0.030534,0.022901,-0.007634,8.828613,-0.399561,-2.270557,-0.768018,-0.16748,-0.301465,0.449805,-0.179443,-0.68667,goodbye
1616136673.9142542,1,9.0,1.0,-18.0,-20.0,-16.0,0.632202,-0.005005,-0.774719,0.011047,-0.022901,0.015267,-0.007634,8.924316,-0.381616,-2.197583,-0.673511,-0.150732,-0.233276,0.363672,-0.162695,-0.608911,goodbye
1616136673.9244356,1,9.0,1.0,-18.0,-16.0,-12.0,0.632568,-0.005127,-0.774414,0.010864,-0.015267,0.030534,-0.007634,9.069067,-0.363672,-2.124609,-0.531152,-0.135181,-0.168677,0.271558,-0.144751,-0.483301,goodbye
1616136673.934394,1,9.0,5.0,-16.0,-16.0,-15.0,0.633118,-0.005066,-0.773987,0.010681,-0.007634,0.045802,-0.015267,9.204248,-0.334961,-2.06001,-0.398364,-0.110059,-0.117236,0.193799,-0.117236,-0.363672,goodbye
1616136673.944288,1,9.0,3.0,-20.0,-17.0,-11.0,0.633972,-0.004944,-0.773254,0.010559,-0.007634,0.068702,-0.015267,9.327466,-0.289502,-1.998999,-0.278735,-0.066992,-0.078955,0.131592,-0.071777,-0.256006,goodbye
1616136673.9542298,1,8.0,4.0,-18.0,-16.0,-12.0,0.635071,-0.004761,-0.7724,0.010376,-0.007634,0.083969,-0.015267,9.398046,-0.236865,-1.948755,-0.215332,-0.020337,-0.055029,0.095703,-0.023926,-0.19978,goodbye
1616136673.9643085,1,10.0,3.0,-19.0,-14.0,-13.0,0.63623,-0.0047,-0.771423,0.010193,-0.007634,0.091603,-0.015267,9.393262,-0.206958,-1.908081,-0.224902,0.004785,-0.043066,0.084937,0.0,-0.211743,goodbye
1616136673.974431,1,6.0,0.0,-19.0,-17.0,-13.0,0.637329,-0.0047,-0.770508,0.010071,-0.007634,0.083969,-0.007634,9.323877,-0.189014,-1.870996,-0.299072,0.021533,-0.033496,0.088525,0.015552,-0.287109,goodbye
1616136673.9842508,1,11.0,3.0,-20.0,-13.0,-13.0,0.638306,-0.004761,-0.769714,0.009888,-0.015267,0.068702,0.0,9.235352,-0.161499,-1.831519,-0.392383,0.046655,-0.017944,0.089722,0.038281,-0.382812,goodbye
1616136673.9943204,1,9.0,4.0,-17.0,-16.0,-9.0,0.638977,-0.004883,-0.769165,0.009705,-0.015267,0.045802,0.0,9.167163,-0.137573,-1.784863,-0.46416,0.069385,0.010767,0.07417,0.059814,-0.459375,goodbye
1616136674.0041082,1,11.0,5.0,-16.0,-16.0,-11.0,0.639465,-0.005127,-0.768738,0.00946,-0.022901,0.030534,0.0,9.127686,-0.145947,-1.729834,-0.50603,0.059814,0.052637,0.039478,0.049048,-0.507227,goodbye
1616136674.014361,1,12.0,1.0,-15.0,-14.0,-11.0,0.639709,-0.005371,-0.768555,0.009155,-0.030534,0.007634,0.0,9.134863,-0.179443,-1.687964,-0.500049,0.025122,0.088525,0.003589,0.014355,-0.507227,goodbye
1616136674.0243697,1,9.0,3.0,-17.0,-12.0,-7.0,0.639771,-0.005676,-0.768494,0.008911,-0.030534,0.0,0.0,9.169556,-0.230884,-1.658057,-0.465356,-0.025122,0.117236,-0.029907,-0.034692,-0.477319,goodbye
1616136674.0342348,1,7.0,5.0,-17.0,-13.0,-12.0,0.639832,-0.00592,-0.768433,0.008728,-0.022901,-0.007634,-0.007634,9.247314,-0.27395,-1.629346,-0.387598,-0.068188,0.144751,-0.071777,-0.076563,-0.405542,goodbye
1616136674.0442257,1,9.0,5.0,-16.0,-12.0,-11.0,0.639954,-0.005981,-0.768372,0.008606,-0.015267,0.0,-0.007634,9.33584,-0.313428,-1.611401,-0.300269,-0.107666,0.160303,-0.102881,-0.113647,-0.321802,goodbye
1616136674.0543566,1,9.0,-7.0,-15.0,-9.0,-9.0,0.640076,-0.005981,-0.76825,0.008606,0.0,0.007634,-0.015267,9.396851,-0.346924,-1.617383,-0.239258,-0.141162,0.150732,-0.104077,-0.145947,-0.258398,goodbye
1616136674.0642936,1,7.0,7.0,-16.0,-7.0,-10.0,0.64032,-0.005737,-0.768066,0.008606,0.007634,0.015267,-0.015267,9.41958,-0.350513,-1.64729,-0.217725,-0.14834,0.114844,-0.072974,-0.153125,-0.230884,goodbye
1616136674.074388,1,8.0,5.0,-17.0,-14.0,-11.0,0.640564,-0.005493,-0.767883,0.008667,0.007634,0.015267,-0.015267,9.426758,-0.319409,-1.692749,-0.212939,-0.119629,0.063403,-0.022729,-0.123218,-0.217725,goodbye
1616136674.0840938,1,8.0,1.0,-15.0,-12.0,-8.0,0.640747,-0.005188,-0.7677,0.008606,0.007634,0.015267,-0.015267,9.429151,-0.283521,-1.742993,-0.210547,-0.088525,0.008374,0.028711,-0.092114,-0.205762,goodbye
1616136674.094066,1,11.0,7.0,-16.0,-12.0,-12.0,0.64093,-0.004944,-0.767517,0.008545,0.0,0.015267,-0.015267,9.407618,-0.251221,-1.780078,-0.233276,-0.059814,-0.0323,0.072974,-0.063403,-0.22251,goodbye
1616136674.1043828,1,6.0,3.0,-18.0,-10.0,-10.0,0.641052,-0.004822,-0.767456,0.008423,-0.007634,0.007634,-0.015267,9.339429,-0.197388,-1.823145,-0.301465,-0.00957,-0.077759,0.129199,-0.014355,-0.282324,goodbye
1616136674.1142595,1,8.0,1.0,-16.0,-13.0,-12.0,0.640991,-0.0047,-0.767456,0.008118,-0.015267,-0.007634,-0.015267,9.267652,-0.16748,-1.84707,-0.373242,0.013159,-0.101685,0.166284,0.007178,-0.349316,goodbye
1616136674.1242633,1,11.0,3.0,-15.0,-12.0,-9.0,0.640869,-0.0047,-0.767639,0.007812,-0.015267,-0.015267,-0.015267,9.247314,-0.166284,-1.857837,-0.393579,0.00957,-0.107666,0.175854,0.002393,-0.367261,goodbye
1616136674.1343615,1,10.0,3.0,-16.0,-13.0,-13.0,0.640625,-0.004761,-0.767822,0.007568,-0.015267,-0.015267,-0.015267,9.29038,-0.183032,-1.84707,-0.349316,-0.008374,-0.090918,0.151929,-0.013159,-0.326587,goodbye
1616136674.1443405,1,8.0,4.0,-13.0,-10.0,-9.0,0.640503,-0.004822,-0.767883,0.007385,-0.015267,-0.015267,-0.007634,9.343018,-0.187817,-1.825537,-0.295483,-0.015552,-0.066992,0.118433,-0.019141,-0.277539,goodbye
1616136674.1542106,1,11.0,0.0,-16.0,-10.0,-11.0,0.640503,-0.004822,-0.767944,0.007202,-0.015267,0.0,-0.007634,9.38728,-0.193799,-1.821948,-0.252417,-0.023926,-0.062207,0.10647,-0.027515,-0.235669,goodbye
1616136674.1641405,1,11.0,5.0,-14.0,-14.0,-10.0,0.640564,-0.004883,-0.767883,0.00708,-0.015267,0.007634,-0.007634,9.402832,-0.194995,-1.830322,-0.236865,-0.026318,-0.072974,0.113647,-0.028711,-0.218921,goodbye
1616136674.174246,1,8.0,1.0,-14.0,-11.0,-13.0,0.640747,-0.004944,-0.7677,0.006958,-0.007634,0.015267,-0.007634,9.406421,-0.206958,-1.84707,-0.233276,-0.039478,-0.094507,0.133984,-0.04187,-0.211743,goodbye
1616136678.139179,1,6.0,-7.0,-19.0,-16.0,-8.0,0.697571,-0.005371,-0.716187,0.020569,0.0,0.0,0.0,9.484179,-0.33855,-0.26438,-0.305054,0.022729,-0.00957,0.016748,0.010767,-0.305054,goodbye
1616136678.149132,1,7.0,-8.0,-21.0,-18.0,-7.0,0.697571,-0.005371,-0.716187,0.02063,0.0,0.0,0.0,9.463842,-0.339746,-0.270361,-0.325391,0.022729,-0.015552,0.022729,0.010767,-0.325391,goodbye
1616136678.1585906,1,9.0,-7.0,-20.0,-16.0,-12.0,0.69751,-0.005432,-0.716248,0.020691,0.0,-0.007634,0.0,9.447095,-0.350513,-0.275146,-0.342139,0.013159,-0.019141,0.027515,0.0,-0.340942,goodbye
1616136678.169117,1,7.0,-8.0,-22.0,-17.0,-8.0,0.697449,-0.005554,-0.716309,0.020752,-0.007634,-0.007634,0.0,9.453076,-0.35769,-0.26438,-0.336157,0.00957,-0.005981,0.014355,-0.002393,-0.334961,goodbye
1616136678.1791475,1,7.0,-8.0,-20.0,-13.0,-12.0,0.697449,-0.005676,-0.716309,0.020813,-0.007634,-0.007634,0.0,9.469824,-0.392383,-0.259595,-0.319409,-0.021533,-0.001196,0.00957,-0.0323,-0.318213,goodbye
1616136678.1893015,1,10.0,-7.0,-22.0,-14.0,-7.0,0.697449,-0.005798,-0.716309,0.020874,-0.007634,0.0,0.0,9.466235,-0.41272,-0.261987,-0.322998,-0.039478,-0.003589,0.011963,-0.05144,-0.320605,goodbye
1616136678.1991546,1,8.0,-7.0,-22.0,-13.0,-8.0,0.69751,-0.00592,-0.716248,0.020935,-0.007634,0.0,0.0,9.450684,-0.417505,-0.25481,-0.33855,-0.04187,0.0,0.00957,-0.053833,-0.336157,goodbye
1616136678.2084196,1,8.0,-8.0,-22.0,-12.0,-7.0,0.69751,-0.006104,-0.716248,0.020935,-0.007634,0.0,0.0,9.45188,-0.43186,-0.239258,-0.337354,-0.053833,0.015552,-0.004785,-0.065796,-0.334961,goodbye
1616136678.2192996,1,7.0,0.0,-20.0,-9.0,-6.0,0.69751,-0.006226,-0.716248,0.020935,-0.007634,0.0,0.0,9.461451,-0.44502,-0.235669,-0.327783,-0.065796,0.019141,-0.008374,-0.077759,-0.324194,goodbye
1616136678.22919,1,7.0,-6.0,-21.0,-13.0,-9.0,0.697571,-0.006348,-0.716187,0.020996,-0.007634,0.0,0.0,9.460254,-0.449805,-0.233276,-0.328979,-0.068188,0.020337,-0.00957,-0.080151,-0.325391,goodbye
1616136678.2393322,1,4.0,-9.0,-22.0,-14.0,-7.0,0.697632,-0.006409,-0.716125,0.021057,-0.007634,0.0,0.0,9.443506,-0.442627,-0.239258,-0.345728,-0.058618,0.011963,-0.001196,-0.071777,-0.343335,goodbye
1616136678.248535,1,7.0,-7.0,-19.0,-12.0,-6.0,0.697632,-0.006409,-0.716125,0.021057,0.0,0.0,0.0,9.418384,-0.430664,-0.251221,-0.37085,-0.046655,0.0,0.010767,-0.059814,-0.368457,goodbye
1616136678.2585633,1,8.0,-8.0,-20.0,-12.0,-9.0,0.697632,-0.00647,-0.716125,0.021118,-0.007634,-0.007634,0.0,9.404028,-0.409131,-0.248828,-0.385205,-0.023926,0.002393,0.007178,-0.038281,-0.382812,goodbye
1616136678.269147,1,7.0,-8.0,-20.0,-12.0,-7.0,0.697571,-0.00647,-0.716187,0.021118,-0.007634,-0.007634,0.0,9.405225,-0.393579,-0.236865,-0.384009,-0.008374,0.016748,-0.005981,-0.022729,-0.382812,goodbye
1616136678.2792864,1,6.0,-7.0,-20.0,-18.0,-7.0,0.69751,-0.006592,-0.716248,0.021118,-0.007634,-0.015267,0.0,9.412402,-0.373242,-0.217725,-0.375635,0.013159,0.037085,-0.026318,-0.001196,-0.375635,goodbye
1616136678.2891526,1,5.0,-6.0,-20.0,-13.0,-8.0,0.697388,-0.006653,-0.716309,0.021057,-0.007634,-0.015267,0.0,9.421972,-0.368457,-0.210547,-0.366064,0.017944,0.046655,-0.035889,0.002393,-0.367261,goodbye
1616136678.2987416,1,7.0,-7.0,-19.0,-16.0,-8.0,0.697327,-0.006714,-0.716431,0.021057,-0.007634,-0.015267,0.0,9.432739,-0.38042,-0.200977,-0.355298,0.005981,0.058618,-0.047852,-0.008374,-0.356494,goodbye
1616136678.3091123,1,7.0,-7.0,-23.0,-18.0,-9.0,0.697205,-0.006714,-0.716492,0.021057,-0.007634,-0.015267,0.0,9.450684,-0.38999,-0.205762,-0.337354,-0.002393,0.057422,-0.047852,-0.015552,-0.337354,goodbye
1616136678.3184953,1,7.0,-7.0,-21.0,-12.0,-8.0,0.697144,-0.006714,-0.716553,0.021057,-0.007634,-0.007634,0.0,9.468628,-0.386401,-0.210547,-0.319409,0.0,0.053833,-0.044263,-0.013159,-0.319409,goodbye
1616136678.3292034,1,9.0,-6.0,-20.0,-14.0,-6.0,0.697144,-0.006714,-0.716614,0.021057,-0.007634,-0.007634,0.0,9.480591,-0.384009,-0.226099,-0.307446,0.002393,0.039478,-0.029907,-0.00957,-0.307446,goodbye
1616136678.338602,1,7.0,-8.0,-19.0,-12.0,-6.0,0.697083,-0.006775,-0.716614,0.021118,0.0,-0.007634,0.0,9.471021,-0.388794,-0.248828,-0.317017,0.0,0.016748,-0.007178,-0.011963,-0.317017,goodbye
1616136678.348729,1,8.0,-7.0,-20.0,-12.0,-6.0,0.697021,-0.006775,-0.716675,0.021118,0.0,-0.007634,0.0,9.456665,-0.386401,-0.267969,-0.331372,0.002393,0.0,0.008374,-0.00957,-0.330176,goodbye
1616136678.3584487,1,7.0,-7.0,-22.0,-17.0,-6.0,0.696899,-0.006836,-0.716797,0.021179,-0.007634,-0.007634,0.0,9.454272,-0.374438,-0.276343,-0.333765,0.015552,-0.003589,0.011963,0.002393,-0.333765,goodbye
1616136678.3691523,1,8.0,-7.0,-20.0,-16.0,-8.0,0.696838,-0.006897,-0.716919,0.021179,-0.007634,-0.007634,0.0,9.462646,-0.381616,-0.282324,-0.325391,0.00957,-0.007178,0.015552,-0.002393,-0.324194,goodbye
1616136678.378719,1,8.0,-6.0,-20.0,-11.0,-6.0,0.696777,-0.006958,-0.71698,0.02124,-0.007634,-0.007634,0.0,9.457861,-0.391187,-0.281128,-0.330176,0.001196,-0.004785,0.013159,-0.010767,-0.328979,goodbye
1616136678.3884528,1,5.0,-7.0,-20.0,-14.0,-9.0,0.696655,-0.007019,-0.717041,0.021301,-0.007634,-0.007634,0.0,9.454272,-0.388794,-0.277539,-0.332568,0.005981,0.0,0.00957,-0.007178,-0.331372,goodbye
1616136678.3984642,1,7.0,-7.0,-19.0,-7.0,-8.0,0.696594,-0.00708,-0.717102,0.021301,-0.007634,-0.007634,0.0,9.453076,-0.387598,-0.271558,-0.333765,0.008374,0.008374,0.001196,-0.004785,-0.333765,goodbye
1616136678.4084673,1,7.0,-12.0,-22.0,-14.0,-7.0,0.696594,-0.007202,-0.717163,0.021362,-0.007634,-0.007634,0.0,9.466235,-0.409131,-0.258398,-0.321802,-0.00957,0.021533,-0.010767,-0.022729,-0.320605,goodbye
1616136678.4184644,1,5.0,-8.0,-19.0,-17.0,-8.0,0.696533,-0.007324,-0.717163,0.021484,-0.007634,-0.007634,0.007634,9.465039,-0.433057,-0.251221,-0.321802,-0.029907,0.029907,-0.019141,-0.043066,-0.320605,goodbye
1616136678.4284256,1,5.0,-8.0,-23.0,-13.0,-7.0,0.696472,-0.007446,-0.717224,0.021606,0.0,-0.007634,0.007634,9.453076,-0.439038,-0.246436,-0.333765,-0.033496,0.035889,-0.025122,-0.046655,-0.332568,goodbye
1616136678.4385502,1,7.0,-6.0,-20.0,10.0,-9.0,0.696411,-0.007507,-0.717224,0.021729,-0.007634,-0.007634,0.0,9.439917,-0.43186,-0.24165,-0.345728,-0.023926,0.04187,-0.029907,-0.038281,-0.344531,goodbye
1616136678.448462,1,8.0,-7.0,-20.0,-19.0,-7.0,0.69635,-0.007568,-0.717346,0.021729,-0.007634,-0.015267,0.0,9.438721,-0.423486,-0.233276,-0.34812,-0.014355,0.052637,-0.040674,-0.028711,-0.34812,goodbye
1616136678.458481,1,7.0,-11.0,-1.0,-17.0,-7.0,0.696289,-0.00769,-0.717407,0.021667,-0.015267,-0.007634,0.0,9.430346,-0.421094,-0.234473,-0.356494,-0.010767,0.053833,-0.04187,-0.026318,-0.356494,goodbye
1616136678.4687047,1,7.0,-9.0,-22.0,-18.0,-8.0,0.696167,-0.007874,-0.717529,0.021545,-0.015267,-0.015267,0.0,9.404028,-0.410327,-0.250024,-0.382812,0.0,0.04187,-0.029907,-0.015552,-0.382812,goodbye
1616136678.4785452,1,7.0,-6.0,-20.0,-16.0,-7.0,0.695984,-0.008118,-0.717712,0.021423,-0.015267,-0.022901,0.0,9.395655,-0.411523,-0.258398,-0.391187,0.0,0.038281,-0.025122,-0.016748,-0.391187,goodbye
1616136678.4886882,1,8.0,-6.0,-17.0,-17.0,-7.0,0.695801,-0.008301,-0.717896,0.021362,-0.015267,-0.022901,0.0,9.395655,-0.413916,-0.25481,-0.391187,0.0,0.046655,-0.033496,-0.016748,-0.391187,goodbye
1616136678.4983635,1,8.0,-8.0,-20.0,-13.0,-6.0,0.695557,-0.008484,-0.71814,0.02124,-0.015267,-0.022901,0.0,9.380102,-0.391187,-0.278735,-0.405542,0.022729,0.029907,-0.016748,0.004785,-0.406738,goodbye
1616136678.5084834,1,6.0,-8.0,-20.0,-10.0,-6.0,0.695251,-0.008667,-0.718384,0.021118,-0.015267,-0.030534,0.0,9.392065,-0.415112,-0.293091,-0.393579,0.0,0.022729,-0.00957,-0.016748,-0.393579,goodbye
1616136678.5185142,1,4.0,-6.0,-22.0,-16.0,-7.0,0.694946,-0.008789,-0.718689,0.021057,-0.015267,-0.030534,-0.007634,9.432739,-0.440234,-0.309839,-0.351709,-0.022729,0.014355,-0.001196,-0.037085,-0.350513,goodbye
1616136678.5286255,1,8.0,-6.0,-19.0,-14.0,-7.0,0.694702,-0.008789,-0.718933,0.020935,-0.007634,-0.022901,-0.015267,9.522461,-0.436646,-0.318213,-0.261987,-0.021533,0.013159,-0.003589,-0.0323,-0.260791,goodbye
1616136678.538335,1,7.0,-6.0,-19.0,-17.0,-8.0,0.694702,-0.008545,-0.718933,0.020752,0.0,0.0,-0.022901,9.753345,-0.433057,-0.294287,-0.031104,-0.023926,0.037085,-0.034692,-0.025122,-0.031104,goodbye
1616136678.548639,1,9.0,-4.0,-17.0,-12.0,-7.0,0.695129,-0.007996,-0.718567,0.02063,0.022901,0.030534,-0.045802,10.108643,-0.531152,-0.26438,0.320605,-0.131592,0.056226,-0.0646,-0.119629,0.322998,goodbye
1616136678.5582829,1,9.0,-3.0,-14.0,-8.0,-7.0,0.695557,-0.006836,-0.71814,0.020752,0.061069,0.015267,-0.068702,10.723536,-0.58977,-0.122021,0.935498,-0.203369,0.186621,-0.211743,-0.169873,0.935498,goodbye
1616136678.5683565,1,9.0,3.0,-3.0,-6.0,-7.0,0.695374,-0.004761,-0.718384,0.020569,0.076336,-0.083969,-0.122137,12.009546,-0.474927,0.410327,2.220313,-0.119629,0.724951,-0.794336,-0.057422,2.198779,goodbye
1616136678.5782712,1,10.0,13.0,0.0,9.0,0.0,0.694092,-0.001587,-0.719604,0.019531,0.091603,-0.259542,-0.198473,13.998975,-0.501245,1.403247,4.209741,-0.203369,1.752563,-1.898511,-0.124414,4.147534,goodbye
1616136678.5882983,1,10.0,21.0,17.0,21.0,7.0,0.692566,0.003113,-0.721069,0.019409,0.236641,-0.236641,-0.251908,15.483569,-1.301563,2.670117,5.694336,-1.069482,3.061304,-3.255103,-1.039575,5.590259,goodbye
1616136678.5985315,1,11.0,26.0,27.0,26.0,15.0,0.697205,0.009827,-0.716431,0.024109,0.587786,0.435115,-0.236641,14.097071,-3.25271,2.721558,4.301856,-3.048145,2.982349,-2.951245,-3.103174,4.282715,goodbye
1616136678.6083102,1,11.0,32.0,32.0,38.0,26.0,0.705566,0.017517,-0.707642,0.033813,0.816794,0.854962,-0.129771,7.633521,-3.55896,-1.185522,-2.164087,-3.331665,-1.163989,1.410425,-3.286206,-2.083935,goodbye
1616136678.6184092,1,12.0,36.0,44.0,47.0,26.0,0.703491,0.026672,-0.708801,0.044128,0.847328,-0.030534,0.10687,1.729834,-1.667627,-3.831714,-8.065381,-1.421191,-3.769507,3.962109,-1.230981,-8.003174,goodbye
1616136678.628358,1,12.0,41.0,49.0,50.0,33.0,0.694336,0.033691,-0.717102,0.050537,0.465649,-0.832061,0.145038,0.094507,1.119727,-3.000293,-9.697119,1.370947,-2.698828,2.841187,1.470239,-9.640894,goodbye
1616136678.6384172,1,13.0,40.0,50.0,57.0,39.0,0.68396,0.038391,-0.726929,0.048035,-0.030534,-0.900763,-0.10687,4.579394,2.485889,-1.320703,-5.201465,2.654565,-0.734522,0.723755,2.67251,-5.193091,goodbye
1616136678.6485262,1,13.0,41.0,52.0,57.0,39.0,0.681885,0.039246,-0.729187,0.042175,-0.274809,-0.083969,-0.206107,8.563037,2.196387,-1.106567,-1.214233,2.274146,-0.45459,0.270361,2.310034,-1.198682,goodbye
1616136678.6584127,1,15.0,41.0,53.0,57.0,39.0,0.687317,0.038391,-0.724426,0.03656,-0.29771,0.587786,-0.229008,10.978345,1.552783,-1.043164,1.191504,1.55398,-0.527563,0.29668,1.593457,1.216626,goodbye
1616136678.6682243,1,15.0,43.0,51.0,57.0,39.0,0.696899,0.03833,-0.715454,0.030945,-0.251908,0.839695,-0.320611,10.21272,0.863721,-1.152026,0.416309,0.773999,-0.890039,0.797925,0.851758,0.446216,goodbye
1616136678.6782415,1,13.0,40.0,54.0,58.0,38.0,0.704895,0.039185,-0.707764,0.026428,-0.137405,0.641221,-0.320611,8.202954,-0.295483,-1.349414,-1.594653,-0.470142,-1.300366,1.343433,-0.318213,-1.59585,goodbye
1616136678.688432,1,15.0,41.0,54.0,57.0,29.0,0.708374,0.040344,-0.704285,0.025085,0.022901,0.236641,-0.19084,6.552075,-1.09939,-1.379321,-3.245532,-1.312329,-1.425977,1.518091,-1.105371,-3.280225,goodbye
1616136678.6982472,1,13.0,42.0,57.0,57.0,42.0,0.707458,0.04187,-0.705078,0.025635,0.10687,-0.145038,-0.076336,5.837891,-1.149634,-1.107764,-3.959717,-1.375732,-1.129297,1.236963,-1.171167,-3.992017,goodbye
1616136678.7082806,1,13.0,44.0,43.0,58.0,40.0,0.70343,0.043274,-0.708923,0.026489,0.091603,-0.412214,-0.015267,5.861816,-0.884058,-0.741699,-3.934595,-1.112549,-0.653174,0.784766,-0.947461,-3.952539,goodbye
1616136678.71849,1,-7.0,43.0,54.0,60.0,42.0,0.697449,0.043945,-0.714722,0.027283,0.053435,-0.572519,0.038168,6.346313,-0.665137,-0.415112,-3.446509,-0.882861,-0.163892,0.331372,-0.775195,-3.459668,goodbye
1616136678.728335,1,12.0,43.0,56.0,58.0,38.0,0.690369,0.043457,-0.721619,0.02832,0.015267,-0.648855,0.099237,6.994702,-0.477319,-0.290698,-2.793335,-0.66394,0.151929,0.035889,-0.608911,-2.808887,goodbye
1616136678.738471,1,11.0,41.0,52.0,57.0,40.0,0.682556,0.042053,-0.729065,0.029236,-0.030534,-0.687023,0.152672,7.628736,-0.107666,-0.308643,-2.148535,-0.252417,0.343335,-0.175854,-0.239258,-2.170068,goodbye
1616136678.748286,1,16.0,42.0,50.0,57.0,35.0,0.674683,0.039917,-0.73645,0.02948,-0.083969,-0.671756,0.167939,8.100073,0.352905,-0.5802,-1.661646,0.250024,0.279932,-0.15791,0.252417,-1.676001,goodbye
1616136678.7582064,1,12.0,37.0,46.0,55.0,33.0,0.66687,0.037476,-0.743652,0.028931,-0.137405,-0.625954,0.167939,8.66831,1.00249,-0.971387,-1.071875,0.934302,0.094507,-0.065796,0.939087,-1.068286,goodbye
1616136678.768278,1,8.0,33.0,41.0,46.0,26.0,0.660339,0.034546,-0.749695,0.026794,-0.244275,-0.51145,0.145038,9.072657,1.641309,-1.107764,-0.648389,1.587476,0.131592,-0.186621,1.580298,-0.650781,goodbye
1616136678.778263,1,9.0,27.0,33.0,38.0,21.0,0.655884,0.03064,-0.753906,0.023315,-0.335878,-0.335878,0.122137,9.302343,1.885352,-1.277637,-0.403149,1.835107,0.080151,-0.163892,1.829126,-0.400757,goodbye
1616136678.7884014,1,11.0,25.0,28.0,25.0,8.0,0.653076,0.025879,-0.756592,0.019531,-0.374046,-0.206107,0.122137,9.721045,1.641309,-1.422388,0.026318,1.599438,0.00957,-0.11604,1.594653,0.031104,goodbye
1616136678.79812,1,12.0,17.0,14.0,4.0,-4.0,0.652405,0.020325,-0.757446,0.016663,-0.358779,-0.022901,0.160305,10.820435,1.082642,-1.448706,1.128101,1.069482,0.003589,-0.226099,1.05752,1.116138,goodbye
1616136678.8083863,1,8.0,8.0,-1.0,-10.0,-9.0,0.654358,0.014221,-0.75592,0.014893,-0.328244,0.19084,0.183206,12.072949,0.19978,-1.469043,2.373437,0.236865,-0.0646,-0.284717,0.234473,2.356689,goodbye
1616136678.8180888,1,5.0,5.0,-15.0,-58.0,-16.0,0.657776,0.008057,-0.752991,0.015564,-0.198473,0.274809,0.259542,12.372022,-0.598145,-1.238159,2.660547,-0.471338,0.075366,-0.416309,-0.451001,2.631836,goodbye
1616136678.8283403,1,7.0,5.0,-19.0,-25.0,-12.0,0.661255,0.002563,-0.749939,0.017944,-0.10687,0.21374,0.29771,11.912646,-1.00249,-0.681885,2.191602,-0.771606,0.540723,-0.789551,-0.742895,2.123413,goodbye
1616136678.8383083,1,7.0,10.0,-15.0,-19.0,-11.0,0.66217,-0.001892,-0.749084,0.020386,-0.076336,-0.068702,0.251908,12.391162,-0.967798,0.122021,2.668921,-0.643604,1.319507,-1.620972,-0.599341,2.507422,goodbye
1616136678.8481455,1,9.0,16.0,-7.0,-9.0,-6.0,0.660706,-0.003967,-0.750305,0.021484,-0.015267,-0.305344,0.083969,13.705884,-1.320703,1.092212,3.99082,-0.952246,2.326782,-2.792139,-0.87688,3.69773,goodbye
1616136678.858244,1,9.0,25.0,2.0,-29.0,4.0,0.658081,-0.000427,-0.752563,0.024231,0.358779,-0.381679,-0.21374,15.158178,-2.18562,2.5146,5.451489,-1.821948,3.814966,-4.451392,-1.778882,4.959815,goodbye
1616136678.868343,1,12.0,29.0,15.0,15.0,13.0,0.661987,0.009155,-0.748901,0.029236,0.70229,0.335878,-0.40458,15.612768,-3.715674,1.939185,5.890527,-3.404639,3.133081,-3.652271,-3.426172,5.568726,goodbye
1616136678.8781571,1,15.0,37.0,32.0,30.0,25.0,0.669312,0.021118,-0.741455,0.042969,1.267176,0.832061,-0.122137,11.820532,-4.70979,-1.979858,2.075562,-4.36167,-0.995313,1.159204,-4.195386,2.317212,goodbye
1616136678.888178,1,12.0,45.0,46.0,46.0,30.0,0.669983,0.031311,-0.738892,0.064209,1.40458,0.305344,0.465649,4.931104,-2.244238,-4.250415,-4.810278,-1.725049,-3.329273,3.993213,-1.442725,-4.377222,goodbye
1616136678.8983097,1,17.0,47.0,33.0,56.0,36.0,0.661194,0.037903,-0.7453,0.07666,0.648855,-0.770992,0.534351,0.687866,3.253906,-3.16897,-9.027197,3.881958,-2.052832,2.506226,3.756348,-8.963794,goodbye
1616136678.9083436,1,15.0,48.0,54.0,57.0,42.0,0.649109,0.04071,-0.756042,0.073242,-0.206107,-1.061069,0.114504,4.152319,4.782763,-2.215527,-5.524463,5.349805,-0.778784,0.771606,5.21582,-5.650073,goodbye
1616136678.9174051,1,17.0,51.0,60.0,58.0,41.0,0.643555,0.037415,-0.761536,0.0672,-0.435115,-0.312977,0.030534,8.249609,2.886646,-2.288501,-1.404443,3.416602,-0.693848,0.423486,3.438135,-1.455884,goodbye
1616136678.9282222,1,18.0,48.0,57.0,59.0,42.0,0.647705,0.032959,-0.758423,0.064819,-0.251908,0.526718,0.0,11.083618,1.256104,-2.581592,1.412817,1.800415,-1.086231,0.596948,1.982251,1.459473,goodbye
1616136678.9375458,1,15.0,49.0,59.0,60.0,43.0,0.658447,0.032654,-0.749451,0.060852,-0.183206,0.961832,-0.328244,11.221191,0.758447,-2.771802,1.509717,1.229785,-1.542017,1.159204,1.471436,1.629346,goodbye
1616136678.94825,1,16.0,50.0,61.0,58.0,44.0,0.670898,0.036621,-0.738708,0.053345,-0.175573,1.068702,-0.664122,10.514185,-0.186621,-2.983545,0.762036,0.104077,-2.061206,1.947559,0.379224,0.948657,goodbye
1616136678.9576128,1,15.0,48.0,60.0,62.0,43.0,0.683105,0.042542,-0.727661,0.045166,-0.114504,1.045802,-0.80916,9.383692,-1.300366,-3.24314,-0.395972,-1.225,-2.628247,2.77898,-0.888843,-0.220117,goodbye
1616136678.9681878,1,17.0,47.0,59.0,58.0,42.0,0.692993,0.049744,-0.718262,0.037354,-0.038168,0.824427,-0.824427,7.339233,-2.141357,-3.267066,-2.452393,-2.290894,-2.906982,3.249121,-1.867407,-2.378223,goodbye
1616136678.978171,1,17.0,51.0,58.0,58.0,42.0,0.697815,0.056641,-0.713318,0.031372,0.038168,0.328244,-0.656489,4.946655,-2.824439,-3.018237,-4.843774,-3.1594,-2.781372,3.246728,-2.609107,-4.879663,goodbye
1616136678.9881375,1,16.0,49.0,58.0,60.0,43.0,0.695862,0.061401,-0.714966,0.028809,0.10687,-0.290076,-0.343511,3.226392,-3.125903,-2.56604,-6.559253,-3.55896,-2.272949,2.865112,-2.924927,-6.639404,goodbye
1616136678.9982133,1,16.0,47.0,56.0,61.0,42.0,0.687317,0.063416,-0.723022,0.029602,0.137405,-0.832061,-0.015267,2.82085,-2.929712,-2.183228,-6.955225,-3.363965,-1.658057,2.415308,-2.759839,-6.998291,goodbye
1616136679.0081742,1,13.0,47.0,54.0,57.0,39.0,0.674194,0.062805,-0.735168,0.032104,0.091603,-1.145038,0.21374,3.793433,-2.173657,-2.014551,-5.959912,-2.540918,-1.143652,1.967896,-2.071973,-5.92522,goodbye
1616136679.0182164,1,13.0,44.0,47.0,52.0,35.0,0.659851,0.059937,-0.748169,0.034119,-0.038168,-1.160305,0.343511,5.876172,-0.947461,-1.914062,-3.838892,-1.221411,-0.671118,1.291992,-0.949854,-3.755151,goodbye
1616136679.0281205,1,12.0,40.0,41.0,42.0,24.0,0.648193,0.055054,-0.758728,0.034119,-0.221374,-0.900763,0.374046,8.400342,0.577808,-1.686768,-1.275244,0.385205,-0.143555,0.287109,0.448608,-1.228589,goodbye
1616136679.0377328,1,13.0,32.0,29.0,34.0,17.0,0.642456,0.048828,-0.764099,0.031616,-0.374046,-0.419847,0.328244,10.477099,1.813574,-1.09939,0.824243,1.671216,0.58977,-0.90918,1.565942,0.733325,goodbye
1616136679.0473616,1,10.0,26.0,17.0,19.0,10.0,0.642883,0.041687,-0.764343,0.028137,-0.465649,0.038168,0.305344,11.30852,2.306445,-0.927124,1.653271,2.202368,0.756055,-1.241748,2.071973,1.52168,goodbye
1616136679.0574653,1,8.0,17.0,4.0,-4.0,-6.0,0.64563,0.033386,-0.762573,0.02417,-0.526718,0.21374,0.290076,11.004663,2.270557,-1.068286,1.338647,2.20835,0.550293,-0.94148,2.129395,1.242944,goodbye
1616136679.0675242,1,6.0,10.0,-4.0,-14.0,-13.0,0.648254,0.024597,-0.760742,0.020325,-0.541985,0.19084,0.267176,10.259375,1.661646,-1.23457,0.582593,1.652075,0.319409,-0.512012,1.620972,0.525171,goodbye
1616136679.0775025,1,7.0,5.0,-17.0,-22.0,-16.0,0.649658,0.016602,-0.759827,0.0177,-0.419847,0.068702,0.236641,9.759326,0.818262,-1.125708,0.077759,0.869702,0.394775,-0.442627,0.848169,0.010767,goodbye
1616136679.0875926,1,8.0,0.0,-27.0,-30.0,-27.0,0.649292,0.010254,-0.760254,0.017334,-0.236641,-0.10687,0.236641,9.392065,0.174658,-0.703418,-0.285913,0.301465,0.826636,-0.782373,0.265576,-0.415112,goodbye
1616136679.0975232,1,6.0,-5.0,-33.0,-29.0,-24.0,0.646667,0.005554,-0.762573,0.018799,-0.099237,-0.328244,0.274809,9.528442,0.027515,-0.068188,-0.13877,0.238062,1.528857,-1.491772,0.18064,-0.391187,goodbye
1616136679.1076329,1,5.0,-6.0,-33.0,-35.0,-27.0,0.642273,0.000854,-0.766174,0.02063,-0.129771,-0.496183,0.320611,10.101465,0.196191,0.552686,0.455786,0.494067,2.258594,-2.316016,0.430664,0.039478,goodbye
1616136679.1175375,1,7.0,-4.0,-33.0,-35.0,-24.0,0.636292,-0.004517,-0.771179,0.021118,-0.21374,-0.587786,0.305344,10.30603,0.406738,0.447412,0.690259,0.781177,2.302856,-2.406934,0.741699,0.210547,goodbye
1616136679.1274214,1,7.0,-6.0,-34.0,-37.0,-31.0,0.628967,-0.009583,-0.7771,0.020935,-0.21374,-0.610687,0.244275,10.137354,0.181836,-0.141162,0.56106,0.618481,1.896118,-1.977466,0.601733,0.12561,goodbye
1616136679.1374836,1,5.0,-6.0,-36.0,-36.0,-25.0,0.621704,-0.013367,-0.782837,0.021179,-0.137405,-0.564885,0.160305,10.113428,-0.198584,-0.723755,0.579004,0.288306,1.490576,-1.583887,0.289502,0.211743,goodbye
1616136679.1474702,1,5.0,-7.0,-43.0,-37.0,-27.0,0.615356,-0.015442,-0.787842,0.021545,-0.068702,-0.48855,0.083969,10.253393,-0.452197,-1.190308,0.757251,0.065796,1.178345,-1.326685,0.086133,0.44502,goodbye
1616136679.1575038,1,4.0,-7.0,-36.0,-39.0,-26.0,0.609924,-0.016296,-0.791992,0.021851,-0.022901,-0.419847,0.022901,10.445996,-0.665137,-1.603027,0.984546,-0.130396,0.896021,-1.117334,-0.090918,0.72854,goodbye
1616136679.1681442,1,1.0,-7.0,-35.0,-34.0,-29.0,0.605408,-0.016113,-0.79541,0.022156,0.015267,-0.335878,-0.022901,10.621851,-0.86731,-1.973877,1.190308,-0.330176,0.631641,-0.924731,-0.276343,0.995313,goodbye
1616136679.1775506,1,6.0,-9.0,-34.0,-35.0,-27.0,0.602051,-0.015259,-0.797974,0.022583,0.045802,-0.251908,-0.053435,10.759424,-1.059912,-2.299268,1.349414,-0.526367,0.385205,-0.739307,-0.461768,1.217822,goodbye
1616136679.1884534,1,6.0,-7.0,-50.0,-37.0,-25.0,0.599915,-0.014038,-0.799622,0.023193,0.061069,-0.137405,-0.061069,10.765406,-1.159204,-2.60791,1.368555,-0.630444,0.126807,-0.501245,-0.562256,1.309937,goodbye
1616136679.197494,1,6.0,-9.0,-35.0,-32.0,-25.0,0.598877,-0.012939,-0.800415,0.023621,0.045802,-0.053435,-0.053435,10.442408,-1.03479,-2.958423,1.052734,-0.512012,-0.197388,-0.102881,-0.45459,1.091016,goodbye
1616136679.2083209,1,5.0,-9.0,-36.0,-33.0,-27.0,0.598206,-0.012207,-0.800903,0.023254,-0.007634,-0.022901,-0.045802,9.888525,-0.829028,-3.235962,0.502441,-0.320605,-0.459375,0.300269,-0.285913,0.626855,goodbye
1616136679.2175317,1,6.0,-7.0,-38.0,-33.0,-24.0,0.597412,-0.012329,-0.801514,0.022278,-0.068702,-0.030534,-0.030534,9.159986,-0.701025,-3.499146,-0.218921,-0.205762,-0.703418,0.736914,-0.19978,0.001196,goodbye
1616136679.227431,1,5.0,-7.0,-35.0,-33.0,-25.0,0.595947,-0.013245,-0.802673,0.020874,-0.122137,-0.076336,-0.007634,8.543897,-0.656763,-3.706104,-0.825439,-0.173462,-0.874487,1.075464,-0.194995,-0.527563,goodbye
1616136679.2375767,1,5.0,-9.0,-34.0,-32.0,-23.0,0.594055,-0.014771,-0.804077,0.019348,-0.145038,-0.114504,0.015267,8.257983,-0.620874,-3.756348,-1.098193,-0.143555,-0.879272,1.162793,-0.181836,-0.782373,goodbye
1616136679.2475982,1,2.0,-7.0,-38.0,-35.0,-27.0,0.592102,-0.016663,-0.805542,0.017639,-0.167939,-0.122137,0.030534,8.262769,-0.614893,-3.708496,-1.079053,-0.142358,-0.784766,1.069482,-0.186621,-0.787158,goodbye
1616136679.257389,1,7.0,-8.0,-34.0,-33.0,-16.0,0.590515,-0.018738,-0.806641,0.015991,-0.167939,-0.091603,0.030534,8.463745,-0.672314,-3.630737,-0.866113,-0.202173,-0.669922,0.897217,-0.24165,-0.6125,goodbye
1616136679.2674854,1,5.0,-10.0,-36.0,-34.0,-24.0,0.589722,-0.020691,-0.807251,0.014648,-0.145038,-0.038168,0.030534,8.769995,-0.832617,-3.542212,-0.553882,-0.361279,-0.56106,0.69624,-0.388794,-0.33855,goodbye
1616136679.2776816,1,1.0,-9.0,-33.0,-32.0,-23.0,0.589783,-0.022156,-0.807129,0.013977,-0.083969,0.030534,0.022901,9.049927,-1.024023,-3.464453,-0.27395,-0.546704,-0.485693,0.534741,-0.56106,-0.086133,goodbye
1616136679.2874348,1,6.0,-9.0,-34.0,-35.0,-25.0,0.590881,-0.022827,-0.806335,0.014221,0.0,0.099237,0.007634,9.241333,-1.17356,-3.427368,-0.089722,-0.684277,-0.47373,0.46416,-0.689062,0.090918,goodbye
1616136679.2974524,1,5.0,-7.0,-35.0,-33.0,-23.0,0.592712,-0.0224,-0.804993,0.015198,0.076336,0.160305,-0.015267,9.247314,-1.14126,-3.405835,-0.096899,-0.641211,-0.495264,0.489282,-0.645996,0.087329,goodbye
1616136679.3073978,1,4.0,-8.0,-38.0,-33.0,-24.0,0.59491,-0.02124,-0.803345,0.016418,0.10687,0.175573,-0.030534,9.076245,-0.916357,-3.296973,-0.283521,-0.409131,-0.437842,0.495264,-0.42229,-0.120825,goodbye
1616136679.3174536,1,4.0,-7.0,-33.0,-34.0,-16.0,0.596985,-0.019775,-0.801819,0.017212,0.091603,0.152672,-0.038168,8.743677,-0.6125,-3.209644,-0.631641,-0.110059,-0.400757,0.563452,-0.141162,-0.483301,goodbye
1616136679.3275197,1,1.0,-9.0,-36.0,-33.0,-24.0,0.598389,-0.018677,-0.800842,0.017517,0.053435,0.099237,-0.030534,8.467334,-0.360083,-3.080444,-0.91875,0.132788,-0.303857,0.552686,0.087329,-0.800317,goodbye
1616136679.337381,1,4.0,-11.0,-35.0,-30.0,-23.0,0.599121,-0.018066,-0.800293,0.017395,0.007634,0.045802,-0.015267,8.395556,-0.22251,-2.909375,-0.995313,0.261987,-0.149536,0.424683,0.212939,-0.923535,goodbye
1616136679.3474965,1,5.0,-6.0,-33.0,-29.0,-23.0,0.599548,-0.018005,-0.799988,0.017151,-0.015267,0.015267,-0.007634,8.528345,-0.193799,-2.740698,-0.866113,0.285913,0.008374,0.236865,0.24165,-0.845776,goodbye
1616136679.3573956,1,2.0,-8.0,-34.0,-33.0,-25.0,0.599976,-0.01825,-0.799683,0.016724,-0.030534,0.022901,0.0,8.777173,-0.205762,-2.593555,-0.619678,0.270361,0.145947,0.034692,0.238062,-0.647192,goodbye
1616136679.3672676,1,5.0,-9.0,-33.0,-26.0,-16.0,0.600708,-0.018494,-0.799133,0.016296,-0.038168,0.045802,-0.007634,8.973364,-0.321802,-2.501441,-0.429468,0.150732,0.221313,-0.090918,0.128003,-0.479712,goodbye
1616136679.3775604,1,3.0,-11.0,-33.0,-34.0,-23.0,0.601624,-0.018677,-0.798401,0.016113,-0.015267,0.068702,-0.007634,9.106153,-0.510815,-2.507422,-0.301465,-0.038281,0.192603,-0.101685,-0.052637,-0.339746,goodbye
1616136679.3872542,1,2.0,-12.0,-33.0,-32.0,-23.0,0.602722,-0.018555,-0.797546,0.016541,0.030534,0.083969,-0.015267,9.203052,-0.673511,-2.518188,-0.211743,-0.194995,0.155518,-0.093311,-0.205762,-0.235669,goodbye
1616136679.3974185,1,5.0,-11.0,-33.0,-33.0,-15.0,0.604065,-0.017822,-0.796509,0.017273,0.068702,0.099237,-0.022901,9.228174,-0.724951,-2.534936,-0.196191,-0.244043,0.10647,-0.05144,-0.253613,-0.204565,goodbye
1616136679.4074874,1,5.0,-12.0,-33.0,-29.0,-16.0,0.605469,-0.016724,-0.795471,0.018188,0.091603,0.10687,-0.038168,9.200659,-0.710596,-2.555274,-0.233276,-0.228491,0.052637,0.00957,-0.239258,-0.227295,goodbye
1616136679.417374,1,4.0,-11.0,-33.0,-26.0,-16.0,0.606812,-0.015381,-0.794495,0.019165,0.099237,0.099237,-0.038168,9.161181,-0.65437,-2.572021,-0.282324,-0.172266,0.003589,0.070581,-0.185425,-0.26438,goodbye
1616136679.427426,1,5.0,-15.0,-33.0,-30.0,-23.0,0.607849,-0.013916,-0.79364,0.020142,0.099237,0.076336,-0.038168,9.115723,-0.568237,-2.568433,-0.333765,-0.088525,-0.017944,0.104077,-0.102881,-0.312231,goodbye
1616136679.4376063,1,7.0,-10.0,-33.0,-27.0,-16.0,0.608643,-0.012573,-0.793091,0.020935,0.083969,0.053435,-0.030534,9.109741,-0.429468,-2.515796,-0.345728,0.045459,0.014355,0.07417,0.028711,-0.33855,goodbye
1616136679.4472394,1,7.0,-13.0,-33.0,-26.0,-16.0,0.609253,-0.011536,-0.792603,0.021362,0.053435,0.038168,-0.022901,9.132471,-0.276343,-2.464355,-0.326587,0.192603,0.050244,0.033496,0.175854,-0.337354,goodbye
1616136679.4573495,1,3.0,-15.0,-33.0,-25.0,-17.0,0.609741,-0.011047,-0.792236,0.021301,0.007634,0.030534,-0.015267,9.186304,-0.163892,-2.441626,-0.276343,0.297876,0.062207,0.007178,0.283521,-0.29668,goodbye
1616136679.4674425,1,4.0,-17.0,-33.0,-28.0,-23.0,0.610229,-0.011108,-0.79187,0.020874,-0.030534,0.030534,0.0,9.277222,-0.139966,-2.426074,-0.189014,0.31582,0.065796,-0.016748,0.305054,-0.212939,goodbye
1616136679.4773364,1,6.0,-11.0,-32.0,-28.0,-13.0,0.610901,-0.011536,-0.791382,0.020325,-0.045802,0.053435,0.0,9.396851,-0.226099,-2.429663,-0.07417,0.226099,0.046655,-0.027515,0.221313,-0.093311,goodbye
1616136679.4872358,1,8.0,-12.0,-33.0,-25.0,-23.0,0.611816,-0.012085,-0.790649,0.019958,-0.038168,0.076336,0.007634,9.448291,-0.354102,-2.465552,-0.027515,0.099292,-0.00957,0.015552,0.098096,-0.028711,goodbye
1616136679.4973712,1,5.0,-12.0,-33.0,-30.0,-23.0,0.612854,-0.012634,-0.789856,0.019897,-0.022901,0.091603,0.007634,9.396851,-0.456982,-2.5146,-0.084937,0.002393,-0.08374,0.101685,0.0,-0.061011,goodbye
1616136679.50764,1,8.0,-11.0,-33.0,-26.0,-17.0,0.613953,-0.012878,-0.789001,0.020081,0.0,0.091603,0.007634,9.268847,-0.509619,-2.563648,-0.220117,-0.043066,-0.159106,0.208154,-0.050244,-0.171069,goodbye
1616136679.5172644,1,3.0,-15.0,-32.0,-26.0,-15.0,0.614807,-0.012878,-0.78833,0.020325,0.015267,0.068702,0.0,9.118115,-0.516797,-2.564844,-0.375635,-0.046655,-0.18064,0.266772,-0.059814,-0.317017,goodbye
1616136679.527476,1,4.0,-11.0,-32.0,-25.0,-15.0,0.615356,-0.012695,-0.787903,0.020691,0.030534,0.045802,0.0,9.031982,-0.52876,-2.532544,-0.465356,-0.055029,-0.161499,0.269165,-0.072974,-0.409131,goodbye
1616136679.537393,1,6.0,-15.0,-33.0,-26.0,-14.0,0.615723,-0.01239,-0.787598,0.02124,0.038168,0.022901,0.0,9.006861,-0.549097,-2.481103,-0.491675,-0.070581,-0.119629,0.234473,-0.089722,-0.443823,goodbye
1616136679.5473382,1,5.0,-12.0,-34.0,-27.0,-16.0,0.615967,-0.012085,-0.787354,0.021912,0.038168,0.015267,0.007634,9.006861,-0.522778,-2.428467,-0.492871,-0.038281,-0.07417,0.19021,-0.058618,-0.456982,goodbye
1616136679.5574238,1,6.0,-11.0,-32.0,-22.0,-16.0,0.616211,-0.011902,-0.78717,0.022461,0.030534,0.015267,0.015267,9.051123,-0.449805,-2.362671,-0.449805,0.039478,-0.014355,0.120825,0.017944,-0.434253,goodbye
1616136679.567212,1,8.0,-12.0,-31.0,-27.0,-15.0,0.616516,-0.011841,-0.786926,0.022888,0.015267,0.015267,0.015267,9.132471,-0.374438,-2.29209,-0.37085,0.120825,0.047852,0.040674,0.101685,-0.376831,goodbye
1616136679.5772836,1,6.0,-11.0,-30.0,-26.0,-16.0,0.617004,-0.012024,-0.78656,0.023071,0.0,0.030534,0.022901,9.195874,-0.321802,-2.239453,-0.309839,0.178247,0.088525,-0.013159,0.160303,-0.330176,goodbye
1616136679.5874114,1,6.0,-11.0,-31.0,-24.0,-15.0,0.617554,-0.012329,-0.786133,0.023071,-0.015267,0.038168,0.015267,9.189893,-0.314624,-2.237061,-0.319409,0.189014,0.077759,-0.001196,0.171069,-0.337354,goodbye
1616136679.597302,1,5.0,-13.0,-31.0,-23.0,-15.0,0.618042,-0.012695,-0.785706,0.022949,-0.022901,0.038168,0.007634,9.134863,-0.369653,-2.265771,-0.376831,0.136377,0.037085,0.05144,0.11604,-0.38042,goodbye
1616136679.607343,1,5.0,-12.0,-32.0,-23.0,-13.0,0.61853,-0.013,-0.785339,0.022888,-0.015267,0.038168,0.0,9.075048,-0.447412,-2.293286,-0.439038,0.062207,-0.001196,0.102881,0.040674,-0.428271,goodbye
1616136679.6172917,1,5.0,-9.0,-30.0,-22.0,-15.0,0.618835,-0.013062,-0.785095,0.022827,-0.007634,0.022901,-0.007634,8.999682,-0.516797,-2.316016,-0.516797,-0.005981,-0.031104,0.150732,-0.029907,-0.494067,goodbye
1616136679.6275115,1,4.0,-12.0,-31.0,-23.0,-12.0,0.618958,-0.012878,-0.784973,0.022888,0.007634,0.007634,-0.015267,8.954224,-0.567041,-2.319604,-0.562256,-0.058618,-0.038281,0.168677,-0.084937,-0.533545,goodbye
1616136681.984351,1,4.0,-6.0,-19.0,-16.0,-7.0,0.685242,-0.013855,-0.728027,0.015137,0.0,-0.007634,0.0,9.423169,-0.394775,-0.567041,-0.350513,0.007178,0.025122,-0.003589,-0.007178,-0.350513,goodbye
1616136681.994264,1,4.0,-6.0,-19.0,-13.0,-8.0,0.685242,-0.013916,-0.728027,0.015076,-0.007634,-0.007634,0.0,9.424365,-0.374438,-0.555078,-0.349316,0.027515,0.037085,-0.015552,0.011963,-0.351709,goodbye
1616136682.0042791,1,3.0,-6.0,-18.0,-9.0,-7.0,0.685242,-0.014038,-0.728027,0.015076,-0.007634,-0.007634,0.0,9.418384,-0.37085,-0.557471,-0.355298,0.0323,0.034692,-0.011963,0.016748,-0.35769,goodbye
1616136682.0143485,1,5.0,-6.0,-18.0,-14.0,-8.0,0.685181,-0.01416,-0.728088,0.015015,-0.015267,-0.007634,0.0,9.411206,-0.369653,-0.562256,-0.362476,0.034692,0.031104,-0.008374,0.019141,-0.363672,goodbye
1616136682.0243227,1,4.0,-6.0,-18.0,-13.0,-8.0,0.68512,-0.014343,-0.728149,0.014954,-0.015267,-0.007634,0.0,9.412402,-0.381616,-0.563452,-0.360083,0.023926,0.0323,-0.00957,0.008374,-0.361279,goodbye
1616136682.034474,1,3.0,-6.0,-20.0,-16.0,-6.0,0.685059,-0.014526,-0.728149,0.014954,-0.015267,-0.007634,0.007634,9.423169,-0.392383,-0.563452,-0.349316,0.015552,0.0323,-0.010767,0.0,-0.350513,goodbye
1616136682.0444164,1,5.0,-6.0,-19.0,-12.0,-8.0,0.685059,-0.014709,-0.72821,0.014954,-0.007634,-0.007634,0.0,9.421972,-0.405542,-0.576611,-0.350513,0.004785,0.020337,0.0,-0.00957,-0.350513,goodbye
1616136682.0542045,1,5.0,-6.0,-18.0,-15.0,-11.0,0.684998,-0.014832,-0.72821,0.015015,-0.007634,-0.007634,0.0,9.405225,-0.423486,-0.598145,-0.367261,-0.00957,0.0,0.021533,-0.023926,-0.364868,goodbye
1616136682.0643482,1,2.0,-6.0,-17.0,-10.0,-7.0,0.684937,-0.014893,-0.728271,0.015015,-0.007634,-0.007634,0.0,9.392065,-0.43186,-0.614893,-0.379224,-0.016748,-0.014355,0.037085,-0.0323,-0.375635,goodbye
1616136682.074222,1,4.0,-6.0,-20.0,-14.0,-8.0,0.684875,-0.014954,-0.728333,0.015015,-0.007634,-0.007634,0.0,9.383692,-0.42229,-0.620874,-0.387598,-0.007178,-0.017944,0.040674,-0.022729,-0.384009,goodbye
1616136682.084459,1,4.0,-6.0,-15.0,-12.0,-6.0,0.684753,-0.015076,-0.728455,0.015015,-0.015267,-0.015267,0.0,9.381299,-0.409131,-0.617285,-0.38999,0.007178,-0.011963,0.035889,-0.008374,-0.387598,goodbye
1616136682.0944574,1,5.0,-6.0,-19.0,-14.0,-7.0,0.684692,-0.015259,-0.728516,0.014893,-0.015267,-0.015267,0.0,9.390869,-0.417505,-0.62207,-0.38042,0.0,-0.014355,0.037085,-0.015552,-0.378027,goodbye
1616136682.104247,1,5.0,-6.0,-19.0,-12.0,-8.0,0.68457,-0.015442,-0.728638,0.014893,-0.007634,-0.007634,0.0,9.393262,-0.433057,-0.626855,-0.378027,-0.013159,-0.015552,0.038281,-0.028711,-0.374438,goodbye
1616136682.1141326,1,3.0,-7.0,-19.0,-11.0,-6.0,0.684509,-0.015442,-0.728699,0.014893,-0.007634,-0.007634,0.0,9.389673,-0.449805,-0.640015,-0.381616,-0.029907,-0.027515,0.050244,-0.045459,-0.376831,goodbye
1616136682.1243484,1,5.0,-6.0,-19.0,-12.0,-8.0,0.684387,-0.015442,-0.728821,0.014954,0.0,-0.007634,-0.007634,9.395655,-0.460571,-0.643604,-0.375635,-0.039478,-0.027515,0.050244,-0.055029,-0.37085,goodbye
1616136682.1342182,1,5.0,-6.0,-20.0,-10.0,-6.0,0.684326,-0.01532,-0.728882,0.015015,0.0,-0.007634,-0.007634,9.394458,-0.440234,-0.637622,-0.376831,-0.019141,-0.020337,0.043066,-0.034692,-0.373242,goodbye
1616136682.1444647,1,5.0,-6.0,-18.0,-12.0,-8.0,0.684204,-0.015198,-0.728943,0.015015,0.0,-0.007634,-0.007634,9.404028,-0.427075,-0.638818,-0.366064,-0.008374,-0.019141,0.04187,-0.023926,-0.362476,goodbye
1616136682.1542408,1,5.0,-6.0,-16.0,-10.0,-6.0,0.684143,-0.015198,-0.729004,0.015015,-0.007634,-0.007634,-0.007634,9.433935,-0.42229,-0.632837,-0.336157,-0.003589,-0.010767,0.031104,-0.016748,-0.333765,goodbye
1616136682.1641536,1,5.0,-6.0,-18.0,-11.0,-6.0,0.684143,-0.015198,-0.729065,0.014954,-0.007634,-0.007634,-0.007634,9.444702,-0.428271,-0.635229,-0.326587,-0.010767,-0.011963,0.0323,-0.023926,-0.324194,goodbye
1616136682.174222,1,4.0,-6.0,-15.0,-10.0,-6.0,0.684082,-0.015259,-0.729126,0.014893,-0.007634,-0.007634,-0.007634,9.433935,-0.435449,-0.642407,-0.337354,-0.017944,-0.017944,0.038281,-0.031104,-0.333765,goodbye
1616136682.1842017,1,5.0,-6.0,-19.0,-13.0,-7.0,0.684021,-0.015381,-0.729126,0.014771,-0.015267,-0.007634,-0.007634,9.424365,-0.435449,-0.647192,-0.345728,-0.017944,-0.021533,0.043066,-0.0323,-0.342139,goodbye
1616136682.194217,1,4.0,-6.0,-19.0,-12.0,-8.0,0.68396,-0.015503,-0.729187,0.014648,-0.015267,-0.007634,0.0,9.429151,-0.436646,-0.6448,-0.340942,-0.019141,-0.017944,0.039478,-0.033496,-0.337354,goodbye
1616136682.204399,1,6.0,-6.0,-18.0,-10.0,-8.0,0.683899,-0.015625,-0.729248,0.014526,-0.015267,-0.007634,0.0,9.448291,-0.442627,-0.635229,-0.321802,-0.025122,-0.005981,0.026318,-0.038281,-0.318213,goodbye
1616136682.214313,1,-3.0,-6.0,-20.0,-16.0,-7.0,0.683899,-0.015808,-0.729248,0.014404,-0.015267,-0.007634,0.0,9.462646,-0.448608,-0.610107,-0.307446,-0.029907,0.017944,0.001196,-0.04187,-0.30625,goodbye
1616136682.224427,1,5.0,-6.0,-20.0,-12.0,-7.0,0.68396,-0.01593,-0.729187,0.014282,-0.015267,0.0,-0.007634,9.469824,-0.446216,-0.605322,-0.300269,-0.027515,0.020337,-0.001196,-0.039478,-0.299072,goodbye
1616136682.2343795,1,4.0,-6.0,-19.0,-12.0,-6.0,0.684021,-0.016052,-0.729187,0.01416,-0.015267,0.0,-0.007634,9.465039,-0.447412,-0.60293,-0.30625,-0.028711,0.022729,-0.002393,-0.040674,-0.305054,goodbye
1616136682.2442696,1,2.0,-6.0,-19.0,-12.0,-8.0,0.684021,-0.016174,-0.729126,0.014099,-0.015267,0.0,0.0,9.442309,-0.466553,-0.606519,-0.327783,-0.047852,0.017944,0.002393,-0.061011,-0.325391,goodbye
1616136682.2543592,1,3.0,-6.0,-20.0,-14.0,-6.0,0.684021,-0.016296,-0.729126,0.014038,-0.007634,-0.007634,0.0,9.435132,-0.468945,-0.599341,-0.334961,-0.049048,0.025122,-0.003589,-0.062207,-0.332568,goodbye
1616136682.2642531,1,4.0,-6.0,-19.0,-12.0,-7.0,0.684021,-0.016357,-0.729126,0.014038,-0.007634,-0.007634,0.0,9.448291,-0.466553,-0.595752,-0.321802,-0.045459,0.028711,-0.007178,-0.058618,-0.320605,goodbye
1616136682.2744253,1,3.0,-7.0,-21.0,-12.0,-6.0,0.684082,-0.016479,-0.729065,0.013977,-0.007634,0.0,-0.007634,9.514087,-0.472534,-0.582593,-0.256006,-0.05144,0.040674,-0.023926,-0.062207,-0.25481,goodbye
1616136682.2842808,1,6.0,-6.0,-18.0,-15.0,-6.0,0.684326,-0.016418,-0.728821,0.013855,0.0,0.022901,-0.015267,9.746167,-0.514404,-0.519189,-0.023926,-0.095703,0.096899,-0.094507,-0.095703,-0.025122,goodbye
1616136682.29426,1,4.0,-5.0,-17.0,-14.0,-7.0,0.684937,-0.01593,-0.728333,0.013855,0.022901,0.030534,-0.038168,10.047632,-0.631641,-0.403149,0.27395,-0.218921,0.197388,-0.214136,-0.205762,0.269165,goodbye
1616136682.3036888,1,5.0,-2.0,-14.0,-8.0,-8.0,0.68512,-0.014771,-0.728149,0.013916,0.053435,-0.030534,-0.076336,10.678076,-0.643604,-0.095703,0.903198,-0.246436,0.500049,-0.553882,-0.209351,0.879272,goodbye
1616136682.3135002,1,5.0,5.0,-2.0,0.0,-6.0,0.684692,-0.012451,-0.728638,0.013367,0.076336,-0.129771,-0.152672,11.946142,-0.596948,0.556274,2.170068,-0.238062,1.163989,-1.295581,-0.161499,2.100684,goodbye
1616136682.323556,1,27.0,9.0,8.0,16.0,5.0,0.683594,-0.008789,-0.729736,0.012451,0.129771,-0.21374,-0.244275,13.975049,-0.990527,1.10896,4.198975,-0.693848,1.746582,-2.013355,-0.577808,4.094897,goodbye
1616136682.3333104,1,8.0,12.0,14.0,22.0,9.0,0.683289,-0.003235,-0.72998,0.013733,0.358779,-0.083969,-0.251908,15.451269,-1.699927,1.928418,5.675195,-1.459473,2.573218,-2.921338,-1.364966,5.526855,goodbye
1616136682.3434467,1,8.0,16.0,17.0,24.0,19.0,0.688477,0.005554,-0.724976,0.020203,0.770992,0.473282,-0.221374,14.528931,-2.477515,1.525269,4.743286,-2.264575,2.026514,-2.186816,-2.243042,4.681079,goodbye
1616136682.3535793,1,10.0,23.0,30.0,27.0,23.0,0.696411,0.016785,-0.716736,0.031494,1.045802,0.862595,-0.114504,11.26665,-2.564844,-0.762036,1.472632,-2.350708,-0.48689,0.601733,-2.281323,1.536035,goodbye
1616136682.363401,1,8.0,27.0,35.0,39.0,28.0,0.703735,0.028442,-0.708618,0.042053,0.923664,0.854962,-0.129771,5.959912,-1.585083,-3.361572,-3.836499,-1.39248,-3.302954,3.454883,-1.128101,-3.788647,goodbye
1616136682.373531,1,11.0,33.0,42.0,47.0,29.0,0.705017,0.037415,-0.706665,0.046692,0.503817,0.152672,-0.129771,0.799121,0.387598,-4.531543,-8.999682,0.516797,-4.515991,4.450195,0.931909,-8.998487,goodbye
1616136682.383396,1,11.0,36.0,45.0,47.0,43.0,0.697876,0.043091,-0.713501,0.044739,0.038168,-0.732824,-0.10687,1.153223,2.363867,-2.959619,-8.643188,2.399756,-2.744287,2.616284,2.713184,-8.589355,goodbye
1616136682.3934517,1,9.0,36.0,49.0,57.0,37.0,0.691833,0.04425,-0.719666,0.039001,-0.259542,-0.587786,-0.152672,5.730225,1.978662,-1.140064,-4.061401,1.928418,-0.750073,0.674707,2.042065,-4.018335,goodbye
1616136682.403397,1,10.0,39.0,49.0,57.0,37.0,0.690735,0.042786,-0.720947,0.035706,-0.19084,-0.038168,-0.099237,9.059497,0.892432,-0.764429,-0.729736,0.817065,-0.340942,0.277539,0.857739,-0.707007,goodbye
1616136682.41331,1,12.0,39.0,50.0,54.0,39.0,0.693665,0.042419,-0.718262,0.034058,-0.068702,0.282443,-0.129771,9.75813,0.521582,-0.533545,-0.034692,0.423486,-0.186621,0.139966,0.441431,-0.022729,goodbye
1616136682.4234488,1,12.0,40.0,52.0,57.0,39.0,0.697571,0.044312,-0.714478,0.031555,-0.030534,0.290076,-0.251908,8.815454,0.297876,-0.399561,-0.979761,0.132788,-0.155518,0.162695,0.16748,-0.972583,goodbye
1616136682.4334924,1,9.0,40.0,52.0,57.0,39.0,0.698975,0.046936,-0.713013,0.028931,0.0,0.038168,-0.251908,7.486377,-0.080151,-0.31582,-2.307642,-0.318213,-0.107666,0.183032,-0.242847,-2.31123,goodbye
1616136682.4433408,1,12.0,37.0,53.0,57.0,42.0,0.696655,0.049072,-0.71521,0.027222,0.030534,-0.290076,-0.175573,6.616675,-0.404346,-0.247632,-3.174951,-0.692651,0.025122,0.126807,-0.587378,-3.192895,goodbye
1616136682.4534054,1,13.0,40.0,55.0,58.0,40.0,0.690918,0.050964,-0.720642,0.026428,0.053435,-0.572519,-0.114504,6.319995,-0.531152,-0.178247,-3.464453,-0.846973,0.251221,-0.016748,-0.740503,-3.496753,goodbye
1616136682.4635632,1,13.0,39.0,50.0,57.0,37.0,0.682556,0.052734,-0.728455,0.025879,0.061069,-0.778626,-0.083969,6.442017,-0.516797,-0.192603,-3.329273,-0.851758,0.461768,-0.153125,-0.757251,-3.379517,goodbye
1616136682.473426,1,11.0,38.0,52.0,56.0,40.0,0.672363,0.054138,-0.737854,0.025146,0.030534,-0.900763,-0.053435,6.93728,-0.334961,-0.291895,-2.812476,-0.684277,0.635229,-0.29668,-0.618481,-2.88186,goodbye
1616136682.483272,1,12.0,39.0,51.0,56.0,39.0,0.661438,0.054871,-0.74762,0.02356,-0.045802,-0.916031,-0.038168,7.669409,0.155518,-0.72854,-2.048047,-0.210547,0.484497,-0.209351,-0.156714,-2.098291,goodbye
1616136682.4936872,1,10.0,36.0,48.0,57.0,37.0,0.651062,0.054382,-0.756775,0.020203,-0.19084,-0.816794,-0.007634,8.847754,1.028809,-1.130493,-0.830225,0.634033,0.352905,-0.294287,0.640015,-0.846973,goodbye
1616136682.5034509,1,11.0,31.0,42.0,48.0,31.0,0.644165,0.05127,-0.763,0.015259,-0.381679,-0.519084,0.068702,10.030884,1.604224,-1.264477,0.381616,1.184326,0.397168,-0.568237,1.11853,0.358887,goodbye
1616136682.5133653,1,10.0,28.0,35.0,41.0,25.0,0.641724,0.04541,-0.765503,0.009827,-0.51145,-0.145038,0.129771,10.472315,1.640112,-1.762134,0.83501,1.21543,-0.034692,-0.209351,1.163989,0.879272,goodbye
1616136682.5233922,1,11.0,21.0,27.0,26.0,15.0,0.642212,0.038269,-0.765564,0.005249,-0.503817,0.10687,0.167939,10.548877,1.179541,-2.463159,0.907983,0.776392,-0.746484,0.526367,0.769214,1.055127,goodbye
1616136682.533352,1,8.0,16.0,16.0,14.0,0.0,0.644836,0.03125,-0.763672,0.002747,-0.389313,0.305344,0.21374,10.987915,0.546704,-2.841187,1.333862,0.192603,-1.190308,0.939087,0.185425,1.520483,goodbye
1616136682.543326,1,5.0,10.0,9.0,-1.0,-5.0,0.650024,0.024292,-0.759521,0.002441,-0.29771,0.48855,0.267176,11.661426,0.034692,-2.716773,1.983447,-0.238062,-1.197485,0.88645,-0.261987,2.136572,goodbye
1616136682.5533054,1,6.0,10.0,2.0,-7.0,-6.0,0.657104,0.018066,-0.75354,0.003235,-0.206107,0.564885,0.290076,11.691333,-0.076563,-2.316016,1.984644,-0.260791,-0.979761,0.708203,-0.277539,2.093506,goodbye
1616136682.563616,1,7.0,9.0,-1.0,-12.0,-9.0,0.662476,0.012817,-0.748962,0.005249,-0.114504,0.335878,0.335878,11.710474,0.317017,-1.409229,1.983447,0.227295,-0.210547,-0.038281,0.206958,1.99541,goodbye
1616136682.5733151,1,4.0,14.0,2.0,-4.0,-6.0,0.664734,0.007385,-0.747009,0.006592,-0.19084,0.0,0.335878,12.422266,0.461768,-0.052637,2.688061,0.461768,1.085034,-1.398462,0.433057,2.543311,goodbye
1616136682.5834408,1,8.0,18.0,6.0,3.0,-5.0,0.664612,0.00177,-0.747192,0.007019,-0.206107,-0.183206,0.229008,13.528833,-0.327783,0.46416,3.794629,-0.247632,1.60542,-2.033691,-0.242847,3.582886,goodbye
1616136682.593353,1,11.0,23.0,13.0,8.0,3.0,0.660156,0.000671,-0.751038,0.009644,0.198473,-0.549618,0.007634,14.644971,-1.428369,1.433154,4.926318,-1.294385,2.688061,-3.279028,-1.277637,4.557861,goodbye
1616136682.6032004,1,10.0,25.0,14.0,13.0,10.0,0.658752,0.007019,-0.752136,0.017212,0.717557,-0.198473,-0.114504,15.849634,-2.692847,2.465552,6.135767,-2.528955,3.753955,-4.444214,-2.583984,5.629736,goodbye
1616136682.6133137,1,12.0,26.0,24.0,24.0,20.0,0.664185,0.016724,-0.746643,0.033997,1.335878,0.610687,0.099237,14.284887,-4.102075,0.056226,4.553076,-3.822144,1.186719,-1.440332,-3.805396,4.492065,goodbye
1616136682.6234276,1,12.0,36.0,32.0,38.0,29.0,0.668823,0.029907,-0.740601,0.057312,1.656489,0.70229,0.236641,6.96958,-2.646191,-3.659448,-2.771802,-2.205957,-2.690454,3.209644,-1.940381,-2.390186,goodbye
1616136682.633333,1,10.0,46.0,46.0,47.0,37.0,0.664185,0.042419,-0.742981,0.070984,0.961832,-0.282443,0.152672,0.166284,1.606616,-4.575806,-9.564331,2.087524,-3.520679,4.215723,2.329175,-9.2198,goodbye
1616136682.643205,1,13.0,45.0,51.0,56.0,40.0,0.650818,0.049377,-0.754395,0.069336,0.022901,-1.244275,0.068702,1.458276,5.061499,-2.518188,-8.231665,5.456275,-1.114941,1.40564,5.434741,-8.199366,goodbye
1616136682.6533172,1,12.0,47.0,60.0,57.0,42.0,0.640137,0.048523,-0.764221,0.06189,-0.450382,-1.0,0.045802,6.203955,4.201367,-0.88645,-3.44292,4.51958,0.806299,-0.872095,4.3198,-3.675,goodbye
1616136682.6633172,1,13.0,46.0,58.0,57.0,42.0,0.63501,0.042175,-0.769165,0.058289,-0.396947,-0.29771,0.152672,9.756933,1.650879,-1.61499,0.135181,2.003784,0.214136,-0.512012,1.95354,0.020337,goodbye
1616136682.673349,1,12.0,45.0,59.0,56.0,41.0,0.638855,0.038086,-0.766235,0.057678,-0.167939,0.450382,0.007634,12.032275,0.519189,-1.977466,2.393775,0.907983,-0.24165,-0.317017,0.968994,2.360278,goodbye
1616136682.6834328,1,16.0,47.0,58.0,57.0,43.0,0.648193,0.038818,-0.758545,0.054382,-0.129771,0.839695,-0.328244,12.263159,0.04187,-2.44043,2.583984,0.356494,-0.933105,0.461768,0.507227,2.683276,goodbye
1616136682.6932995,1,16.0,47.0,59.0,60.0,45.0,0.65979,0.04248,-0.748657,0.048462,-0.137405,1.0,-0.572519,11.621948,-0.680689,-2.892627,1.899707,-0.517993,-1.671216,1.470239,-0.297876,2.100684,goodbye
1616136682.7033465,1,13.0,47.0,57.0,58.0,43.0,0.671204,0.047302,-0.738586,0.041687,-0.122137,0.977099,-0.664122,10.131372,-1.507324,-3.288599,0.375635,-1.525269,-2.351904,2.478711,-1.223804,0.594556,goodbye
1616136682.713289,1,13.0,48.0,56.0,57.0,41.0,0.67981,0.052307,-0.730652,0.0354,-0.083969,0.70229,-0.625954,7.714868,-2.245435,-3.468042,-2.056421,-2.434448,-2.750268,3.16897,-2.01814,-1.896118,goodbye
1616136682.7234051,1,14.0,48.0,58.0,56.0,41.0,0.682678,0.056152,-0.727905,0.031067,-0.038168,0.167939,-0.427481,5.139258,-2.792139,-3.323291,-4.634424,-3.099585,-2.676099,3.319702,-2.564844,-4.54231,goodbye
1616136682.733266,1,15.0,45.0,56.0,57.0,42.0,0.678589,0.057617,-0.731628,0.029968,0.022901,-0.450382,-0.122137,3.290991,-3.0625,-3.015845,-6.47312,-3.398657,-2.258594,3.1271,-2.811279,-6.391772,goodbye
1616136682.743261,1,16.0,44.0,52.0,57.0,42.0,0.667725,0.056641,-0.741577,0.031738,0.045802,-0.969466,0.167939,2.860327,-2.76582,-3.023022,-6.879858,-3.045752,-1.981055,3.039771,-2.489478,-6.713574,goodbye
1616136682.7533684,1,13.0,43.0,50.0,57.0,39.0,0.65332,0.053162,-0.754456,0.034607,-0.015267,-1.145038,0.374046,4.699023,-1.917651,-2.9979,-4.9969,-2.086328,-1.586279,2.521777,-1.701123,-4.75166,goodbye
1616136682.7632284,1,13.0,40.0,45.0,44.0,31.0,0.641296,0.047485,-0.764954,0.03656,-0.152672,-0.877863,0.458015,7.65625,-0.495264,-2.583984,-1.991821,-0.543115,-0.869702,1.259692,-0.385205,-1.811182,goodbye
1616136682.7733622,1,12.0,32.0,34.0,34.0,26.0,0.637024,0.041199,-0.768921,0.035645,-0.312977,-0.259542,0.366412,10.19956,1.143652,-1.685571,0.569434,1.166382,0.135181,-0.363672,1.134082,0.531152,goodbye
1616136682.7833874,1,11.0,26.0,18.0,25.0,13.0,0.640869,0.034973,-0.766174,0.032227,-0.427481,0.328244,0.251908,11.036963,1.844678,-1.446314,1.390088,1.88894,0.282324,-0.699829,1.836304,1.30874,goodbye
1616136682.7932415,1,9.0,16.0,9.0,4.0,1.0,0.6474,0.027954,-0.761108,0.028259,-0.465649,0.564885,0.206107,10.928101,1.821948,-1.906885,1.253711,1.887744,-0.337354,-0.017944,1.900903,1.277637,goodbye
1616136682.803256,1,9.0,8.0,2.0,-8.0,-6.0,0.65448,0.020508,-0.755432,0.024414,-0.496183,0.603053,0.198473,10.558447,1.545605,-1.929614,0.857739,1.643701,-0.535937,0.302661,1.674805,0.907983,goodbye
1616136682.812611,1,4.0,2.0,-1.0,-10.0,-8.0,0.661621,0.013123,-0.749451,0.020569,-0.473282,0.557252,0.183206,10.260571,1.300366,-1.324292,0.535937,1.431958,-0.111255,-0.022729,1.439136,0.525171,goodbye
1616136682.8232458,1,6.0,-3.0,-10.0,-16.0,-17.0,0.66748,0.006714,-0.744385,0.017334,-0.396947,0.358779,0.175573,9.468628,1.287207,-0.378027,-0.271558,1.451099,0.683081,-0.69624,1.422388,-0.367261,goodbye
1616136682.8332455,1,3.0,-6.0,-12.0,-16.0,-24.0,0.669312,0.000366,-0.742859,0.014954,-0.374046,-0.045802,0.244275,9.17793,1.059912,0.590967,-0.567041,1.271655,1.606616,-1.56355,1.222607,-0.757251,goodbye
1616136682.8433409,1,5.0,-7.0,-15.0,-20.0,-23.0,0.666748,-0.007507,-0.745117,0.014221,-0.381679,-0.381679,0.351145,9.908862,0.428271,1.102978,0.173462,0.733325,2.18562,-2.196387,0.712988,-0.090918,goodbye
1616136682.8532631,1,3.0,-9.0,-17.0,-20.0,-23.0,0.662292,-0.016418,-0.748962,0.014404,-0.366412,-0.435115,0.389313,10.526148,-0.206958,0.856543,0.807495,0.216528,2.055225,-2.136572,0.251221,0.539526,goodbye
1616136682.863213,1,5.0,-6.0,-17.0,-14.0,-23.0,0.657349,-0.024353,-0.753052,0.016052,-0.229008,-0.40458,0.389313,10.492651,-0.806299,0.294287,0.797925,-0.25481,1.619775,-1.715479,-0.194995,0.583789,goodbye
1616136682.873217,1,4.0,-9.0,-18.0,-18.0,-23.0,0.652649,-0.030212,-0.756836,0.019287,-0.068702,-0.374046,0.351145,10.246216,-1.059912,-0.025122,0.575415,-0.386401,1.418799,-1.495361,-0.328979,0.384009,goodbye
1616136682.8833156,1,5.0,-10.0,-19.0,-20.0,-17.0,0.64856,-0.033997,-0.760071,0.022827,0.007634,-0.335878,0.29771,10.198364,-0.915161,-0.281128,0.551489,-0.142358,1.263281,-1.336255,-0.084937,0.354102,goodbye
1616136682.893413,1,5.0,-11.0,-22.0,-21.0,-16.0,0.644958,-0.036377,-0.762939,0.025879,0.038168,-0.29771,0.229008,10.298853,-0.746484,-0.501245,0.672314,0.099292,1.132886,-1.225,0.166284,0.461768,goodbye
1616136682.9031868,1,5.0,1.0,-20.0,-20.0,-23.0,0.642029,-0.037659,-0.765259,0.028442,0.061069,-0.236641,0.152672,10.461548,-0.687866,-0.704614,0.851758,0.211743,1.000098,-1.126904,0.295483,0.641211,goodbye
1616136682.913135,1,3.0,-12.0,-19.0,-21.0,-23.0,0.640015,-0.038086,-0.766785,0.030212,0.053435,-0.160305,0.083969,10.640991,-0.698633,-0.971387,1.04436,0.23208,0.781177,-0.948657,0.333765,0.860132,goodbye
1616136682.923286,1,4.0,-10.0,-20.0,-20.0,-16.0,0.639099,-0.037903,-0.767517,0.031372,0.053435,-0.053435,0.030534,10.757031,-0.831421,-1.288403,1.165186,0.114844,0.485693,-0.685474,0.228491,1.040771,goodbye
1616136682.9333017,1,3.0,-6.0,-21.0,-23.0,-15.0,0.639343,-0.037537,-0.767334,0.032227,0.053435,0.045802,0.0,10.614673,-1.008472,-1.631738,1.021631,-0.052637,0.135181,-0.317017,0.047852,0.979761,goodbye
1616136682.943179,1,5.0,-13.0,-22.0,-20.0,-16.0,0.640198,-0.037048,-0.766602,0.032898,0.045802,0.099237,-0.015267,10.099072,-1.100586,-2.028906,0.503638,-0.141162,-0.282324,0.185425,-0.089722,0.556274,goodbye
1616136682.9532511,1,3.0,-12.0,-24.0,-19.0,-24.0,0.640808,-0.036682,-0.766113,0.033203,0.022901,0.083969,-0.022901,9.334643,-1.116138,-2.442822,-0.263184,-0.156714,-0.711792,0.744092,-0.178247,-0.11604,goodbye
1616136682.9634328,1,5.0,-10.0,-23.0,-16.0,-14.0,0.640564,-0.036804,-0.766296,0.033142,-0.015267,0.015267,-0.007634,8.64917,-1.177148,-2.700024,-0.947461,-0.216528,-0.963013,1.111353,-0.305054,-0.735718,goodbye
1616136682.973217,1,4.0,-9.0,-22.0,-21.0,-16.0,0.639526,-0.037476,-0.767151,0.03302,-0.045802,-0.053435,0.015267,8.295069,-1.272852,-2.793335,-1.295581,-0.30625,-1.030005,1.240552,-0.430664,-1.051538,goodbye
1616136682.983417,1,3.0,-9.0,-23.0,-22.0,-15.0,0.638,-0.038635,-0.768372,0.032959,-0.061069,-0.099237,0.038168,8.292676,-1.344629,-2.747876,-1.2896,-0.364868,-0.946265,1.159204,-0.491675,-1.050342,goodbye
1616136682.9932506,1,6.0,-9.0,-22.0,-22.0,-16.0,0.636536,-0.040039,-0.769531,0.032898,-0.068702,-0.091603,0.045802,8.52356,-1.425977,-2.624658,-1.050342,-0.429468,-0.785962,0.959424,-0.535937,-0.83501,goodbye
1616136683.0033643,1,6.0,-9.0,-23.0,-21.0,-15.0,0.635742,-0.041443,-0.770142,0.032898,-0.068702,-0.045802,0.045802,8.919531,-1.464258,-2.453589,-0.649585,-0.451001,-0.594556,0.695044,-0.517993,-0.474927,goodbye
1616136683.0132604,1,7.0,-6.0,-22.0,-17.0,-14.0,0.635925,-0.042603,-0.769897,0.032715,-0.053435,0.038168,0.030534,9.337036,-1.425977,-2.284912,-0.230884,-0.400757,-0.43186,0.456982,-0.424683,-0.101685,goodbye
1616136683.0232186,1,5.0,-10.0,-22.0,-18.0,-16.0,0.637207,-0.043457,-0.768799,0.032349,-0.045802,0.122137,0.015267,9.596631,-1.375732,-2.173657,0.021533,-0.344531,-0.351709,0.332568,-0.342139,0.122021,goodbye
1616136683.032547,1,4.0,-8.0,-22.0,-19.0,-15.0,0.639404,-0.043884,-0.766968,0.03186,-0.030534,0.19084,-0.015267,9.630127,-1.335059,-2.122217,0.045459,-0.305054,-0.354102,0.331372,-0.300269,0.139966,goodbye
1616136683.0432909,1,5.0,-9.0,-23.0,-21.0,-12.0,0.641968,-0.043945,-0.764832,0.031189,-0.022901,0.21374,-0.030534,9.454272,-1.2573,-2.099487,-0.142358,-0.235669,-0.395972,0.407935,-0.252417,-0.045459,goodbye
1616136683.0532894,1,5.0,-9.0,-22.0,-21.0,-11.0,0.644348,-0.043762,-0.762878,0.030457,-0.022901,0.198473,-0.045802,9.097778,-1.155615,-2.087524,-0.509619,-0.147144,-0.442627,0.515601,-0.204565,-0.409131,goodbye
1616136683.0632615,1,5.0,-9.0,-22.0,-18.0,-15.0,0.646179,-0.043457,-0.761414,0.029541,-0.022901,0.145038,-0.053435,8.754443,-1.03479,-2.025317,-0.863721,-0.043066,-0.424683,0.556274,-0.137573,-0.773999,goodbye
1616136683.0733342,1,4.0,-9.0,-24.0,-16.0,-15.0,0.647278,-0.043274,-0.760498,0.028625,-0.038168,0.076336,-0.045802,8.619263,-0.957031,-1.876978,-1.003687,0.017944,-0.303857,0.458179,-0.088525,-0.937891,goodbye
1616136683.0832036,1,3.0,-9.0,-22.0,-21.0,-14.0,0.647949,-0.043213,-0.759949,0.02771,-0.038168,0.045802,-0.038168,8.743677,-0.945068,-1.687964,-0.882861,0.015552,-0.131592,0.267969,-0.075366,-0.846973,goodbye
1616136683.0926435,1,4.0,-8.0,-22.0,-20.0,-15.0,0.648621,-0.043274,-0.759399,0.027161,-0.030534,0.045802,-0.022901,9.02002,-0.971387,-1.47981,-0.610107,-0.016748,0.059814,0.034692,-0.076563,-0.606519,goodbye
1616136683.1034048,1,5.0,-9.0,-22.0,-16.0,-23.0,0.649597,-0.043396,-0.758545,0.026855,-0.015267,0.068702,-0.007634,9.305933,-0.965405,-1.311133,-0.328979,-0.013159,0.203369,-0.150732,-0.04187,-0.352905,goodbye
1616136683.113159,1,6.0,-6.0,-19.0,-16.0,-15.0,0.651062,-0.043396,-0.757324,0.026611,-0.007634,0.10687,-0.007634,9.576294,-0.90918,-1.177148,-0.0646,0.039478,0.300269,-0.285913,0.037085,-0.112451,goodbye
1616136683.1225853,1,5.0,-7.0,-20.0,-20.0,-12.0,0.653015,-0.043274,-0.755676,0.026428,0.0,0.145038,-0.007634,9.801196,-0.866113,-1.086231,0.150732,0.078955,0.342139,-0.356494,0.098096,0.090918,goodbye
1616136683.1328185,1,5.0,-8.0,-26.0,-18.0,-15.0,0.655396,-0.043152,-0.753601,0.026306,0.0,0.19084,-0.007634,9.884936,-0.829028,-1.065894,0.226099,0.113647,0.301465,-0.325391,0.139966,0.168677,goodbye
1616136683.142362,1,4.0,-8.0,-22.0,-18.0,-13.0,0.65802,-0.04303,-0.751343,0.026001,-0.007634,0.206107,-0.007634,9.701904,-0.745288,-1.146045,0.033496,0.191406,0.154321,-0.150732,0.196191,-0.004785,goodbye
1616136683.152534,1,8.0,-6.0,-19.0,-17.0,-15.0,0.660156,-0.04303,-0.749451,0.025452,-0.022901,0.175573,-0.022901,9.268847,-0.650781,-1.306348,-0.406738,0.278735,-0.061011,0.119629,0.235669,-0.419897,goodbye
1616136683.1628718,1,5.0,-6.0,-20.0,-18.0,-12.0,0.661499,-0.043091,-0.748291,0.024536,-0.045802,0.10687,-0.030534,8.905176,-0.58977,-1.379321,-0.775195,0.327783,-0.16748,0.270361,0.246436,-0.775195,goodbye
1616136683.172544,1,3.0,-9.0,-20.0,-21.0,-11.0,0.662048,-0.043396,-0.747803,0.023376,-0.068702,0.038168,-0.030534,8.79751,-0.656763,-1.345825,-0.885254,0.248828,-0.147144,0.259595,0.159106,-0.879272,goodbye
1616136683.1828592,1,5.0,-6.0,-20.0,-20.0,-12.0,0.662231,-0.043945,-0.747681,0.022522,-0.061069,0.007634,-0.015267,8.933887,-0.843384,-1.259692,-0.75127,0.056226,-0.0646,0.155518,-0.016748,-0.739307,goodbye
1616136683.192888,1,3.0,-6.0,-20.0,-21.0,-11.0,0.662537,-0.044495,-0.747375,0.022217,-0.038168,0.015267,0.0,9.1875,-1.00249,-1.158008,-0.497656,-0.098096,0.028711,0.026318,-0.143555,-0.485693,goodbye
1616136683.2032263,1,4.0,-9.0,-26.0,-20.0,-13.0,0.663086,-0.044983,-0.746826,0.022217,-0.015267,0.045802,0.015267,9.412402,-1.046753,-1.077856,-0.27395,-0.136377,0.093311,-0.065796,-0.159106,-0.269165,goodbye
1616136683.212741,1,6.0,-7.0,-20.0,-17.0,-12.0,0.664062,-0.04541,-0.745972,0.022278,-0.015267,0.076336,0.015267,9.52605,-1.010864,-1.037183,-0.162695,-0.093311,0.108862,-0.092114,-0.105273,-0.163892,goodbye
1616136683.2231915,1,6.0,-8.0,-22.0,-18.0,-12.0,0.6651,-0.045776,-0.744995,0.022278,-0.015267,0.083969,0.015267,9.480591,-0.97019,-1.051538,-0.210547,-0.047852,0.068188,-0.045459,-0.065796,-0.210547,goodbye
1616136683.23322,1,4.0,-9.0,-22.0,-13.0,-16.0,0.666077,-0.046082,-0.744141,0.022156,-0.022901,0.076336,0.0,9.32268,-0.955835,-1.112549,-0.372046,-0.029907,-0.016748,0.055029,-0.065796,-0.362476,goodbye
1616136683.2426293,1,5.0,-7.0,-19.0,-18.0,-15.0,0.666626,-0.046265,-0.743652,0.021912,-0.015267,0.045802,-0.007634,9.110937,-1.013257,-1.180737,-0.584985,-0.088525,-0.099292,0.156714,-0.147144,-0.558667,goodbye
1616136683.2523963,1,4.0,-7.0,-23.0,-17.0,-15.0,0.666687,-0.046265,-0.743591,0.021912,0.0,0.0,-0.022901,8.960205,-1.131689,-1.211841,-0.735718,-0.206958,-0.131592,0.200977,-0.281128,-0.693848,goodbye
1616136683.2631006,1,3.0,-8.0,-21.0,-17.0,-11.0,0.666321,-0.045959,-0.743896,0.022217,0.022901,-0.038168,-0.022901,8.945849,-1.211841,-1.169971,-0.748877,-0.287109,-0.081348,0.149536,-0.360083,-0.704614,goodbye
1616136683.2726665,1,3.0,-8.0,-19.0,-14.0,-10.0,0.665894,-0.045471,-0.744324,0.022705,0.038168,-0.045802,-0.022901,9.088208,-1.185522,-1.056323,-0.605322,-0.260791,0.04187,0.014355,-0.317017,-0.577808,goodbye
1616136683.282446,1,3.0,-8.0,-22.0,-17.0,-15.0,0.66571,-0.044739,-0.744507,0.023132,0.038168,-0.030534,-0.022901,9.310718,-1.088623,-0.942676,-0.382812,-0.166284,0.160303,-0.122021,-0.198584,-0.38042,goodbye
1616136683.293163,1,6.0,-9.0,-21.0,-17.0,-11.0,0.665894,-0.044006,-0.744385,0.023254,0.030534,0.007634,-0.022901,9.471021,-0.988135,-0.893628,-0.223706,-0.07417,0.204565,-0.18064,-0.089722,-0.236865,goodbye
1616136683.302484,1,5.0,-8.0,-20.0,-17.0,-13.0,0.666382,-0.043457,-0.744019,0.023254,0.015267,0.038168,-0.022901,9.53562,-0.919946,-0.896021,-0.161499,-0.013159,0.19021,-0.171069,-0.023926,-0.179443,goodbye
1616136683.312675,1,5.0,-7.0,-18.0,-19.0,-15.0,0.667053,-0.04303,-0.743408,0.02301,0.0,0.053435,-0.030534,9.514087,-0.868506,-0.929517,-0.185425,0.028711,0.13877,-0.11604,0.013159,-0.200977,goodbye
1616136683.322289,1,6.0,-6.0,-19.0,-12.0,-11.0,0.667786,-0.042847,-0.742798,0.022644,-0.015267,0.061069,-0.030534,9.430346,-0.832617,-0.988135,-0.272754,0.057422,0.061011,-0.029907,0.0323,-0.281128,goodbye
1616136683.3323786,1,5.0,-9.0,-21.0,-20.0,-15.0,0.668396,-0.042725,-0.742249,0.022095,-0.022901,0.053435,-0.030534,9.310718,-0.843384,-1.056323,-0.393579,0.037085,-0.021533,0.062207,0.0,-0.38999,goodbye
1616136683.342595,1,6.0,-7.0,-18.0,-14.0,-15.0,0.668823,-0.042725,-0.741882,0.021606,-0.022901,0.038168,-0.022901,9.205444,-0.91875,-1.112549,-0.501245,-0.044263,-0.088525,0.136377,-0.092114,-0.483301,goodbye
1616136683.3526793,1,5.0,-6.0,-20.0,-15.0,-10.0,0.669128,-0.042786,-0.741577,0.021362,-0.015267,0.030534,-0.015267,9.16836,-1.00249,-1.14126,-0.53833,-0.130396,-0.12561,0.173462,-0.181836,-0.508423,goodbye
1616136683.362274,1,6.0,-7.0,-18.0,-12.0,-13.0,0.669434,-0.042847,-0.741333,0.021423,0.0,0.030534,-0.007634,9.186304,-1.056323,-1.148438,-0.521582,-0.181836,-0.139966,0.184229,-0.23208,-0.485693,goodbye
1616136683.37237,1,5.0,-7.0,-16.0,-12.0,-11.0,0.6698,-0.042725,-0.740967,0.021667,0.015267,0.030534,-0.007634,9.225781,-1.045557,-1.131689,-0.483301,-0.169873,-0.133984,0.174658,-0.216528,-0.449805,goodbye
1616136683.3826728,1,5.0,-9.0,-19.0,-13.0,-11.0,0.670288,-0.042542,-0.74054,0.021912,0.022901,0.038168,0.0,9.259277,-1.000098,-1.102978,-0.451001,-0.122021,-0.118433,0.156714,-0.165088,-0.423486,goodbye
1616136683.3923223,1,5.0,-9.0,-20.0,-18.0,-10.0,0.670898,-0.042297,-0.740051,0.022156,0.022901,0.045802,-0.007634,9.266455,-0.955835,-1.069482,-0.446216,-0.077759,-0.100488,0.139966,-0.120825,-0.424683,goodbye
1616136683.402592,1,6.0,-8.0,-18.0,-16.0,-11.0,0.671509,-0.042053,-0.739502,0.0224,0.022901,0.045802,-0.007634,9.237744,-0.905591,-1.051538,-0.476123,-0.026318,-0.098096,0.141162,-0.071777,-0.459375,goodbye
1616136683.4124317,1,4.0,-9.0,-19.0,-18.0,-9.0,0.672119,-0.041687,-0.738953,0.022461,0.015267,0.045802,-0.015267,9.213819,-0.850561,-1.033594,-0.502441,0.022729,-0.096899,0.143555,-0.025122,-0.490479,goodbye
1616136683.422304,1,4.0,-8.0,-17.0,-16.0,-9.0,0.672668,-0.04126,-0.738464,0.022339,0.007634,0.045802,-0.022901,9.21023,-0.817065,-0.998901,-0.507227,0.050244,-0.076563,0.123218,0.001196,-0.500049,goodbye
1616136683.4323149,1,4.0,-11.0,-19.0,-18.0,-13.0,0.673218,-0.040894,-0.737976,0.022095,0.0,0.045802,-0.030534,9.218603,-0.826636,-0.963013,-0.501245,0.0323,-0.055029,0.100488,-0.013159,-0.494067,goodbye
1616136683.4423892,1,5.0,-10.0,-19.0,-13.0,-10.0,0.673767,-0.040588,-0.737549,0.021912,0.0,0.038168,-0.030534,9.188696,-0.861328,-0.954639,-0.533545,-0.008374,-0.061011,0.107666,-0.056226,-0.522778,goodbye
1616136683.452419,1,7.0,-7.0,-18.0,-16.0,-11.0,0.674072,-0.040283,-0.737244,0.021729,0.0,0.022901,-0.030534,9.156397,-0.885254,-0.927124,-0.565845,-0.038281,-0.04187,0.089722,-0.088525,-0.553882,goodbye
1616136683.4625914,1,6.0,-9.0,-16.0,-16.0,-15.0,0.674316,-0.039917,-0.737061,0.021606,0.007634,0.007634,-0.030534,9.173144,-0.874487,-0.875684,-0.550293,-0.034692,0.002393,0.044263,-0.082544,-0.543115,goodbye
1616136683.472355,1,6.0,-8.0,-20.0,-18.0,-11.0,0.6745,-0.039612,-0.736938,0.021423,0.007634,0.007634,-0.022901,9.237744,-0.861328,-0.820654,-0.488086,-0.027515,0.053833,-0.010767,-0.068188,-0.485693,goodbye
1616136685.4300797,1,5.0,-6.0,-16.0,-8.0,-6.0,0.704102,-0.00531,-0.710022,0.003052,0.0,-0.022901,0.022901,9.479395,-0.251221,-0.07417,-0.318213,-0.135181,0.007178,-0.004785,-0.13877,-0.31582,goodbye
1616136685.4402423,1,5.0,-8.0,-18.0,-11.0,-8.0,0.704041,-0.005615,-0.710144,0.003479,0.0,-0.007634,0.022901,9.497339,-0.252417,-0.090918,-0.301465,-0.12561,-0.005981,0.007178,-0.129199,-0.299072,goodbye
1616136685.450491,1,3.0,-6.0,-15.0,-12.0,-6.0,0.703979,-0.005859,-0.710144,0.003845,0.0,0.0,0.022901,9.462646,-0.248828,-0.111255,-0.334961,-0.113647,-0.025122,0.027515,-0.117236,-0.332568,goodbye
1616136685.4594326,1,5.0,-7.0,-16.0,-10.0,-6.0,0.704041,-0.006104,-0.710144,0.00415,0.0,0.0,0.015267,9.405225,-0.240454,-0.141162,-0.393579,-0.098096,-0.056226,0.058618,-0.102881,-0.391187,goodbye
1616136685.4696536,1,6.0,-6.0,-16.0,-9.0,-7.0,0.703979,-0.006348,-0.710205,0.004456,-0.007634,-0.007634,0.015267,9.358569,-0.245239,-0.166284,-0.440234,-0.094507,-0.078955,0.082544,-0.100488,-0.437842,goodbye
1616136685.480308,1,5.0,-6.0,-14.0,-10.0,-7.0,0.703857,-0.006653,-0.710266,0.004639,-0.007634,-0.007634,0.015267,9.332251,-0.256006,-0.172266,-0.465356,-0.099292,-0.082544,0.086133,-0.10647,-0.461768,goodbye
1616136685.4895585,1,5.0,-7.0,-17.0,-10.0,-6.0,0.703735,-0.006958,-0.710388,0.004822,-0.007634,-0.015267,0.015267,9.328662,-0.258398,-0.168677,-0.468945,-0.094507,-0.075366,0.078955,-0.101685,-0.466553,goodbye
1616136685.5003223,1,4.0,-6.0,-16.0,-10.0,-6.0,0.703674,-0.007202,-0.71051,0.004944,-0.007634,-0.015267,0.007634,9.347803,-0.258398,-0.153125,-0.449805,-0.089722,-0.057422,0.061011,-0.096899,-0.447412,goodbye
1616136685.5103338,1,6.0,-6.0,-14.0,-11.0,-9.0,0.703613,-0.007446,-0.71051,0.005066,-0.007634,-0.007634,0.007634,9.38728,-0.257202,-0.126807,-0.410327,-0.08374,-0.029907,0.033496,-0.090918,-0.407935,goodbye
1616136685.520183,1,7.0,-5.0,-15.0,-12.0,-5.0,0.703613,-0.007629,-0.71051,0.005127,-0.007634,0.0,0.007634,9.432739,-0.253613,-0.118433,-0.364868,-0.076563,-0.021533,0.023926,-0.082544,-0.362476,goodbye
1616136685.53018,1,5.0,-6.0,-16.0,-11.0,-6.0,0.703674,-0.007751,-0.710449,0.005188,-0.007634,0.007634,0.0,9.455469,-0.257202,-0.123218,-0.342139,-0.077759,-0.028711,0.031104,-0.08374,-0.339746,goodbye
1616136685.5396068,1,5.0,-6.0,-15.0,-9.0,-7.0,0.703796,-0.007874,-0.710327,0.005249,0.0,0.007634,0.0,9.455469,-0.258398,-0.132788,-0.342139,-0.076563,-0.04187,0.044263,-0.082544,-0.339746,goodbye
1616136685.54982,1,3.0,-6.0,-16.0,-10.0,-9.0,0.703918,-0.007874,-0.710266,0.005432,0.0,0.007634,0.0,9.421972,-0.248828,-0.14834,-0.375635,-0.063403,-0.059814,0.062207,-0.070581,-0.373242,goodbye
1616136685.560189,1,6.0,-6.0,-14.0,-12.0,-6.0,0.703918,-0.007874,-0.710205,0.005554,0.007634,0.0,0.0,9.410009,-0.221313,-0.142358,-0.387598,-0.034692,-0.053833,0.056226,-0.04187,-0.385205,goodbye
1616136685.5695517,1,5.0,-6.0,-15.0,-8.0,-9.0,0.703918,-0.007874,-0.710266,0.005676,0.0,-0.007634,0.0,9.407618,-0.181836,-0.135181,-0.38999,0.004785,-0.046655,0.049048,-0.002393,-0.388794,goodbye
1616136685.5794976,1,-7.0,-7.0,-16.0,-9.0,-6.0,0.703796,-0.007874,-0.710327,0.005676,-0.007634,-0.007634,0.0,9.427954,-0.139966,-0.120825,-0.369653,0.046655,-0.029907,0.0323,0.038281,-0.369653,goodbye
1616136685.589434,1,4.0,-8.0,-15.0,-12.0,-11.0,0.703735,-0.007935,-0.710449,0.005676,-0.007634,-0.015267,0.0,9.461451,-0.112451,-0.111255,-0.336157,0.075366,-0.016748,0.019141,0.068188,-0.337354,goodbye
1616136685.5997198,1,6.0,-6.0,-15.0,-8.0,-6.0,0.703552,-0.008118,-0.710571,0.005676,-0.007634,-0.015267,0.007634,9.496142,-0.112451,-0.10647,-0.301465,0.077759,-0.008374,0.010767,0.071777,-0.302661,goodbye
1616136685.6099198,1,6.0,-6.0,-16.0,-45.0,-6.0,0.703491,-0.00824,-0.710632,0.005676,-0.007634,-0.015267,0.007634,9.532031,-0.13877,-0.112451,-0.26438,0.053833,-0.011963,0.014355,0.047852,-0.26438,goodbye
1616136685.6194246,1,5.0,-6.0,-15.0,-7.0,-7.0,0.703369,-0.008362,-0.710754,0.005798,0.0,-0.007634,0.007634,9.570312,-0.16748,-0.11604,-0.226099,0.027515,-0.013159,0.015552,0.022729,-0.226099,goodbye
1616136685.6295526,1,5.0,-5.0,-12.0,-8.0,-6.0,0.703308,-0.008423,-0.710815,0.005981,0.007634,-0.007634,0.007634,9.597827,-0.189014,-0.113647,-0.198584,0.00957,-0.008374,0.00957,0.004785,-0.198584,goodbye
1616136685.6395452,1,4.0,-6.0,-14.0,-10.0,-6.0,0.703247,-0.008423,-0.710876,0.006226,0.007634,-0.007634,0.007634,9.601416,-0.189014,-0.107666,-0.194995,0.013159,-0.001196,0.002393,0.008374,-0.194995,goodbye
1616136685.649458,1,4.0,-6.0,-14.0,-9.0,-8.0,0.703186,-0.008423,-0.710876,0.00647,0.007634,-0.007634,0.007634,9.587061,-0.166284,-0.096899,-0.209351,0.039478,0.00957,-0.007178,0.034692,-0.209351,goodbye
1616136685.6597605,1,4.0,-6.0,-16.0,-11.0,-7.0,0.703125,-0.008484,-0.710999,0.006653,0.0,-0.015267,0.015267,9.582275,-0.151929,-0.089722,-0.214136,0.057422,0.019141,-0.015552,0.052637,-0.215332,goodbye
1616136685.669391,1,5.0,-6.0,-14.0,-9.0,-6.0,0.702942,-0.008728,-0.711121,0.006836,-0.007634,-0.022901,0.015267,9.566724,-0.16748,-0.086133,-0.228491,0.047852,0.026318,-0.022729,0.04187,-0.229687,goodbye
1616136685.6795366,1,4.0,-6.0,-13.0,-9.0,-6.0,0.702698,-0.008972,-0.711365,0.00708,-0.007634,-0.030534,0.022901,9.553564,-0.184229,-0.087329,-0.24165,0.037085,0.0323,-0.028711,0.031104,-0.24165,goodbye
1616136685.689464,1,6.0,-6.0,-17.0,-10.0,-8.0,0.702393,-0.009216,-0.711731,0.007385,0.0,-0.038168,0.022901,9.554761,-0.208154,-0.086133,-0.24165,0.021533,0.043066,-0.039478,0.015552,-0.24165,goodbye
1616136685.69955,1,5.0,-6.0,-16.0,-9.0,-6.0,0.702026,-0.00946,-0.712036,0.007751,0.007634,-0.038168,0.022901,9.573901,-0.238062,-0.080151,-0.221313,0.0,0.058618,-0.055029,-0.004785,-0.221313,goodbye
1616136685.7094915,1,7.0,-6.0,-14.0,-8.0,-6.0,0.701599,-0.009644,-0.712402,0.008179,0.007634,-0.038168,0.022901,9.601416,-0.250024,-0.082544,-0.192603,-0.002393,0.066992,-0.063403,-0.005981,-0.192603,goodbye
1616136685.7195349,1,5.0,-6.0,-12.0,-7.0,-6.0,0.701294,-0.009766,-0.712769,0.008667,0.007634,-0.038168,0.022901,9.62295,-0.247632,-0.081348,-0.172266,0.007178,0.077759,-0.07417,0.002393,-0.173462,goodbye
1616136685.7294548,1,5.0,-7.0,-16.0,-7.0,-7.0,0.700928,-0.009888,-0.713074,0.009094,0.007634,-0.030534,0.022901,9.620557,-0.248828,-0.099292,-0.173462,0.013159,0.068188,-0.0646,0.008374,-0.174658,goodbye
1616136685.739437,1,5.0,-6.0,-14.0,-11.0,-7.0,0.700562,-0.010071,-0.71344,0.00946,0.007634,-0.038168,0.022901,9.593042,-0.260791,-0.129199,-0.200977,0.00957,0.049048,-0.044263,0.003589,-0.200977,goodbye
1616136685.7495332,1,7.0,-6.0,-17.0,-9.0,-7.0,0.700134,-0.010254,-0.713867,0.009888,0.007634,-0.038168,0.022901,9.56792,-0.266772,-0.155518,-0.226099,0.011963,0.034692,-0.029907,0.004785,-0.226099,goodbye
1616136685.7595134,1,4.0,-6.0,-15.0,-8.0,-3.0,0.699707,-0.010498,-0.714294,0.010254,0.0,-0.045802,0.022901,9.539209,-0.27395,-0.171069,-0.253613,0.013159,0.031104,-0.025122,0.004785,-0.253613,goodbye
1616136685.7692678,1,5.0,-6.0,-15.0,-12.0,-6.0,0.699158,-0.010742,-0.714783,0.010559,0.0,-0.045802,0.022901,9.49375,-0.279932,-0.193799,-0.297876,0.014355,0.022729,-0.015552,0.004785,-0.297876,goodbye
1616136685.779566,1,4.0,-6.0,-13.0,-9.0,-8.0,0.698608,-0.011047,-0.715332,0.010803,-0.007634,-0.053435,0.015267,9.467432,-0.276343,-0.197388,-0.324194,0.026318,0.033496,-0.025122,0.015552,-0.325391,goodbye
1616136685.7894087,1,5.0,-6.0,-16.0,-10.0,-6.0,0.697998,-0.011292,-0.715942,0.010986,-0.007634,-0.053435,0.015267,9.445898,-0.287109,-0.203369,-0.345728,0.020337,0.044263,-0.034692,0.008374,-0.346924,goodbye
1616136685.799454,1,4.0,-6.0,-15.0,-11.0,-7.0,0.697388,-0.011475,-0.716553,0.011169,0.0,-0.061069,0.015267,9.435132,-0.342139,-0.230884,-0.356494,-0.027515,0.034692,-0.023926,-0.038281,-0.355298,goodbye
1616136685.8093631,1,4.0,-7.0,-14.0,-11.0,-8.0,0.696777,-0.011658,-0.717102,0.011597,0.007634,-0.053435,0.015267,9.426758,-0.381616,-0.259595,-0.363672,-0.058618,0.021533,-0.010767,-0.069385,-0.361279,goodbye
1616136685.8193328,1,5.0,-6.0,-14.0,-9.0,-7.0,0.696167,-0.011658,-0.717712,0.012085,0.022901,-0.053435,0.015267,9.406421,-0.381616,-0.291895,-0.382812,-0.05144,0.005981,0.004785,-0.063403,-0.38042,goodbye
1616136685.829513,1,3.0,-6.0,-14.0,-10.0,-7.0,0.695618,-0.011475,-0.718262,0.012634,0.030534,-0.045802,0.007634,9.376513,-0.362476,-0.332568,-0.41272,-0.027515,-0.017944,0.031104,-0.040674,-0.410327,goodbye
1616136685.8393395,1,3.0,-6.0,-14.0,-10.0,-10.0,0.695068,-0.011108,-0.71875,0.013123,0.038168,-0.045802,0.0,9.347803,-0.354102,-0.368457,-0.440234,-0.016748,-0.040674,0.055029,-0.031104,-0.436646,goodbye
1616136685.8493898,1,4.0,-6.0,-34.0,-8.0,-6.0,0.69458,-0.01062,-0.719238,0.013611,0.038168,-0.038168,-0.007634,9.314306,-0.37085,-0.413916,-0.47373,-0.033496,-0.072974,0.088525,-0.049048,-0.468945,goodbye
1616136685.8596249,1,7.0,-6.0,-15.0,-10.0,-7.0,0.694092,-0.010071,-0.719666,0.014099,0.045802,-0.038168,-0.007634,9.262866,-0.41272,-0.465356,-0.523975,-0.076563,-0.111255,0.130396,-0.093311,-0.515601,goodbye
1616136685.8694055,1,5.0,-6.0,-15.0,-11.0,-9.0,0.693542,-0.009399,-0.720215,0.014771,0.053435,-0.045802,-0.015267,9.20664,-0.468945,-0.504834,-0.5802,-0.131592,-0.136377,0.159106,-0.149536,-0.569434,goodbye
1616136685.879563,1,8.0,-5.0,-16.0,-10.0,-6.0,0.692932,-0.008606,-0.720764,0.015503,0.061069,-0.053435,-0.015267,9.19707,-0.480908,-0.500049,-0.588574,-0.144751,-0.11604,0.139966,-0.162695,-0.577808,goodbye
1616136685.889287,1,6.0,-4.0,-14.0,-9.0,-8.0,0.692383,-0.007629,-0.721313,0.016113,0.068702,-0.045802,-0.022901,9.241333,-0.456982,-0.460571,-0.544312,-0.12561,-0.061011,0.08374,-0.142358,-0.535937,goodbye
1616136685.8993468,1,6.0,-6.0,-15.0,-7.0,-6.0,0.692017,-0.006592,-0.72168,0.016663,0.068702,-0.038168,-0.030534,9.326269,-0.423486,-0.411523,-0.459375,-0.098096,-0.002393,0.022729,-0.112451,-0.45459,goodbye
1616136685.909412,1,1.0,-6.0,-15.0,-7.0,-6.0,0.691895,-0.005554,-0.721802,0.01709,0.061069,-0.015267,-0.030534,9.430346,-0.392383,-0.361279,-0.355298,-0.07417,0.050244,-0.033496,-0.086133,-0.354102,goodbye
1616136685.9193306,1,8.0,-6.0,-15.0,-10.0,-8.0,0.692078,-0.004639,-0.721619,0.017456,0.045802,0.015267,-0.030534,9.479395,-0.358887,-0.33855,-0.307446,-0.049048,0.066992,-0.052637,-0.058618,-0.307446,goodbye
1616136685.9294014,1,4.0,-6.0,-14.0,-14.0,-6.0,0.692383,-0.003906,-0.721313,0.017761,0.038168,0.022901,-0.022901,9.432739,-0.324194,-0.378027,-0.354102,-0.019141,0.019141,-0.003589,-0.029907,-0.352905,goodbye
1616136685.9395216,1,5.0,-6.0,-14.0,-8.0,-6.0,0.692749,-0.003296,-0.720947,0.017944,0.022901,0.022901,-0.015267,9.353785,-0.270361,-0.403149,-0.433057,0.027515,-0.014355,0.031104,0.014355,-0.43186,goodbye
1616136685.9493432,1,5.0,-6.0,-15.0,-10.0,-7.0,0.692932,-0.00293,-0.720764,0.017944,0.007634,0.015267,-0.015267,9.273633,-0.240454,-0.425879,-0.513208,0.052637,-0.043066,0.062207,0.038281,-0.512012,goodbye
1616136685.959229,1,7.0,-6.0,-16.0,-8.0,-7.0,0.693054,-0.002747,-0.720642,0.017822,0.0,0.007634,-0.015267,9.240137,-0.244043,-0.437842,-0.5479,0.044263,-0.058618,0.078955,0.028711,-0.545508,goodbye
1616136685.9692907,1,5.0,-5.0,-16.0,-7.0,-6.0,0.693115,-0.002747,-0.720581,0.017761,-0.007634,0.0,-0.007634,9.22937,-0.275146,-0.434253,-0.558667,0.011963,-0.056226,0.077759,-0.002393,-0.555078,goodbye
1616136685.9794414,1,6.0,-8.0,-16.0,-10.0,-8.0,0.693115,-0.002869,-0.720581,0.017639,-0.015267,-0.007634,0.0,9.232959,-0.287109,-0.400757,-0.555078,0.0,-0.022729,0.044263,-0.014355,-0.552686,goodbye
1616136685.9894035,1,6.0,-5.0,-15.0,-8.0,-6.0,0.693054,-0.003052,-0.720642,0.017456,-0.022901,-0.015267,-0.007634,9.258081,-0.285913,-0.362476,-0.529956,0.001196,0.016748,0.003589,-0.013159,-0.529956,goodbye
1616136685.9993117,1,5.0,-6.0,-14.0,-9.0,-7.0,0.692932,-0.003174,-0.720764,0.017151,-0.022901,-0.015267,-0.015267,9.38728,-0.25481,-0.291895,-0.399561,0.029907,0.089722,-0.07417,0.015552,-0.403149,goodbye
1616136686.009249,1,3.0,-5.0,-14.0,-13.0,-6.0,0.693054,-0.002991,-0.720703,0.016541,-0.022901,0.0,-0.038168,9.709082,-0.218921,-0.205762,-0.078955,0.055029,0.174658,-0.172266,0.049048,-0.086133,goodbye
1616136686.0194771,1,5.0,1.0,-11.0,-6.0,-6.0,0.69342,-0.002258,-0.720398,0.015564,-0.007634,0.015267,-0.091603,10.28689,-0.263184,-0.037085,0.49646,-0.011963,0.333765,-0.351709,-0.005981,0.483301,goodbye
1616136686.0293405,1,3.0,4.0,-5.0,-7.0,-6.0,0.69397,-0.000427,-0.719849,0.014526,0.045802,0.007634,-0.152672,10.904175,-0.42229,0.206958,1.112549,-0.210547,0.563452,-0.599341,-0.198584,1.094604,goodbye
1616136686.0394723,1,7.0,9.0,-1.0,-1.0,-5.0,0.69342,0.003235,-0.720398,0.01416,0.175573,-0.137405,-0.229008,11.923413,-0.6448,0.645996,2.130591,-0.488086,1.016846,-1.085034,-0.480908,2.097095,goodbye
1616136686.0492144,1,8.0,15.0,4.0,8.0,0.0,0.690735,0.009277,-0.722839,0.014832,0.320611,-0.389313,-0.274809,13.618555,-0.872095,1.494165,3.829321,-0.787158,1.936792,-2.080347,-0.825439,3.743188,goodbye
1616136686.0593352,1,9.0,22.0,12.0,15.0,8.0,0.687134,0.016785,-0.726135,0.017456,0.473282,-0.435115,-0.267176,14.604297,-1.295581,2.889038,4.818652,-1.272852,3.428565,-3.622363,-1.439136,4.624854,goodbye
1616136686.0684571,1,9.0,21.0,14.0,19.0,12.0,0.687195,0.02594,-0.725647,0.023071,0.70229,-0.053435,-0.236641,12.18899,-1.739404,2.604321,2.403345,-1.759741,3.137866,-3.133081,-1.98584,2.223901,goodbye
1616136686.0792005,1,11.0,26.0,22.0,25.0,16.0,0.686096,0.036987,-0.725769,0.033142,0.992366,0.045802,-0.145038,8.003174,-2.451196,-0.6125,-1.780078,-2.476318,-0.059814,0.403149,-2.442822,-1.780078,goodbye
1616136686.0891454,1,9.0,32.0,31.0,35.0,24.0,0.680908,0.04834,-0.729492,0.044067,0.908397,-0.221374,-0.068702,3.619971,-1.635327,-2.476318,-6.1573,-1.649683,-1.800415,2.415308,-1.336255,-6.020923,goodbye
1616136686.099371,1,9.0,37.0,42.0,47.0,27.0,0.671936,0.056213,-0.736816,0.049622,0.503817,-0.70229,0.015267,0.989331,0.35769,-3.249121,-8.768799,0.333765,-2.345923,3.054126,0.819458,-8.513989,goodbye
1616136686.1092305,1,13.0,43.0,48.0,47.0,32.0,0.659058,0.060791,-0.748047,0.049011,0.083969,-1.099237,0.045802,4.439429,2.288501,-1.375732,-5.281616,2.221509,-0.135181,0.441431,2.354297,-5.20625,goodbye
1616136686.1185987,1,12.0,40.0,47.0,35.0,35.0,0.653137,0.060486,-0.753479,0.044861,-0.259542,-0.526718,-0.007634,8.45896,2.349512,-0.628052,-1.239355,2.237061,0.77041,-0.915161,2.138965,-1.309937,goodbye
1616136686.1292152,1,12.0,42.0,52.0,52.0,35.0,0.653442,0.058228,-0.753601,0.04126,-0.251908,0.129771,-0.053435,11.413794,1.59585,-1.178345,1.714282,1.459473,0.218921,-0.659155,1.355396,1.685571,goodbye
1616136686.13884,1,11.0,45.0,54.0,57.0,39.0,0.659668,0.057739,-0.748352,0.037415,-0.206107,0.580153,-0.229008,12.026294,1.230981,-1.567139,2.307642,1.032398,-0.324194,-0.104077,0.979761,2.349512,goodbye
1616136686.148414,1,11.0,44.0,53.0,55.0,40.0,0.66748,0.059814,-0.741516,0.031799,-0.19084,0.656489,-0.419847,10.785742,0.645996,-1.954736,1.046753,0.325391,-0.906787,0.744092,0.388794,1.147241,goodbye
1616136686.1592278,1,14.0,44.0,56.0,57.0,39.0,0.673401,0.062744,-0.736084,0.026855,-0.10687,0.480916,-0.427481,9.195874,-0.25481,-2.246631,-0.551489,-0.695044,-1.348218,1.467847,-0.489282,-0.455786,goodbye
1616136686.1691508,1,11.0,43.0,54.0,58.0,40.0,0.67627,0.065918,-0.733276,0.023926,0.007634,0.229008,-0.335878,8.011548,-0.852954,-2.336353,-1.738208,-1.381714,-1.510913,1.804004,-1.068286,-1.676001,goodbye
1616136686.1791408,1,14.0,43.0,54.0,57.0,40.0,0.676208,0.06897,-0.733093,0.022644,0.068702,-0.022901,-0.229008,7.342822,-0.982153,-2.196387,-2.403345,-1.570728,-1.368555,1.741797,-1.210644,-2.368652,goodbye
1616136686.1892474,1,13.0,44.0,54.0,58.0,41.0,0.673889,0.071411,-0.735046,0.022156,0.076336,-0.221374,-0.129771,7.193286,-0.858936,-1.951147,-2.545703,-1.482202,-1.061108,1.454687,-1.137671,-2.527759,goodbye
1616136686.1992226,1,13.0,43.0,54.0,58.0,41.0,0.669922,0.072693,-0.738525,0.022095,0.053435,-0.351145,-0.038168,7.305737,-0.669922,-1.716675,-2.422485,-1.303955,-0.722559,1.112549,-1.006079,-2.415308,goodbye
1616136686.209117,1,12.0,43.0,52.0,57.0,41.0,0.664795,0.072693,-0.743103,0.022339,0.015267,-0.450382,0.045802,7.376318,-0.375635,-1.588672,-2.337549,-0.996509,-0.460571,0.836206,-0.741699,-2.326782,goodbye
1616136686.219333,1,13.0,41.0,52.0,57.0,36.0,0.658447,0.071594,-0.74884,0.022278,-0.045802,-0.541985,0.099237,7.299756,-0.014355,-1.764526,-2.394971,-0.611304,-0.471338,0.839795,-0.356494,-2.34353,goodbye
1616136686.2291772,1,15.0,41.0,49.0,54.0,36.0,0.650757,0.069824,-0.755798,0.021423,-0.114504,-0.618321,0.122137,7.455274,0.607715,-2.064795,-2.213135,0.033496,-0.573022,0.874487,0.275146,-2.093506,goodbye
1616136686.2385907,1,12.0,37.0,45.0,47.0,32.0,0.643311,0.066833,-0.762451,0.019165,-0.229008,-0.580153,0.145038,8.009155,1.317114,-2.06958,-1.629346,0.759644,-0.387598,0.549097,0.922339,-1.491772,goodbye
1616136686.2492175,1,9.0,33.0,40.0,46.0,58.0,0.638611,0.062683,-0.766846,0.015564,-0.343511,-0.351145,0.145038,8.505615,1.848267,-1.958325,-1.111353,1.296777,-0.155518,0.197388,1.386499,-0.988135,goodbye
1616136686.2586558,1,11.0,27.0,31.0,30.0,17.0,0.637268,0.057251,-0.768433,0.011414,-0.419847,-0.068702,0.145038,8.872876,1.801611,-2.154517,-0.736914,1.2573,-0.31582,0.313428,1.330273,-0.593359,goodbye
1616136686.2692297,1,8.0,22.0,21.0,17.0,5.0,0.638916,0.051147,-0.767517,0.008179,-0.396947,0.206107,0.167939,9.673193,1.294385,-2.336353,0.052637,0.776392,-0.53833,0.448608,0.809888,0.19021,goodbye
1616136686.2785995,1,11.0,10.0,12.0,-2.0,-6.0,0.644287,0.045044,-0.763428,0.00708,-0.29771,0.48855,0.206107,10.596728,0.608911,-2.319604,0.949854,0.145947,-0.655566,0.474927,0.132788,1.052734,goodbye
1616136686.288535,1,9.0,8.0,1.0,-10.0,-6.0,0.652649,0.039612,-0.756592,0.008118,-0.167939,0.70229,0.229008,11.432935,0.156714,-1.831519,1.747778,-0.228491,-0.38042,0.137573,-0.289502,1.774097,goodbye
1616136686.2983882,1,3.0,-4.0,-6.0,-19.0,-15.0,0.661743,0.035156,-0.74884,0.010498,-0.068702,0.694656,0.274809,11.078833,0.41272,-1.18313,1.358984,0.110059,0.031104,-0.203369,0.055029,1.347021,goodbye
1616136686.308606,1,6.0,-4.0,-7.0,-22.0,-16.0,0.668274,0.030701,-0.743164,0.01239,-0.129771,0.381679,0.328244,10.28689,0.897217,-0.289502,0.544312,0.674707,0.753662,-0.846973,0.6125,0.474927,goodbye
1616136686.318608,1,5.0,-5.0,-11.0,-17.0,-15.0,0.669922,0.024109,-0.741943,0.013306,-0.267176,-0.068702,0.396947,10.361059,1.102978,0.650781,0.6125,0.979761,1.650879,-1.75376,0.880469,0.452197,goodbye
1616136686.3284202,1,4.0,-6.0,-13.0,-16.0,-15.0,0.668396,0.016174,-0.74353,0.012512,-0.396947,-0.244275,0.335878,11.090796,0.823047,0.513208,1.345825,0.79314,1.552783,-1.716675,0.71897,1.174756,goodbye
1616136686.338739,1,6.0,4.0,-4.0,-10.0,-11.0,0.666565,0.009216,-0.7453,0.011108,-0.335878,-0.129771,0.206107,12.302637,0.10647,0.101685,2.562451,0.147144,1.190308,-1.471436,0.114844,2.412915,goodbye
1616136686.3485105,1,6.0,8.0,-1.0,-6.0,-6.0,0.667053,0.005493,-0.744934,0.01062,-0.122137,0.045802,0.045802,13.398438,-0.86731,0.185425,3.657056,-0.783569,1.262085,-1.638916,-0.789551,3.502734,goodbye
1616136686.3584116,1,8.0,11.0,-1.0,-3.0,-4.0,0.667725,0.007019,-0.744263,0.012695,0.244275,-0.076336,-0.137405,14.295654,-1.806396,0.708203,4.553076,-1.71189,1.765723,-2.199975,-1.73103,4.350904,goodbye
1616136686.3682814,1,9.0,15.0,1.0,6.0,1.0,0.665405,0.016235,-0.746094,0.017883,0.725191,-0.389313,-0.366412,15.442896,-2.089917,2.64021,5.706299,-2.039673,3.755151,-4.27793,-2.220313,5.251709,goodbye
1616136686.3783443,1,12.0,16.0,8.0,10.0,10.0,0.668884,0.030212,-0.74231,0.025024,0.954198,0.229008,-0.412214,15.69292,-2.710791,2.454785,5.945557,-2.741894,3.472827,-3.84248,-3.069678,5.542407,goodbye
1616136686.3888278,1,15.0,25.0,12.0,23.0,21.0,0.6745,0.044434,-0.735779,0.041138,1.473282,0.763359,-0.114504,12.23086,-4.056616,-1.476221,2.466748,-4.050635,-0.625659,0.894824,-3.969287,2.513403,goodbye
1616136686.39849,1,12.0,32.0,31.0,35.0,21.0,0.675171,0.059387,-0.732605,0.062805,1.580153,0.458015,0.19084,4.976562,-2.040869,-4.986133,-4.791138,-1.924829,-4.197778,4.841382,-1.161597,-4.414307,goodbye
1616136686.4086573,1,12.0,39.0,42.0,44.0,38.0,0.668945,0.069763,-0.736328,0.073669,0.717557,-0.381679,0.236641,-0.979761,1.870996,-4.782763,-10.734302,2.019336,-3.859229,4.377222,2.800513,-10.351489,goodbye
1616136686.418425,1,13.0,42.0,53.0,57.0,42.0,0.655701,0.072815,-0.74823,0.069824,-0.236641,-1.290076,0.160305,-0.430664,5.243335,-3.409424,-10.145727,5.330664,-2.131787,2.313623,5.824731,-9.827515,goodbye
1616136686.4285097,1,1.0,44.0,57.0,57.0,40.0,0.643066,0.069519,-0.760376,0.05896,-0.679389,-1.160305,0.030534,4.880859,4.251611,-1.069482,-4.782763,4.254004,0.556274,-0.529956,4.226489,-4.809082,goodbye
1616136686.4385872,1,15.0,46.0,52.0,58.0,42.0,0.63855,0.062012,-0.765198,0.053589,-0.51145,-0.236641,0.068702,8.78435,0.98335,-2.335156,-0.856543,1.010864,-0.582593,0.551489,1.113745,-0.740503,goodbye
1616136686.448543,1,17.0,45.0,57.0,58.0,43.0,0.644165,0.058289,-0.760803,0.053467,-0.114504,0.679389,-0.10687,11.651855,-0.251221,-2.569629,1.984644,-0.189014,-0.958228,0.638818,-0.075366,2.116235,goodbye
1616136686.4584117,1,16.0,45.0,57.0,57.0,42.0,0.657349,0.061768,-0.74939,0.050171,-0.022901,1.167939,-0.526718,11.843262,-0.330176,-2.841187,2.127002,-0.388794,-1.558765,1.314722,-0.196191,2.310034,goodbye
1616136686.4683137,1,12.0,48.0,59.0,57.0,44.0,0.672119,0.069153,-0.735901,0.043457,-0.038168,1.251908,-0.801527,10.776172,-0.650781,-2.92373,1.022827,-0.934302,-2.014551,2.040869,-0.649585,1.177148,goodbye
1616136686.4785054,1,17.0,48.0,58.0,61.0,42.0,0.685608,0.077026,-0.723022,0.035583,-0.068702,1.129771,-0.854962,9.246119,-1.153223,-3.014648,-0.522778,-1.683179,-2.452393,2.711987,-1.240552,-0.471338,goodbye
1616136686.4883423,1,18.0,47.0,58.0,62.0,43.0,0.695679,0.084229,-0.71283,0.028442,-0.045802,0.80916,-0.740458,7.099976,-1.648486,-2.889038,-2.666528,-2.39856,-2.589966,2.985938,-1.737012,-2.762231,goodbye
1616136686.498433,1,17.0,48.0,57.0,60.0,42.0,0.699768,0.088623,-0.708435,0.024109,-0.022901,0.236641,-0.396947,4.638013,-1.934399,-2.5146,-5.120117,-2.814868,-2.323193,2.767017,-1.929614,-5.305542,goodbye
1616136686.5085857,1,16.0,44.0,53.0,57.0,42.0,0.696472,0.089233,-0.71167,0.022827,-0.022901,-0.442748,-0.022901,2.802905,-1.809985,-2.042065,-6.951636,-2.709595,-1.758545,2.263379,-1.725049,-7.116724,goodbye
1616136686.5184004,1,16.0,46.0,54.0,60.0,42.0,0.686096,0.086792,-0.721924,0.023499,-0.045802,-1.007634,0.236641,2.55647,-1.546802,-1.899707,-7.190894,-2.380615,-1.336255,2.004981,-1.467847,-7.278223,goodbye
1616136686.5284,1,13.0,42.0,51.0,57.0,42.0,0.671753,0.082275,-0.735718,0.025208,-0.076336,-1.21374,0.374046,4.457373,-1.113745,-1.910474,-5.269653,-1.832715,-0.967798,1.678394,-1.202271,-5.272046,goodbye
1616136686.5385137,1,15.0,37.0,48.0,54.0,37.0,0.658813,0.076843,-0.747864,0.026855,-0.122137,-1.0,0.396947,7.497144,-0.307446,-1.9021,-2.199975,-0.905591,-0.623267,1.010864,-0.629248,-2.150928,goodbye
1616136686.548348,1,17.0,37.0,38.0,47.0,30.0,0.651978,0.072021,-0.754333,0.026978,-0.183206,-0.465649,0.290076,10.309619,1.068286,-1.241748,0.631641,0.546704,0.211743,-0.373242,0.46416,0.620874,goodbye
1616136686.558417,1,14.0,26.0,26.0,30.0,20.0,0.653625,0.067627,-0.753357,0.02478,-0.312977,0.152672,0.198473,11.27622,1.975073,-0.800317,1.591064,1.473828,0.6125,-1.015649,1.270459,1.558765,goodbye
1616136686.5684,1,16.0,19.0,15.0,21.0,8.0,0.658997,0.062134,-0.749268,0.021484,-0.396947,0.450382,0.175573,10.469922,2.397363,-1.239355,0.765625,1.909277,0.039478,-0.364868,1.8375,0.846973,goodbye
1616136686.5782273,1,13.0,13.0,4.0,2.0,-6.0,0.665039,0.05658,-0.744446,0.018311,-0.40458,0.549618,0.152672,9.753345,2.277734,-1.848267,0.028711,1.806396,-0.722559,0.514404,1.865015,0.197388,goodbye
1616136686.5883825,1,10.0,-3.0,-1.0,-8.0,-10.0,0.671326,0.050476,-0.739319,0.014954,-0.435115,0.541985,0.137405,9.646875,1.920044,-1.8698,-0.095703,1.471436,-0.906787,0.768018,1.549194,0.061011,goodbye
1616136686.598585,1,8.0,-4.0,-8.0,-16.0,-17.0,0.677979,0.044373,-0.733643,0.012268,-0.389313,0.51145,0.152672,9.728223,1.661646,-0.985742,-0.031104,1.24773,-0.197388,0.095703,1.258496,0.037085,goodbye
1616136686.608466,1,6.0,-5.0,-13.0,-17.0,-15.0,0.683472,0.038086,-0.728943,0.010132,-0.374046,0.290076,0.229008,9.014038,1.746582,0.172266,-0.758447,1.380518,0.814673,-0.858936,1.353003,-0.757251,goodbye
1616136686.6183326,1,5.0,-6.0,-16.0,-17.0,-23.0,0.684204,0.030334,-0.728577,0.008545,-0.412214,-0.183206,0.351145,9.241333,1.626953,1.311133,-0.533545,1.34104,1.933203,-1.967896,1.251318,-0.614893,goodbye
1616136686.6285212,1,5.0,-8.0,-17.0,-21.0,-26.0,0.680725,0.020508,-0.732178,0.00824,-0.435115,-0.48855,0.458015,10.131372,1.065894,1.732227,0.358887,0.910376,2.447608,-2.501441,0.803906,0.192603,goodbye
1616136686.6383336,1,6.0,-10.0,-19.0,-18.0,-24.0,0.675476,0.010254,-0.737244,0.008362,-0.427481,-0.503817,0.442748,10.63501,0.416309,1.235767,0.872095,0.400757,2.091113,-2.168872,0.342139,0.68667,goodbye
1616136686.6484208,1,4.0,-11.0,-20.0,-18.0,-23.0,0.670471,0.001465,-0.741882,0.009399,-0.282443,-0.396947,0.396947,10.80249,-0.318213,0.57063,1.052734,-0.19978,1.557568,-1.652075,-0.212939,0.892432,goodbye
1616136686.6583014,1,3.0,-12.0,-15.0,-21.0,-24.0,0.666931,-0.004517,-0.744995,0.012451,-0.068702,-0.259542,0.328244,10.859912,-0.873291,0.135181,1.122119,-0.631641,1.213037,-1.323096,-0.619678,0.996509,goodbye
1616136686.6686227,1,7.0,-11.0,-19.0,-19.0,-16.0,0.664917,-0.007568,-0.746704,0.016357,0.076336,-0.145038,0.236641,10.938868,-0.995313,-0.247632,1.209448,-0.656763,0.881665,-1.008472,-0.628052,1.120923,goodbye
1616136686.6782515,1,7.0,-15.0,-23.0,-22.0,-23.0,0.664062,-0.008118,-0.747375,0.020081,0.160305,-0.053435,0.145038,10.978345,-0.852954,-0.500049,1.253711,-0.452197,0.648389,-0.784766,-0.415112,1.185522,goodbye
1616136686.6884985,1,5.0,-13.0,-13.0,-20.0,-17.0,0.66394,-0.007019,-0.747375,0.023071,0.183206,0.0,0.053435,10.923315,-0.674707,-0.681885,1.199878,-0.245239,0.466553,-0.599341,-0.206958,1.146045,goodbye
1616136686.6984515,1,7.0,-11.0,-20.0,-21.0,-23.0,0.664368,-0.005249,-0.747009,0.025146,0.167939,0.038168,-0.007634,10.815649,-0.56106,-0.868506,1.089819,-0.124414,0.267969,-0.38999,-0.087329,1.055127,goodbye
1616136686.7083385,1,6.0,-13.0,-22.0,-20.0,-23.0,0.665283,-0.003418,-0.746094,0.026672,0.137405,0.091603,-0.030534,10.65415,-0.5479,-1.055127,0.927124,-0.112451,0.055029,-0.156714,-0.076563,0.91875,goodbye
1616136686.7184944,1,7.0,-11.0,-20.0,-21.0,-15.0,0.666748,-0.002136,-0.744751,0.027649,0.083969,0.137405,-0.022901,10.357471,-0.522778,-1.246533,0.625659,-0.090918,-0.174658,0.10647,-0.058618,0.643604,goodbye
1616136686.7284293,1,6.0,-13.0,-22.0,-17.0,-16.0,0.668335,-0.001709,-0.743347,0.028015,0.015267,0.152672,-0.007634,9.87417,-0.433057,-1.473828,0.137573,-0.002393,-0.442627,0.424683,0.020337,0.183032,goodbye
1616136686.7382755,1,5.0,-9.0,-23.0,-20.0,-15.0,0.669495,-0.002197,-0.74231,0.027527,-0.061069,0.114504,0.007634,9.287989,-0.324194,-1.685571,-0.451001,0.104077,-0.685474,0.723755,0.111255,-0.382812,goodbye
1616136686.7483978,1,7.0,-13.0,-20.0,-20.0,-16.0,0.669861,-0.003601,-0.742004,0.026306,-0.129771,0.045802,0.015267,8.80708,-0.319409,-1.835107,-0.931909,0.110059,-0.843384,0.930713,0.100488,-0.84458,goodbye
1616136686.7585008,1,5.0,-9.0,-20.0,-18.0,-16.0,0.669495,-0.005737,-0.742432,0.024841,-0.167939,-0.015267,0.030534,8.602514,-0.497656,-1.880566,-1.136475,-0.059814,-0.87688,0.990527,-0.081348,-1.035986,goodbye
1616136686.768363,1,6.0,-11.0,-23.0,-17.0,-15.0,0.668701,-0.008301,-0.743103,0.023682,-0.160305,-0.045802,0.053435,8.653955,-0.76084,-1.819556,-1.081445,-0.30625,-0.794336,0.90918,-0.333765,-0.976172,goodbye
1616136686.7784712,1,5.0,-15.0,-22.0,-21.0,-15.0,0.667969,-0.010742,-0.743774,0.023071,-0.129771,-0.038168,0.061069,8.847754,-0.964209,-1.720264,-0.884058,-0.48689,-0.674707,0.772803,-0.513208,-0.781177,goodbye
1616136686.788416,1,5.0,-11.0,-19.0,-20.0,-11.0,0.667725,-0.012756,-0.743958,0.022766,-0.091603,0.0,0.045802,9.110937,-1.043164,-1.580298,-0.619678,-0.543115,-0.52876,0.598145,-0.563452,-0.529956,goodbye
1616136686.7985425,1,7.0,-9.0,-19.0,-19.0,-13.0,0.668213,-0.013916,-0.74353,0.022522,-0.061069,0.053435,0.015267,9.323877,-1.013257,-1.428369,-0.407935,-0.502441,-0.388794,0.434253,-0.515601,-0.337354,goodbye
