timestamp,user_id,flex_1,flex_2,flex_3,flex_4,flex_5,Qw,Qx,Qy,Qz,GYRx,GYRy,GYRz,ACCx,ACCy,ACCz,ACCx_body,ACCy_body,ACCz_body,ACCx_world,ACCy_world,ACCz_world,Alphabet
1616135980.6017454,1,10.0,7.0,-7.0,-8.0,-4.0,0.72113,0.287231,-0.630371,0.011047,-0.007634,0.0,0.007634,8.994898,3.880762,0.186621,0.022729,-0.04187,-0.206958,0.206958,0.045459,-0.003589,good
1616135980.6116903,1,8.0,1.0,-8.0,-7.0,-1.0,0.72113,0.287048,-0.630432,0.011108,-0.015267,0.0,0.007634,8.993701,3.896313,0.193799,0.020337,-0.022729,-0.200977,0.193799,0.059814,0.001196,good
1616135980.621628,1,9.0,5.0,-8.0,-7.0,-3.0,0.72113,0.286804,-0.630554,0.011108,-0.015267,0.0,0.007634,8.991308,3.898706,0.185425,0.015552,-0.016748,-0.209351,0.197388,0.069385,0.0,good
1616135980.6310887,1,10.0,3.0,-10.0,-7.0,-3.0,0.72113,0.286621,-0.630615,0.011108,-0.015267,0.0,0.0,8.99729,3.891528,0.184229,0.021533,-0.021533,-0.210547,0.202173,0.063403,0.002393,good
1616135980.64174,1,7.0,5.0,-7.0,-7.0,-3.0,0.721191,0.286438,-0.630676,0.011108,-0.015267,0.0,0.0,9.02002,3.884351,0.19021,0.04187,-0.026318,-0.205762,0.203369,0.05144,0.019141,good
1616135980.6508708,1,10.0,2.0,-11.0,-9.0,-3.0,0.721191,0.286255,-0.630676,0.011169,-0.015267,0.0,0.007634,9.040357,3.883154,0.189014,0.062207,-0.023926,-0.208154,0.209351,0.046655,0.038281,good
1616135980.661795,1,9.0,4.0,-8.0,-11.0,-1.0,0.721252,0.286072,-0.630737,0.011292,-0.007634,0.007634,0.007634,9.037964,3.878369,0.183032,0.057422,-0.025122,-0.215332,0.215332,0.050244,0.033496,good
1616135980.6709747,1,9.0,3.0,-8.0,-7.0,-3.0,0.721252,0.28595,-0.630798,0.011414,-0.007634,0.0,0.007634,9.027197,3.87478,0.183032,0.045459,-0.026318,-0.215332,0.212939,0.053833,0.021533,good
1616135980.681713,1,8.0,7.0,-7.0,-10.0,-1.0,0.721252,0.285767,-0.630859,0.011475,-0.007634,0.0,0.007634,9.027197,3.872388,0.186621,0.044263,-0.025122,-0.211743,0.209351,0.053833,0.021533,good
1616135980.691684,1,9.0,2.0,-7.0,-10.0,-4.0,0.721252,0.285583,-0.630981,0.011597,-0.007634,0.0,0.007634,9.031982,3.873584,0.194995,0.046655,-0.019141,-0.202173,0.198584,0.053833,0.026318,good
1616135980.7016644,1,8.0,4.0,-8.0,-9.0,-3.0,0.721252,0.2854,-0.631042,0.011658,-0.015267,0.0,0.007634,9.035571,3.864014,0.205762,0.049048,-0.026318,-0.192603,0.193799,0.043066,0.026318,good
1616135980.7110984,1,8.0,5.0,-8.0,-8.0,-1.0,0.721313,0.285156,-0.631042,0.01178,-0.015267,0.0,0.007634,9.042749,3.856836,0.214136,0.055029,-0.028711,-0.186621,0.19021,0.035889,0.031104,good
1616135980.721103,1,9.0,4.0,-7.0,-9.0,0.0,0.721313,0.284973,-0.631104,0.011841,-0.007634,0.0,0.007634,9.047534,3.847266,0.198584,0.058618,-0.034692,-0.202173,0.206958,0.035889,0.031104,good
1616135980.7311184,1,7.0,5.0,-11.0,-10.0,-3.0,0.721313,0.28479,-0.631165,0.011963,-0.007634,0.0,0.007634,9.05232,3.830518,0.187817,0.062207,-0.046655,-0.212939,0.22251,0.029907,0.028711,good
1616135980.7417564,1,9.0,5.0,-6.0,-7.0,0.0,0.721375,0.284607,-0.631226,0.012085,-0.007634,0.0,0.007634,9.055908,3.811377,0.197388,0.063403,-0.062207,-0.204565,0.220117,0.013159,0.025122,good
1616135980.751046,1,9.0,3.0,-6.0,-10.0,-4.0,0.721436,0.284424,-0.631226,0.012268,-0.007634,0.007634,0.007634,9.047534,3.792236,0.198584,0.052637,-0.077759,-0.205762,0.224902,0.003589,0.008374,good
1616135980.7608728,1,8.0,3.0,-8.0,-7.0,-4.0,0.721497,0.284302,-0.631226,0.012451,-0.007634,0.007634,0.007634,9.031982,3.779077,0.196191,0.035889,-0.086133,-0.209351,0.228491,0.003589,-0.00957,good
1616135980.7709296,1,12.0,5.0,-7.0,-9.0,-1.0,0.721558,0.284119,-0.631226,0.012573,-0.007634,0.007634,0.007634,9.023608,3.762329,0.200977,0.026318,-0.099292,-0.206958,0.229687,-0.003589,-0.022729,good
1616135980.7809432,1,9.0,5.0,-8.0,-11.0,-4.0,0.721558,0.284058,-0.631226,0.012695,-0.007634,0.007634,0.0,9.017627,3.747974,0.210547,0.019141,-0.111255,-0.197388,0.223706,-0.015552,-0.033496,good
1616135980.7916224,1,10.0,5.0,-7.0,-7.0,-4.0,0.721619,0.283936,-0.631226,0.012817,-0.007634,0.007634,0.0,9.015234,3.743188,0.224902,0.015552,-0.113647,-0.184229,0.211743,-0.021533,-0.037085,good
1616135980.8011725,1,9.0,4.0,-8.0,-7.0,-1.0,0.72168,0.283813,-0.631226,0.012817,-0.007634,0.0,0.0,9.011645,3.743188,0.236865,0.010767,-0.112451,-0.173462,0.200977,-0.023926,-0.040674,good
1616135980.8110352,1,8.0,5.0,-10.0,-7.0,-2.0,0.721741,0.283752,-0.631165,0.012878,-0.007634,0.0,0.0,9.015234,3.737207,0.235669,0.014355,-0.117236,-0.177051,0.206958,-0.027515,-0.039478,good
1616135980.8209789,1,9.0,3.0,-10.0,-8.0,-1.0,0.721741,0.283752,-0.631165,0.012878,-0.007634,0.0,-0.007634,9.021215,3.736011,0.229687,0.020337,-0.118433,-0.183032,0.214136,-0.027515,-0.034692,good
1616135980.8318412,1,7.0,5.0,-10.0,-7.0,-3.0,0.721741,0.283752,-0.631165,0.012939,0.0,0.0,-0.007634,9.028394,3.744385,0.23208,0.027515,-0.108862,-0.18064,0.209351,-0.022729,-0.025122,good
1616135980.840948,1,11.0,4.0,-8.0,-8.0,-5.0,0.721802,0.283752,-0.631104,0.013,0.0,0.007634,-0.007634,9.031982,3.761133,0.234473,0.031104,-0.092114,-0.18064,0.203369,-0.010767,-0.014355,good
1616135980.8510375,1,8.0,3.0,-8.0,-7.0,-3.0,0.721802,0.283813,-0.631042,0.013123,0.0,0.007634,-0.007634,9.037964,3.785058,0.226099,0.037085,-0.066992,-0.189014,0.203369,0.010767,0.0,good
1616135980.8608425,1,8.0,5.0,-8.0,-8.0,-5.0,0.721863,0.283875,-0.630981,0.013184,0.0,0.007634,-0.007634,9.040357,3.81377,0.236865,0.039478,-0.039478,-0.179443,0.184229,0.029907,0.011963,good
1616135980.871087,1,10.0,4.0,-7.0,-12.0,-4.0,0.721924,0.283936,-0.63092,0.013184,-0.007634,0.007634,-0.007634,9.036768,3.824536,0.24165,0.035889,-0.029907,-0.175854,0.177051,0.037085,0.013159,good
1616135980.8811052,1,9.0,3.0,-10.0,-10.0,-4.0,0.721985,0.283875,-0.630859,0.013245,-0.007634,0.007634,0.0,9.027197,3.82334,0.248828,0.025122,-0.029907,-0.171069,0.169873,0.038281,0.003589,good
1616135980.891174,1,8.0,6.0,-8.0,-8.0,-3.0,0.722046,0.283875,-0.630798,0.013306,0.0,0.007634,0.0,9.016431,3.814966,0.250024,0.014355,-0.037085,-0.171069,0.171069,0.035889,-0.008374,good
1616135980.9010842,1,9.0,6.0,-8.0,-7.0,-3.0,0.722046,0.283875,-0.630737,0.013428,0.0,0.007634,0.0,9.011645,3.804199,0.263184,0.00957,-0.046655,-0.159106,0.162695,0.025122,-0.015552,good
1616135980.9109545,1,9.0,6.0,-7.0,-7.0,-5.0,0.722107,0.283997,-0.630676,0.01355,0.007634,0.0,0.0,8.999682,3.807788,0.282324,-0.001196,-0.043066,-0.141162,0.142358,0.023926,-0.023926,good
1616135980.921134,1,9.0,6.0,-10.0,-9.0,-5.0,0.722046,0.284119,-0.630615,0.013672,0.007634,0.0,0.0,8.994898,3.819751,0.302661,-0.004785,-0.031104,-0.119629,0.118433,0.026318,-0.021533,good
1616135980.9310942,1,5.0,5.0,-27.0,-7.0,5.0,0.722107,0.28418,-0.630554,0.013794,0.007634,0.0,0.0,8.993701,3.837695,0.332568,-0.007178,-0.013159,-0.090918,0.084937,0.029907,-0.015552,good
1616135980.9410152,1,11.0,1.0,-10.0,-7.0,1.0,0.722168,0.284241,-0.630493,0.013916,0.0,0.007634,0.0,8.999682,3.861621,0.346924,-0.001196,0.00957,-0.077759,0.065796,0.040674,0.0,good
1616135980.9509592,1,9.0,3.0,-10.0,-9.0,-3.0,0.722229,0.284241,-0.630371,0.013916,-0.007634,0.007634,0.0,9.006861,3.875977,0.351709,0.005981,0.023926,-0.075366,0.059814,0.050244,0.010767,good
1616135980.961049,1,10.0,5.0,-6.0,-8.0,-2.0,0.72229,0.284241,-0.63031,0.013977,-0.007634,0.007634,0.0,9.000879,3.872388,0.351709,0.0,0.020337,-0.076563,0.061011,0.049048,0.003589,good
1616135980.9710467,1,10.0,5.0,-10.0,-11.0,-4.0,0.722412,0.28418,-0.630249,0.013977,-0.007634,0.007634,0.0,8.994898,3.854443,0.355298,-0.005981,0.002393,-0.076563,0.065796,0.035889,-0.007178,good
1616135980.9807663,1,11.0,4.0,-8.0,-7.0,-2.0,0.722473,0.284119,-0.630188,0.014038,-0.007634,0.0,0.0,8.981738,3.831714,0.35769,-0.019141,-0.017944,-0.075366,0.070581,0.022729,-0.027515,good
1616135980.990992,1,6.0,5.0,-10.0,-9.0,-1.0,0.722473,0.284058,-0.630188,0.014038,-0.007634,0.0,0.0,8.978149,3.820947,0.374438,-0.022729,-0.027515,-0.059814,0.058618,0.00957,-0.033496,good
1616135981.0008838,1,8.0,5.0,-7.0,-9.0,-6.0,0.722534,0.283997,-0.630127,0.014038,-0.007634,0.0,-0.007634,8.973364,3.850854,0.38042,-0.027515,0.001196,-0.055029,0.043066,0.033496,-0.026318,good
1616135981.0108497,1,9.0,5.0,-10.0,-9.0,-1.0,0.722595,0.283997,-0.630127,0.013855,-0.015267,-0.007634,-0.007634,8.981738,3.86521,0.392383,-0.019141,0.013159,-0.044263,0.029907,0.035889,-0.014355,good
1616135981.021068,1,9.0,5.0,-10.0,-9.0,-2.0,0.722595,0.283875,-0.630127,0.013672,-0.015267,0.0,-0.007634,8.990112,3.862817,0.38999,-0.00957,0.010767,-0.047852,0.037085,0.0323,-0.005981,good
1616135981.031113,1,8.0,7.0,-5.0,-7.0,-4.0,0.722656,0.283752,-0.630127,0.01355,-0.015267,0.0,-0.007634,8.990112,3.864014,0.382812,-0.00957,0.011963,-0.056226,0.044263,0.037085,-0.005981,good
1616135981.0409305,1,11.0,3.0,-8.0,-7.0,-3.0,0.722656,0.283691,-0.630127,0.013489,-0.007634,0.0,0.0,8.993701,3.873584,0.375635,-0.005981,0.021533,-0.063403,0.047852,0.046655,0.0,good
1616135981.0510137,1,8.0,38.0,-8.0,-8.0,-2.0,0.722656,0.28363,-0.630127,0.013428,-0.007634,0.0,0.0,9.002075,3.903491,0.373242,0.001196,0.05144,-0.065796,0.039478,0.070581,0.017944,good
1616135981.0608842,1,9.0,5.0,-7.0,-8.0,-3.0,0.722717,0.283508,-0.630127,0.013306,-0.015267,-0.007634,0.0,9.003271,3.946558,0.375635,0.002393,0.094507,-0.065796,0.023926,0.10647,0.035889,good
1616135981.0709262,1,7.0,4.0,-8.0,-8.0,-1.0,0.722717,0.283447,-0.630188,0.013062,-0.022901,-0.007634,-0.007634,9.016431,3.970483,0.374438,0.016748,0.11604,-0.065796,0.019141,0.119629,0.057422,good
1616135981.0808914,1,9.0,6.0,-9.0,-10.0,-3.0,0.722778,0.283264,-0.630249,0.012878,-0.022901,-0.007634,0.0,9.041553,3.983643,0.367261,0.040674,0.129199,-0.07417,0.026318,0.12561,0.08374,good
1616135981.0909374,1,7.0,5.0,-7.0,-8.0,-3.0,0.722778,0.28302,-0.63031,0.012634,-0.022901,-0.007634,0.0,9.064282,3.992017,0.340942,0.0646,0.137573,-0.101685,0.052637,0.136377,0.107666,good
1616135981.100934,1,9.0,4.0,-10.0,-9.0,-3.0,0.722778,0.282715,-0.630432,0.012451,-0.022901,-0.007634,0.007634,9.076245,3.996802,0.320605,0.075366,0.144751,-0.122021,0.070581,0.147144,0.119629,good
1616135981.1109917,1,9.0,3.0,-6.0,-8.0,-4.0,0.722778,0.28241,-0.630615,0.012329,-0.022901,-0.007634,0.007634,9.096582,4.000391,0.297876,0.094507,0.151929,-0.143555,0.092114,0.155518,0.139966,good
1616135981.120902,1,9.0,5.0,-6.0,-8.0,-2.0,0.722778,0.282104,-0.630737,0.012207,-0.022901,-0.007634,0.007634,9.130078,4.00398,0.295483,0.126807,0.15791,-0.145947,0.098096,0.150732,0.171069,good
1616135981.1309483,1,9.0,3.0,-12.0,-9.0,-3.0,0.722839,0.281799,-0.630798,0.012207,-0.022901,0.0,0.015267,9.151611,4.018335,0.281128,0.147144,0.175854,-0.162695,0.111255,0.166284,0.196191,good
1616135981.1407804,1,9.0,1.0,-11.0,-9.0,-3.0,0.722961,0.281433,-0.630859,0.012207,-0.022901,0.007634,0.015267,9.142041,4.029101,0.252417,0.135181,0.191406,-0.193799,0.131592,0.196191,0.19021,good
1616135981.1508582,1,9.0,4.0,-10.0,-9.0,-3.0,0.723022,0.281067,-0.63092,0.012146,-0.030534,0.007634,0.015267,9.140844,4.020728,0.240454,0.132788,0.187817,-0.208154,0.144751,0.200977,0.185425,good
1616135981.160763,1,9.0,3.0,-7.0,-7.0,-2.0,0.723206,0.280579,-0.63092,0.012146,-0.030534,0.007634,0.015267,9.120508,4.018335,0.24165,0.110059,0.19021,-0.212939,0.143555,0.211743,0.165088,good
1616135981.170769,1,7.0,4.0,-7.0,-9.0,-3.0,0.723389,0.280029,-0.630981,0.012024,-0.038168,0.007634,0.015267,9.096582,4.017138,0.239258,0.08374,0.194995,-0.220117,0.143555,0.228491,0.142358,good
1616135981.180726,1,8.0,3.0,-12.0,-8.0,-2.0,0.723633,0.279358,-0.630981,0.011841,-0.053435,0.007634,0.015267,9.078638,3.994409,0.250024,0.063403,0.178247,-0.215332,0.141162,0.218921,0.117236,good
1616135981.1910532,1,9.0,3.0,-11.0,-8.0,-4.0,0.723938,0.278625,-0.630981,0.011536,-0.053435,0.007634,0.015267,9.05232,3.952539,0.257202,0.035889,0.141162,-0.216528,0.150732,0.197388,0.076563,good
1616135981.2008102,1,1.0,3.0,-8.0,-8.0,-5.0,0.724243,0.277893,-0.630981,0.011292,-0.053435,0.007634,0.015267,9.028394,3.898706,0.263184,0.00957,0.093311,-0.218921,0.166284,0.166284,0.033496,good
1616135981.2108245,1,10.0,3.0,-10.0,-8.0,-2.0,0.724548,0.277161,-0.63092,0.011047,-0.053435,0.015267,0.007634,9.000879,3.84248,0.284717,-0.017944,0.043066,-0.206958,0.16748,0.128003,-0.00957,good
1616135981.2207987,1,8.0,6.0,-8.0,-7.0,-3.0,0.724854,0.27655,-0.630859,0.010864,-0.045802,0.015267,0.007634,8.970972,3.798218,0.318213,-0.050244,0.002393,-0.181836,0.153125,0.093311,-0.053833,good
1616135981.2307768,1,7.0,7.0,-10.0,-8.0,-3.0,0.725281,0.275879,-0.630676,0.010681,-0.045802,0.015267,0.007634,8.924316,3.79104,0.401953,-0.098096,0.001196,-0.110059,0.078955,0.078955,-0.094507,good
1616135981.2408109,1,10.0,1.0,-10.0,-9.0,1.0,0.725891,0.275208,-0.630249,0.010254,-0.061069,0.022901,0.0,8.863306,3.923828,0.655566,-0.15791,0.133984,0.12561,-0.194995,0.113647,-0.086133,good
1616135981.2507815,1,9.0,7.0,-6.0,-9.0,-1.0,0.727051,0.274231,-0.629333,0.009094,-0.114504,0.038168,-0.015267,8.74248,4.20376,1.122119,-0.27395,0.407935,0.558667,-0.710596,0.208154,-0.061011,good
1616135981.260745,1,8.0,7.0,-8.0,-10.0,-3.0,0.729065,0.272583,-0.627747,0.00708,-0.19084,0.061069,-0.022901,8.524755,4.402344,1.815967,-0.483301,0.593359,1.196289,-1.400854,0.178247,-0.137573,good
1616135981.2709486,1,8.0,5.0,-11.0,-9.0,-3.0,0.731934,0.27002,-0.625549,0.004639,-0.236641,0.083969,-0.022901,8.250806,4.183423,2.789746,-0.747681,0.366064,2.088721,-2.19519,-0.277539,-0.393579,good
1616135981.2808602,1,11.0,5.0,-10.0,-8.0,-3.0,0.735718,0.266296,-0.622681,0.003296,-0.221374,0.122137,0.030534,7.963696,3.446509,4.233667,-1.032398,-0.352905,3.422583,-3.241943,-1.319507,-0.801514,good
1616135981.290695,1,7.0,-2.0,-10.0,-7.0,-3.0,0.740601,0.261475,-0.618958,0.003845,-0.175573,0.160305,0.122137,7.50791,2.561255,6.382202,-1.495361,-1.186719,5.431152,-4.926318,-2.677295,-1.300366,good
1616135981.3008893,1,8.0,7.0,-10.0,-9.0,0.0,0.746765,0.255432,-0.614014,0.005554,-0.19084,0.167939,0.198473,6.598731,2.210742,9.427954,-2.415308,-1.460669,8.296265,-7.70769,-3.752759,-1.811182,good
1616135981.3109753,1,6.0,5.0,-12.0,-13.0,-6.0,0.754272,0.247803,-0.607971,0.004883,-0.389313,0.083969,0.19084,4.616479,2.64978,12.125586,-4.395166,-0.954639,10.773779,-10.705591,-3.636719,-2.906982,good
1616135981.320788,1,11.0,5.0,-10.0,-8.0,-2.0,0.760315,0.239014,-0.603943,-0.002747,-0.725191,-0.267176,-0.022901,1.40564,3.280225,14.107837,-7.580884,-0.313428,12.576587,-13.526441,-2.586377,-5.102173,good
1616135981.3310676,1,8.0,5.0,-12.0,-11.0,-4.0,0.762207,0.22998,-0.604736,-0.02063,-1.053435,-0.900763,-0.40458,-2.34353,3.222803,15.563721,-11.284595,-0.456982,13.967871,-15.916626,-1.461865,-8.193384,good
1616135981.341068,1,8.0,5.0,-9.0,-10.0,-1.0,0.757385,0.221008,-0.612549,-0.047607,-1.229008,-1.625954,-0.770992,-5.597436,1.969092,15.863989,-14.483472,-1.882959,14.375806,-16.815039,-0.698633,-11.691333,good
1616135981.3510785,1,9.0,3.0,-10.0,-10.0,-1.0,0.74353,0.212463,-0.629089,-0.079041,-1.19084,-2.312977,-0.954198,-7.839282,-0.070581,14.533716,-16.677465,-4.140357,13.374512,-15.609179,-0.191406,-15.179712,good
1616135981.3609395,1,9.0,5.0,-10.0,-10.0,-3.0,0.719604,0.205627,-0.654114,-0.109619,-0.885496,-2.89313,-0.969466,-8.831006,-2.284912,11.867188,-17.614161,-6.590356,11.281006,-12.513184,-0.077759,-18.008936,good
1616135981.3712442,1,9.0,4.0,-10.0,-7.0,1.0,0.686035,0.20282,-0.68573,-0.134216,-0.29771,-3.244275,-0.885496,-8.74248,-4.085327,8.254395,-17.428736,-8.615674,8.475708,-8.035474,-0.337354,-19.625122,good
1616135981.380829,1,8.0,5.0,-10.0,-9.0,-1.0,0.645203,0.206421,-0.720337,-0.149231,0.442748,-3.282443,-0.78626,-7.840478,-4.294678,4.012353,-16.344898,-9.011645,5.217017,-2.880664,-0.101685,-19.164551,good
1616135981.390877,1,8.0,3.0,-10.0,-9.0,-3.0,0.600159,0.218018,-0.753723,-0.155701,1.068702,-3.038168,-0.755725,-6.242236,-2.499048,-0.34812,-14.442798,-7.363159,1.916455,1.845874,1.087427,-16.183399,good
1616135981.400877,1,9.0,4.0,-8.0,-10.0,-3.0,0.557251,0.233765,-0.781128,-0.157227,1.259542,-2.519084,-0.725191,-3.913062,0.905591,-3.521875,-11.723633,-4.054224,-0.291895,4.207349,2.928516,-11.300146,good
1616135981.4108844,1,7.0,5.0,-10.0,-8.0,-1.0,0.522034,0.249451,-0.799438,-0.161865,0.847328,-1.923664,-0.778626,-1.960718,5.602221,-6.08313,-9.348999,0.513208,-2.136572,4.927515,5.733813,-5.921631,good
1616135981.4207735,1,9.0,6.0,-7.0,-7.0,-5.0,0.494873,0.261292,-0.809753,-0.176392,-0.061069,-1.442748,-0.870229,-1.052734,9.314306,-9.35498,-8.003174,3.980054,-4.9646,6.437232,7.838086,-1.286011,good
1616135981.4308174,1,12.0,3.0,-26.0,-10.0,-5.0,0.473999,0.265076,-0.815063,-0.201965,-1.068702,-1.236641,-0.748092,-0.724951,12.041845,-12.071753,-7.247119,6.352295,-7.473218,8.017529,8.877661,2.368652,good
1616135981.4410586,1,9.0,4.0,-7.0,-7.0,-6.0,0.45697,0.259705,-0.817749,-0.234558,-1.687023,-1.259542,-0.503817,-0.185425,13.406812,-14.068359,-6.31521,7.320093,-9.438721,9.488965,8.182617,5.053125,good
1616135981.450699,1,13.0,4.0,-11.0,-7.0,-3.0,0.440369,0.249817,-0.820618,-0.265137,-1.625954,-1.312977,-0.358779,0.532349,12.117212,-15.536206,-5.251709,5.695532,-10.913745,10.887426,5.21582,5.778076,good
1616135981.4608877,1,10.0,5.0,-8.0,-10.0,-5.0,0.422119,0.241089,-0.826355,-0.284363,-0.916031,-1.282443,-0.282443,1.733423,9.207837,-16.614063,-3.75874,2.606714,-11.889917,11.493945,1.113745,5.378516,good
1616135981.4710376,1,8.0,4.0,-7.0,-8.0,-3.0,0.402649,0.237305,-0.835754,-0.288269,0.076336,-1.152672,-0.206107,3.249121,6.870288,-17.406006,-2.004981,0.275146,-12.411499,11.135058,-2.148535,5.433545,good
1616135981.4809375,1,10.0,4.0,-8.0,-9.0,-3.0,0.382263,0.239014,-0.848083,-0.278503,0.977099,-1.015267,-0.137405,4.873682,6.054419,-17.987402,-0.174658,-0.364868,-12.570605,9.997388,-3.799414,6.617871,good
1616135981.4907343,1,8.0,6.0,-4.0,-8.0,-3.0,0.362549,0.244263,-0.860962,-0.260132,1.480916,-0.839695,-0.061069,6.535327,6.836792,-18.380981,1.661646,0.710596,-12.48208,8.186206,-3.862817,8.781958,good
1616135981.5007486,1,10.0,6.0,-7.0,-9.0,-6.0,0.346191,0.250488,-0.871704,-0.240051,1.519084,-0.618321,-0.015267,7.950537,8.670703,-17.757715,3.213233,2.868701,-11.435328,5.459863,-2.561255,10.627832,good
1616135981.510733,1,8.0,5.0,-6.0,-8.0,-3.0,0.334961,0.256104,-0.878601,-0.224304,1.206107,-0.40458,-0.015267,8.813062,10.800097,-16.326954,4.170264,5.255298,-9.711474,2.568433,-0.626855,11.503515,good
1616135981.5207446,1,7.0,6.0,-7.0,-8.0,-4.0,0.328918,0.260315,-0.881653,-0.216125,0.671756,-0.21374,-0.061069,9.189893,12.643579,-14.567212,4.608106,7.230371,-7.803393,0.12561,1.166382,11.533422,good
1616135981.53082,1,11.0,3.0,-7.0,-10.0,-5.0,0.328003,0.262756,-0.881226,-0.21637,0.076336,-0.045802,-0.10687,9.29038,13.723828,-12.869678,4.738501,8.297461,-6.095093,-1.512109,2.233472,11.007055,good
1616135981.5408952,1,10.0,6.0,-7.0,-8.0,-1.0,0.331421,0.263245,-0.878113,-0.223267,-0.435115,0.10687,-0.129771,9.127686,13.820727,-11.55376,4.574609,8.267553,-4.882056,-2.118628,2.442822,10.131372,good
1616135981.5508037,1,12.0,6.0,-7.0,-8.0,-4.0,0.337463,0.262207,-0.873169,-0.234375,-0.778626,0.21374,-0.137405,8.655151,13.15918,-10.809668,4.084131,7.413404,-4.317407,-1.738208,2.06001,9.109741,good
1616135981.560708,1,9.0,5.0,-9.0,-7.0,-3.0,0.344299,0.260315,-0.867615,-0.246887,-0.916031,0.259542,-0.137405,7.944556,11.712866,-10.590747,3.348413,5.757739,-4.307837,-0.594556,1.119727,7.829712,good
1616135981.570891,1,11.0,5.0,-7.0,-10.0,-4.0,0.35022,0.25824,-0.862854,-0.257263,-0.80916,0.244275,-0.10687,7.170557,9.608594,-10.585962,2.549292,3.48479,-4.486084,0.797925,-0.216528,6.170459,good
1616135981.5807717,1,9.0,6.0,-8.0,-7.0,-3.0,0.35437,0.256653,-0.859863,-0.263,-0.503817,0.21374,-0.061069,6.468335,7.461255,-10.497437,1.818359,1.245337,-4.513598,1.920044,-1.452295,4.407129,good
1616135981.5899286,1,8.0,5.0,-8.0,-7.0,-3.0,0.356873,0.256104,-0.858826,-0.26355,-0.152672,0.175573,0.0,5.885742,5.852246,-10.179224,1.201074,-0.374438,-4.23606,2.52417,-2.170068,2.90459,good
1616135981.6006691,1,8.0,6.0,-25.0,-7.0,-1.0,0.358215,0.256592,-0.859192,-0.260071,0.129771,0.160305,0.038168,5.422778,5.032788,-9.633716,0.697437,-1.147241,-3.673804,2.616284,-2.244238,1.845874,good
1616135981.6101396,1,8.0,3.0,-10.0,-7.0,-5.0,0.358948,0.257812,-0.860107,-0.254761,0.274809,0.145038,0.061069,5.019629,4.9323,-8.964991,0.25481,-1.175952,-2.962012,2.368652,-1.775293,1.204663,good
1616135981.6201017,1,9.0,5.0,-7.0,-8.0,-3.0,0.359497,0.259277,-0.860962,-0.249695,0.282443,0.129771,0.061069,4.648779,5.237353,-8.238843,-0.14834,-0.80271,-2.192798,1.945166,-1.03479,0.784766,good
1616135981.629959,1,8.0,7.0,-6.0,-10.0,-3.0,0.360107,0.260559,-0.861328,-0.246094,0.198473,0.114504,0.045802,4.311426,5.671607,-7.565332,-0.510815,-0.321802,-1.492969,1.513306,-0.271558,0.476123,good
1616135981.6406963,1,9.0,3.0,-8.0,-8.0,-4.0,0.360962,0.261292,-0.861145,-0.24469,0.068702,0.091603,0.030534,4.061401,6.063989,-6.986328,-0.777588,0.084937,-0.912769,1.129297,0.337354,0.233276,good
1616135981.6500964,1,11.0,6.0,-10.0,-8.0,-2.0,0.362061,0.261414,-0.860535,-0.245178,-0.061069,0.076336,0.015267,3.942969,6.233862,-6.572412,-0.906787,0.242847,-0.519189,0.868506,0.628052,0.019141,good
1616135981.6600416,1,9.0,5.0,-8.0,-7.0,-4.0,0.363403,0.261047,-0.859558,-0.246826,-0.145038,0.068702,0.007634,3.898706,6.144141,-6.361865,-0.96062,0.12561,-0.344531,0.801514,0.614893,-0.186621,good
1616135981.6700544,1,6.0,5.0,-6.0,-54.0,-4.0,0.364685,0.260437,-0.858643,-0.24884,-0.167939,0.053435,-0.007634,3.880762,5.849854,-6.348706,-0.985742,-0.198584,-0.368457,0.919946,0.385205,-0.386401,good
1616135981.6800787,1,10.0,5.0,-5.0,-9.0,-5.0,0.365479,0.260071,-0.858032,-0.250244,-0.129771,0.045802,-0.015267,3.903491,5.385694,-6.475513,-0.966602,-0.685474,-0.520386,1.152026,-0.022729,-0.588574,good
1616135981.690738,1,8.0,4.0,-6.0,-8.0,-6.0,0.365662,0.260132,-0.857849,-0.250366,-0.038168,0.030534,-0.030534,3.954932,4.902392,-6.657349,-0.916357,-1.171167,-0.705811,1.390088,-0.456982,-0.752466,good
1616135981.7007096,1,10.0,5.0,-7.0,-9.0,-5.0,0.365112,0.260986,-0.858276,-0.248962,0.076336,0.022901,-0.038168,4.02312,4.611694,-6.832007,-0.84458,-1.443921,-0.858936,1.538428,-0.739307,-0.787158,good
1616135981.7108111,1,9.0,8.0,-10.0,-9.0,-1.0,0.364075,0.262451,-0.859009,-0.246338,0.175573,0.007634,-0.045802,4.105664,4.581787,-6.92771,-0.756055,-1.437939,-0.913965,1.53125,-0.800317,-0.697437,good
1616135981.7202148,1,10.0,5.0,-10.0,-8.0,-2.0,0.36261,0.264404,-0.859985,-0.243103,0.229008,0.0,-0.045802,4.18103,4.804297,-6.967187,-0.671118,-1.172363,-0.900806,1.404443,-0.649585,-0.489282,good
1616135981.7299032,1,8.0,6.0,-6.0,-10.0,-1.0,0.361084,0.266357,-0.86084,-0.240112,0.221374,-0.015267,-0.045802,4.267163,5.212232,-6.93728,-0.57063,-0.723755,-0.821851,1.162793,-0.35769,-0.206958,good
1616135981.740052,1,8.0,5.0,-7.0,-10.0,1.0,0.359741,0.268005,-0.861511,-0.237793,0.175573,-0.015267,-0.038168,4.362866,5.666821,-6.855933,-0.461768,-0.238062,-0.699829,0.86731,-0.035889,0.068188,good
1616135981.7499125,1,11.0,4.0,-6.0,-7.0,-3.0,0.358765,0.269165,-0.861938,-0.236572,0.10687,-0.022901,-0.030534,4.45857,6.05083,-6.780566,-0.354102,0.160303,-0.599341,0.611304,0.214136,0.300269,good
1616135981.7603006,1,9.0,4.0,-11.0,-8.0,-3.0,0.358154,0.269836,-0.862061,-0.236267,0.030534,-0.015267,-0.022901,4.547095,6.316406,-6.744678,-0.25481,0.429468,-0.551489,0.435449,0.362476,0.480908,good
1616135981.7700202,1,9.0,5.0,-8.0,-7.0,-3.0,0.35791,0.270081,-0.861938,-0.236694,-0.022901,-0.007634,-0.022901,4.642798,6.415698,-6.755445,-0.150732,0.521582,-0.563452,0.355298,0.361279,0.595752,good
1616135981.7799315,1,10.0,5.0,-7.0,-9.0,-4.0,0.35791,0.270142,-0.861755,-0.237366,-0.045802,0.0,-0.022901,4.738501,6.355884,-6.800903,-0.049048,0.451001,-0.614893,0.354102,0.23208,0.635229,good
1616135981.7900012,1,9.0,5.0,-9.0,-7.0,-3.0,0.358154,0.270081,-0.861511,-0.237915,-0.053435,0.015267,-0.015267,4.823438,6.238647,-6.872681,0.034692,0.324194,-0.695044,0.400757,0.066992,0.649585,good
1616135981.800062,1,12.0,4.0,-8.0,-8.0,-4.0,0.358398,0.270081,-0.861267,-0.238342,-0.045802,0.015267,-0.015267,4.873682,6.130981,-6.925317,0.084937,0.209351,-0.756055,0.451001,-0.062207,0.643604,good
1616135981.8101604,1,11.0,5.0,-8.0,-9.0,-3.0,0.358704,0.270081,-0.861023,-0.23877,-0.053435,0.015267,-0.015267,4.891626,6.059204,-6.952832,0.101685,0.130396,-0.791943,0.491675,-0.139966,0.625659,good
1616135981.8199358,1,10.0,4.0,-7.0,-11.0,-4.0,0.35907,0.270081,-0.860779,-0.239258,-0.061069,0.022901,-0.022901,4.885644,6.032886,-6.950439,0.093311,0.094507,-0.797925,0.512012,-0.162695,0.60293,good
1616135981.829871,1,11.0,4.0,-8.0,-7.0,0.0,0.359375,0.270142,-0.860352,-0.240112,-0.076336,0.015267,-0.030534,4.842578,6.042456,-6.944458,0.052637,0.089722,-0.805103,0.544312,-0.143555,0.583789,good
1616135981.8398266,1,11.0,7.0,-5.0,-7.0,-3.0,0.35968,0.270264,-0.859863,-0.241333,-0.091603,0.015267,-0.038168,4.76123,6.063989,-6.949243,-0.021533,0.090918,-0.825439,0.604126,-0.100488,0.559863,good
1616135981.8500464,1,9.0,6.0,-7.0,-7.0,-3.0,0.359863,0.270386,-0.859375,-0.242676,-0.099237,0.015267,-0.038168,4.68706,6.011353,-6.96001,-0.087329,0.015552,-0.851758,0.685474,-0.122021,0.497656,good
1616135981.8600178,1,12.0,5.0,-6.0,-7.0,-3.0,0.359985,0.270508,-0.859009,-0.243713,-0.076336,0.015267,-0.030534,4.629639,5.908472,-6.967187,-0.13877,-0.102881,-0.869702,0.764429,-0.18064,0.410327,good
1616135981.8701377,1,10.0,6.0,-7.0,-7.0,-4.0,0.360107,0.27063,-0.858765,-0.244263,-0.045802,0.015267,-0.022901,4.566236,5.863013,-6.965991,-0.198584,-0.15791,-0.875684,0.820654,-0.184229,0.350513,good
1616135981.8799078,1,7.0,7.0,-4.0,-7.0,-1.0,0.360046,0.270874,-0.858704,-0.244324,-0.015267,0.015267,-0.022901,4.484888,5.868994,-6.96001,-0.277539,-0.154321,-0.869702,0.861328,-0.130396,0.309839,good
1616135981.8899698,1,11.0,5.0,-6.0,-9.0,-5.0,0.359741,0.271362,-0.858704,-0.244202,0.015267,0.007634,-0.022901,4.408325,5.904883,-6.950439,-0.346924,-0.118433,-0.85415,0.880469,-0.055029,0.289502,good
1616135981.8999834,1,9.0,7.0,-6.0,-8.0,-4.0,0.359375,0.272034,-0.858704,-0.243896,0.030534,0.007634,-0.030534,4.373633,5.98982,-6.907373,-0.374438,-0.031104,-0.803906,0.833813,0.037085,0.299072,good
1616135981.9100025,1,8.0,5.0,-10.0,-7.0,-1.0,0.35907,0.272827,-0.858704,-0.243591,0.030534,0.007634,-0.030534,4.377222,6.103467,-6.863111,-0.362476,0.082544,-0.75127,0.753662,0.12561,0.343335,good
1616135981.9200406,1,9.0,6.0,-7.0,-7.0,-3.0,0.358826,0.273499,-0.858643,-0.243347,0.022901,0.015267,-0.030534,4.407129,6.170459,-6.818848,-0.326587,0.150732,-0.702222,0.674707,0.165088,0.372046,good
1616135981.9300325,1,9.0,5.0,-6.0,-7.0,-1.0,0.358704,0.27417,-0.858521,-0.243164,0.015267,0.015267,-0.030534,4.456177,6.225488,-6.778174,-0.272754,0.205762,-0.657959,0.593359,0.18064,0.405542,good
1616135981.9398808,1,9.0,4.0,-8.0,-7.0,-2.0,0.358643,0.274719,-0.858398,-0.243164,0.007634,0.015267,-0.030534,4.505225,6.29248,-6.753052,-0.218921,0.269165,-0.631641,0.522778,0.198584,0.453394,good
1616135981.9498842,1,7.0,7.0,-6.0,-8.0,0.0,0.358643,0.275085,-0.858215,-0.243347,-0.015267,0.015267,-0.022901,4.568628,6.325976,-6.724341,-0.151929,0.297876,-0.605322,0.45459,0.181836,0.48689,good
1616135981.9598243,1,9.0,5.0,-8.0,-7.0,-2.0,0.358826,0.275391,-0.85791,-0.243713,-0.030534,0.015267,-0.022901,4.641602,6.340332,-6.706397,-0.076563,0.305054,-0.593359,0.398364,0.141162,0.520386,good
1616135981.9698822,1,10.0,5.0,-6.0,-7.0,-2.0,0.35907,0.275574,-0.857605,-0.244324,-0.045802,0.015267,-0.030534,4.685864,6.333154,-6.729126,-0.029907,0.285913,-0.625659,0.401953,0.088525,0.551489,good
1616135981.979878,1,7.0,1.0,-3.0,-7.0,-3.0,0.359253,0.275757,-0.8573,-0.244934,-0.053435,0.015267,-0.030534,4.731323,6.286499,-6.749463,0.017944,0.228491,-0.653174,0.411523,0.00957,0.555078,good
1616135981.9899774,1,11.0,6.0,-6.0,-7.0,-3.0,0.359497,0.27594,-0.856995,-0.245422,-0.045802,0.015267,-0.030534,4.780371,6.219507,-6.765015,0.068188,0.151929,-0.6771,0.423486,-0.08374,0.546704,good
1616135981.9999964,1,8.0,3.0,-7.0,-7.0,-2.0,0.359741,0.276123,-0.85675,-0.245605,-0.022901,0.015267,-0.022901,4.822241,6.146533,-6.78894,0.110059,0.07417,-0.707007,0.443823,-0.174658,0.537134,good
1616135982.0097525,1,11.0,3.0,-7.0,-7.0,-2.0,0.359924,0.276306,-0.856689,-0.245483,0.0,0.022901,-0.015267,4.843774,6.110644,-6.792529,0.129199,0.039478,-0.711792,0.447412,-0.212939,0.527563,good
1616135982.0198288,1,8.0,7.0,-5.0,-7.0,-2.0,0.360046,0.276489,-0.856689,-0.245056,0.007634,0.022901,-0.007634,4.854541,6.129785,-6.75664,0.136377,0.063403,-0.673511,0.406738,-0.19021,0.522778,good
1616135982.029813,1,10.0,5.0,-6.0,-7.0,-1.0,0.360291,0.276672,-0.856628,-0.24469,0.015267,0.022901,0.0,4.848559,6.197974,-6.69563,0.12561,0.135181,-0.6125,0.346924,-0.117236,0.523975,good
1616135982.0398142,1,11.0,5.0,-8.0,-7.0,-4.0,0.360474,0.276855,-0.856506,-0.244507,0.0,0.022901,0.0,4.82583,6.276929,-6.633423,0.100488,0.215332,-0.551489,0.291895,-0.028711,0.522778,good
1616135982.0498867,1,7.0,5.0,-8.0,-7.0,0.0,0.360718,0.276917,-0.856384,-0.244629,-0.022901,0.015267,0.0,4.787549,6.34751,-6.57959,0.059814,0.283521,-0.502441,0.258398,0.056226,0.515601,good
1616135982.0599496,1,9.0,7.0,-11.0,-7.0,-5.0,0.360962,0.276855,-0.85614,-0.245117,-0.045802,0.007634,-0.007634,4.74209,6.388184,-6.532935,0.014355,0.31582,-0.46416,0.247632,0.117236,0.489282,good
1616135982.0699537,1,9.0,6.0,-7.0,-12.0,-5.0,0.361206,0.276672,-0.855896,-0.245911,-0.061069,0.0,-0.007634,4.707397,6.370239,-6.512598,-0.017944,0.285913,-0.45459,0.267969,0.118433,0.449805,good
1616135982.0800014,1,9.0,3.0,-6.0,-7.0,-3.0,0.361389,0.276489,-0.855652,-0.246765,-0.061069,0.0,-0.015267,4.676294,6.285303,-6.512598,-0.046655,0.187817,-0.46416,0.321802,0.062207,0.38042,good
1616135982.0899704,1,9.0,4.0,-6.0,-7.0,-2.0,0.361389,0.276489,-0.855469,-0.247253,-0.038168,0.0,-0.015267,4.661939,6.13457,-6.559253,-0.057422,0.029907,-0.516797,0.413916,-0.056226,0.308643,good
1616135984.3668408,1,8.0,3.0,-7.0,25.0,55.0,0.719849,0.319763,-0.615417,0.028748,-0.022901,-0.015267,0.007634,8.866895,4.262378,0.423486,0.003589,0.096899,0.050244,-0.08374,0.050244,0.045459,good
1616135984.3769224,1,9.0,7.0,-7.0,-8.0,-5.0,0.71991,0.319458,-0.61554,0.028503,-0.030534,-0.015267,0.0,8.882446,4.250415,0.428271,0.017944,0.086133,0.053833,-0.078955,0.034692,0.053833,good
1616135984.3869126,1,9.0,5.0,-10.0,-7.0,0.0,0.719971,0.319092,-0.615662,0.028198,-0.030534,-0.015267,0.0,8.889624,4.230078,0.42229,0.025122,0.066992,0.046655,-0.063403,0.020337,0.052637,good
1616135984.3968446,1,11.0,7.0,-6.0,-8.0,-2.0,0.720032,0.318726,-0.615784,0.027954,-0.030534,-0.007634,0.0,8.913549,4.204956,0.403149,0.047852,0.044263,0.026318,-0.029907,0.004785,0.062207,good
1616135984.4067855,1,8.0,5.0,-7.0,-9.0,-4.0,0.720093,0.31842,-0.615845,0.027771,-0.022901,-0.007634,0.0,8.931494,4.188208,0.37085,0.065796,0.028711,-0.007178,0.00957,0.002393,0.070581,good
1616135984.4169283,1,8.0,5.0,-5.0,-7.0,-4.0,0.720093,0.318176,-0.615967,0.02771,-0.022901,-0.007634,0.0,8.945849,4.184619,0.346924,0.078955,0.027515,-0.031104,0.033496,0.008374,0.081348,good
1616135984.4266768,1,8.0,10.0,-8.0,-8.0,-3.0,0.720093,0.317932,-0.61615,0.027649,-0.015267,-0.007634,0.007634,8.959009,4.184619,0.320605,0.089722,0.031104,-0.057422,0.057422,0.020337,0.092114,good
1616135984.4366748,1,7.0,4.0,-7.0,-8.0,-3.0,0.720032,0.317627,-0.616333,0.027649,-0.015267,-0.007634,0.007634,8.973364,4.1906,0.305054,0.102881,0.04187,-0.071777,0.068188,0.0323,0.107666,good
1616135984.4468803,1,11.0,5.0,-8.0,-7.0,-4.0,0.719971,0.317322,-0.616516,0.02771,-0.015267,-0.007634,0.015267,8.984131,4.177442,0.29668,0.111255,0.033496,-0.078955,0.080151,0.026318,0.111255,good
1616135984.4568214,1,10.0,5.0,-10.0,-7.0,1.0,0.719971,0.317017,-0.61676,0.027832,-0.015267,-0.007634,0.015267,8.98772,4.152319,0.282324,0.111255,0.014355,-0.092114,0.099292,0.016748,0.102881,good
1616135984.4668307,1,8.0,7.0,-4.0,-5.0,0.0,0.71991,0.316772,-0.616943,0.028015,-0.007634,-0.007634,0.015267,8.982935,4.122412,0.279932,0.102881,-0.008374,-0.093311,0.108862,0.002393,0.084937,good
1616135984.4768584,1,10.0,4.0,-6.0,-7.0,-1.0,0.719849,0.316528,-0.617065,0.028259,-0.007634,-0.007634,0.015267,8.978149,4.092505,0.277539,0.095703,-0.031104,-0.094507,0.117236,-0.010767,0.069385,good
1616135984.4868696,1,9.0,6.0,-7.0,-8.0,-3.0,0.719788,0.316345,-0.617188,0.028503,0.0,0.0,0.015267,8.968579,4.081738,0.270361,0.08374,-0.035889,-0.100488,0.122021,-0.008374,0.056226,good
1616135984.4969144,1,11.0,5.0,-7.0,-8.0,-4.0,0.719788,0.316162,-0.61731,0.028748,-0.007634,0.0,0.015267,8.979345,4.079346,0.278735,0.092114,-0.0323,-0.092114,0.114844,-0.011963,0.065796,good
1616135984.506882,1,9.0,8.0,-6.0,-7.0,-2.0,0.719849,0.315918,-0.617371,0.028992,-0.007634,0.0,0.015267,8.98772,4.057813,0.279932,0.096899,-0.047852,-0.092114,0.123218,-0.026318,0.063403,good
1616135984.5169375,1,11.0,7.0,-6.0,-8.0,-4.0,0.719849,0.315735,-0.617432,0.029297,-0.007634,0.007634,0.015267,8.985327,4.037476,0.272754,0.092114,-0.062207,-0.100488,0.135181,-0.0323,0.052637,good
1616135984.5267594,1,11.0,6.0,-8.0,-8.0,-3.0,0.71991,0.315552,-0.617493,0.029602,0.0,0.007634,0.015267,8.979345,4.017138,0.281128,0.082544,-0.076563,-0.093311,0.132788,-0.043066,0.038281,good
1616135984.5368938,1,8.0,5.0,-7.0,-8.0,-1.0,0.71991,0.31543,-0.617493,0.029907,0.0,0.007634,0.007634,8.962598,3.999194,0.297876,0.0646,-0.088525,-0.077759,0.120825,-0.053833,0.017944,good
1616135984.5467298,1,9.0,7.0,-6.0,-7.0,-4.0,0.719971,0.315308,-0.617493,0.030151,0.0,0.007634,0.007634,8.948242,3.989624,0.319409,0.047852,-0.094507,-0.057422,0.101685,-0.063403,0.001196,good
1616135984.5568142,1,10.0,5.0,-4.0,-7.0,0.0,0.720032,0.315186,-0.617432,0.030334,-0.007634,0.007634,0.007634,8.931494,4.002783,0.342139,0.029907,-0.077759,-0.037085,0.071777,-0.053833,-0.005981,good
1616135984.5669413,1,10.0,7.0,-5.0,-8.0,-2.0,0.720154,0.315063,-0.617371,0.030457,-0.007634,0.007634,0.0,8.926709,4.014746,0.356494,0.023926,-0.063403,-0.026318,0.055029,-0.045459,-0.004785,good
1616135984.5768917,1,7.0,5.0,-8.0,-11.0,-1.0,0.720276,0.314941,-0.61731,0.030457,-0.015267,0.007634,0.0,8.919531,4.017138,0.364868,0.015552,-0.059814,-0.021533,0.047852,-0.04187,-0.010767,good
1616135984.5870385,1,8.0,7.0,-7.0,-9.0,-1.0,0.720398,0.314819,-0.617188,0.030334,-0.015267,0.007634,-0.007634,8.927905,4.024316,0.372046,0.025122,-0.053833,-0.017944,0.044263,-0.04187,0.0,good
1616135984.5968316,1,11.0,4.0,-7.0,-9.0,-4.0,0.720581,0.314697,-0.617126,0.030273,-0.015267,0.007634,-0.007634,8.925512,4.032691,0.373242,0.022729,-0.045459,-0.020337,0.04187,-0.033496,0.0,good
1616135984.6068978,1,6.0,7.0,-7.0,-8.0,-4.0,0.720703,0.314575,-0.617004,0.030151,-0.015267,0.007634,-0.007634,8.92312,4.051831,0.35769,0.021533,-0.026318,-0.040674,0.05144,-0.008374,0.005981,good
1616135984.6168263,1,9.0,3.0,-8.0,-7.0,-4.0,0.720825,0.314453,-0.616943,0.029968,-0.015267,0.007634,-0.007634,8.92312,4.070971,0.345728,0.021533,-0.008374,-0.055029,0.056226,0.011963,0.013159,good
1616135984.6267786,1,7.0,5.0,-7.0,-9.0,-1.0,0.720947,0.314331,-0.616882,0.029846,-0.015267,0.0,-0.007634,8.918335,4.079346,0.331372,0.016748,-0.001196,-0.072974,0.066992,0.028711,0.010767,good
1616135984.6366894,1,11.0,5.0,-6.0,-9.0,-3.0,0.721008,0.314209,-0.616821,0.029785,-0.015267,0.0,0.0,8.924316,4.094897,0.328979,0.023926,0.014355,-0.077759,0.066992,0.040674,0.023926,good
1616135984.646026,1,9.0,4.0,-8.0,-8.0,-4.0,0.721008,0.314209,-0.616821,0.029785,-0.007634,0.0,0.0,8.930298,4.118823,0.336157,0.029907,0.038281,-0.070581,0.05144,0.053833,0.039478,good
1616135984.6560824,1,9.0,5.0,-7.0,-8.0,-5.0,0.721069,0.314148,-0.616821,0.029846,0.0,0.0,0.0,8.937475,4.155908,0.351709,0.035889,0.076563,-0.056226,0.023926,0.075366,0.061011,good
1616135984.6661055,1,7.0,-5.0,-8.0,-7.0,-6.0,0.721069,0.314148,-0.616821,0.029968,0.0,0.0,0.007634,8.935083,4.196582,0.376831,0.0323,0.118433,-0.031104,-0.015552,0.098096,0.076563,good
1616135984.6761756,1,9.0,13.0,-5.0,-8.0,-3.0,0.72113,0.314148,-0.61676,0.030029,0.0,0.0,0.007634,8.932691,4.238452,0.406738,0.029907,0.160303,-0.002393,-0.059814,0.118433,0.093311,good
1616135984.6867886,1,11.0,6.0,-4.0,-7.0,-5.0,0.721191,0.314026,-0.61676,0.030029,-0.007634,0.0,0.007634,8.924316,4.270752,0.443823,0.020337,0.193799,0.031104,-0.105273,0.132788,0.099292,good
1616135984.696767,1,8.0,8.0,-6.0,19.0,-2.0,0.721252,0.313843,-0.616699,0.029968,-0.015267,-0.007634,0.007634,8.908765,4.286304,0.47373,0.005981,0.211743,0.058618,-0.139966,0.13877,0.095703,good
1616135984.706707,1,7.0,7.0,-7.0,-8.0,-2.0,0.721375,0.313599,-0.61676,0.029785,-0.022901,-0.007634,0.007634,8.895605,4.256396,0.495264,-0.007178,0.181836,0.077759,-0.147144,0.110059,0.071777,good
1616135984.7162757,1,8.0,5.0,-6.0,-7.0,-4.0,0.721497,0.313293,-0.616821,0.029663,-0.022901,-0.007634,0.0,8.877661,4.196582,0.516797,-0.026318,0.124414,0.096899,-0.143555,0.061011,0.031104,good
1616135984.7260022,1,9.0,5.0,-6.0,-7.0,-4.0,0.721558,0.312927,-0.616882,0.029419,-0.022901,-0.007634,0.0,8.854932,4.122412,0.552686,-0.049048,0.05144,0.130396,-0.147144,-0.004785,-0.016748,good
1616135984.7368517,1,10.0,5.0,-7.0,-9.0,-5.0,0.72168,0.312622,-0.616882,0.029236,-0.022901,-0.015267,-0.007634,8.836987,4.053027,0.606519,-0.066992,-0.014355,0.18064,-0.166284,-0.075366,-0.058618,good
1616135984.7467828,1,8.0,4.0,-8.0,-8.0,-3.0,0.721802,0.312378,-0.616882,0.028992,-0.022901,-0.007634,-0.007634,8.81665,4.04585,0.717773,-0.087329,-0.022729,0.288306,-0.261987,-0.128003,-0.075366,good
1616135984.7567198,1,8.0,7.0,-7.0,-8.0,-3.0,0.722107,0.312134,-0.616638,0.028442,-0.038168,-0.007634,-0.022901,8.780762,4.121216,0.905591,-0.119629,0.046655,0.467749,-0.455786,-0.14834,-0.068188,good
1616135984.766795,1,9.0,3.0,-10.0,-7.0,-3.0,0.722778,0.311768,-0.616089,0.027405,-0.068702,0.0,-0.038168,8.729321,4.374829,1.2573,-0.165088,0.288306,0.801514,-0.861328,-0.099292,0.007178,good
1616135984.7768176,1,11.0,6.0,-7.0,-10.0,-6.0,0.724121,0.311035,-0.61499,0.02533,-0.137405,0.015267,-0.061069,8.646777,4.833008,1.781274,-0.235669,0.723755,1.290796,-1.48938,0.04187,0.154321,good
1616135984.786173,1,10.0,5.0,-11.0,-9.0,-3.0,0.726318,0.309448,-0.613281,0.021973,-0.244275,0.022901,-0.076336,8.493652,5.342627,2.428467,-0.369653,1.201074,1.878174,-2.232275,0.203369,0.277539,good
1616135984.796029,1,11.0,7.0,-6.0,-7.0,-3.0,0.72937,0.30658,-0.611328,0.017029,-0.374046,0.015267,-0.083969,8.238843,5.845068,3.170166,-0.601733,1.665234,2.537329,-3.05293,0.373242,0.330176,good
1616135984.8069882,1,9.0,8.0,-7.0,-7.0,-5.0,0.732971,0.301819,-0.609558,0.010925,-0.503817,-0.030534,-0.045802,7.824927,5.992212,3.89751,-0.996509,1.78606,3.164185,-3.747974,0.368457,0.105273,good
1616135984.8167667,1,11.0,7.0,-8.0,-9.0,-1.0,0.736267,0.294983,-0.609009,0.0047,-0.572519,-0.114504,0.038168,7.281812,5.589063,4.594946,-1.533643,1.387695,3.769507,-4.273145,0.027515,-0.466553,good
1616135984.8260083,1,11.0,8.0,-5.0,-7.0,-1.0,0.73877,0.286682,-0.609924,-0.000549,-0.549618,-0.21374,0.122137,6.759033,4.638013,5.496948,-2.068384,0.479712,4.598535,-4.841382,-0.818262,-1.238159,good
1616135984.8360958,1,11.0,9.0,-10.0,-7.0,-3.0,0.74054,0.278015,-0.611816,-0.003845,-0.442748,-0.290076,0.19084,6.135767,3.397461,6.681274,-2.722754,-0.683081,5.731421,-5.66084,-1.967896,-2.190405,good
1616135984.8461509,1,11.0,7.0,-8.0,-7.0,-3.0,0.741699,0.270142,-0.613892,-0.005493,-0.29771,-0.343511,0.206107,5.307935,2.444019,8.32019,-3.586475,-1.549194,7.336841,-7.084424,-2.994312,-3.149829,good
1616135984.855965,1,9.0,5.0,-7.0,-8.0,-4.0,0.742737,0.263977,-0.615295,-0.007568,-0.236641,-0.40458,0.122137,4.061401,2.115039,10.304834,-4.855737,-1.818359,9.29038,-9.13606,-3.488379,-4.187012,good
1616135984.8668034,1,11.0,5.0,-6.0,-8.0,-5.0,0.743652,0.259338,-0.616089,-0.012756,-0.290076,-0.503817,-0.045802,2.288501,2.241846,12.218897,-6.626245,-1.691553,11.175733,-11.399439,-3.354394,-5.517285,good
1616135984.8768544,1,12.0,5.0,-7.0,-8.0,-3.0,0.743347,0.255798,-0.617615,-0.023376,-0.450382,-0.732824,-0.290076,0.094507,2.451196,13.445093,-8.785547,-1.557568,12.403125,-13.172338,-2.628247,-7.280615,good
1616135984.8868115,1,8.0,7.0,-10.0,-7.0,-3.0,0.739807,0.252869,-0.622131,-0.040649,-0.633588,-1.10687,-0.549618,-2.155713,2.44043,13.67478,-10.974756,-1.72146,12.71416,-13.969068,-1.495361,-9.362158,good
1616135984.8971577,1,12.0,8.0,-7.0,-7.0,-4.0,0.731201,0.249878,-0.631531,-0.063965,-0.793893,-1.572519,-0.748092,-4.05542,1.984644,12.935473,-12.791919,-2.387793,12.17583,-13.587451,-0.301465,-11.526245,good
1616135984.9070644,1,8.0,5.0,-5.0,-7.0,-2.0,0.716492,0.246155,-0.646362,-0.091003,-0.854962,-2.030534,-0.847328,-5.324683,1.013257,11.37312,-13.961889,-3.596045,10.948438,-12.020312,0.588574,-13.524048,good
1616135984.9170108,1,11.0,7.0,-6.0,-7.0,-1.0,0.69519,0.242554,-0.666199,-0.118469,-0.725191,-2.40458,-0.870229,-5.865405,-0.301465,9.236547,-14.379395,-5.152417,9.287989,-9.532031,0.947461,-15.092382,good
1616135984.9267442,1,11.0,7.0,-7.0,-9.0,0.0,0.667725,0.241089,-0.689697,-0.142639,-0.366412,-2.618321,-0.862595,-5.841479,-1.735815,6.683667,-14.192774,-6.818848,7.345215,-6.414502,0.754858,-16.129566,good
1616135984.936206,1,9.0,7.0,-6.0,-7.0,-6.0,0.635315,0.243835,-0.714966,-0.160461,0.160305,-2.641221,-0.832061,-5.373731,-2.844775,4.051831,-13.509692,-8.128784,5.435937,-3.18811,0.283521,-16.36643,good
1616135984.94681,1,11.0,9.0,-7.0,-9.0,-1.0,0.59967,0.252258,-0.739929,-0.171082,0.70229,-2.526718,-0.832061,-4.883252,-2.479907,1.142456,-12.733301,-7.925415,3.319702,0.053833,0.748877,-15.342407,good
1616135984.9567454,1,12.0,5.0,-8.0,-7.0,-2.0,0.56073,0.266663,-0.763489,-0.177795,1.038168,-2.396947,-0.885496,-4.665527,-0.056226,-2.278931,-12.126782,-5.646484,0.739307,3.246728,2.848364,-12.68186,good
1616135984.9669344,1,9.0,7.0,-6.0,-10.0,0.0,0.521057,0.282898,-0.78363,-0.185425,0.923664,-2.236641,-0.900763,-4.221704,3.835303,-5.385694,-11.19607,-1.900903,-1.580298,5.255298,5.668017,-8.467334,good
1616135984.9759552,1,8.0,5.0,-6.0,-9.0,-3.0,0.484436,0.295105,-0.798889,-0.200073,0.267176,-2.099237,-0.877863,-3.750366,8.016333,-8.595337,-10.178027,2.080347,-4.178638,6.778174,8.181421,-3.532642,good
1616135984.9859772,1,9.0,8.0,-6.0,-8.0,-2.0,0.451477,0.299255,-0.809631,-0.225952,-0.770992,-2.061069,-0.839695,-3.340039,11.088404,-11.514282,-9.17793,4.854541,-6.709985,8.242432,9.165967,0.907983,good
1616135984.9959655,1,9.0,4.0,-7.0,-8.0,-6.0,0.4245,0.293701,-0.815002,-0.263184,-1.770992,-1.977099,-0.717557,-2.070776,13.344604,-13.658032,-7.335645,6.696826,-8.747266,9.120508,8.192187,4.982544,good
1616135985.0060167,1,9.0,5.0,-7.0,-9.0,-5.0,0.403992,0.281677,-0.815186,-0.30481,-2.221374,-1.740458,-0.603053,-0.200977,14.398535,-15.234741,-4.972974,7.297363,-10.45437,9.686353,5.475415,7.963696,good
1616135985.016164,1,8.0,-1.0,-1.0,-7.0,-5.0,0.387024,0.269043,-0.814392,-0.338623,-1.80916,-1.442748,-0.480916,1.586279,12.307422,-16.39275,-2.805298,4.860522,-11.775073,10.270142,0.964209,7.982837,good
1616135985.0260105,1,8.0,7.0,-8.0,-10.0,-5.0,0.371521,0.26123,-0.817505,-0.354126,-0.694656,-1.061069,-0.335878,3.203662,9.075048,-17.243311,-0.935498,1.497754,-12.606494,10.292871,-3.288599,6.726733,good
1616135985.0368266,1,11.0,7.0,-8.0,-7.0,-4.0,0.357056,0.261047,-0.825684,-0.350281,0.534351,-0.671756,-0.206107,4.526758,7.637109,-17.868969,0.539526,0.141162,-12.971362,9.666016,-5.36416,6.809278,good
1616135985.0459237,1,9.0,6.0,-6.0,-9.0,-3.0,0.34375,0.266724,-0.836548,-0.333069,1.358779,-0.374046,-0.091603,5.678784,8.502027,-18.328344,1.783667,1.242944,-13.018018,8.420679,-5.28042,8.682666,good
1616135985.0559683,1,8.0,6.0,-6.0,-7.0,-1.0,0.332703,0.27417,-0.846924,-0.31134,1.541985,-0.183206,0.022901,6.7052,11.056104,-18.665699,2.854346,4.099683,-12.934278,6.648974,-3.689355,11.594434,good
1616135985.065982,1,10.0,5.0,-4.0,-7.0,-1.0,0.325439,0.279297,-0.854309,-0.293701,1.137405,-0.076336,0.122137,7.493555,13.321875,-18.124975,3.651074,6.62146,-12.090894,4.504028,-1.862622,13.40083,good
1616135985.075873,1,9.0,7.0,-26.0,-9.0,-4.0,0.32312,0.280823,-0.857727,-0.284668,0.51145,0.007634,0.145038,7.981641,14.987109,-16.757618,4.115234,8.421875,-10.591944,2.448804,-0.260791,13.927197,good
1616135985.0861518,1,11.0,6.0,-6.0,-7.0,-5.0,0.324768,0.279846,-0.857666,-0.283997,-0.045802,0.076336,0.114504,8.138354,15.509888,-15.338819,4.23606,8.954224,-9.186304,1.251318,0.48689,13.4427,good
1616135985.0960994,1,9.0,6.0,-7.0,-8.0,0.0,0.329041,0.277649,-0.855591,-0.287598,-0.374046,0.167939,0.083969,8.082129,14.595922,-14.019312,4.128394,7.981641,-7.961304,0.873291,0.224902,11.972461,good
1616135985.1058924,1,11.0,8.0,-4.0,-7.0,-5.0,0.335144,0.275024,-0.852539,-0.292053,-0.496183,0.267176,0.076336,7.881152,12.861303,-12.762012,3.854443,6.174048,-6.834399,0.910376,-0.517993,9.929199,good
1616135985.1160383,1,9.0,8.0,-4.0,-8.0,-6.0,0.342407,0.272461,-0.849182,-0.295715,-0.473282,0.351145,0.083969,7.467237,10.987915,-11.55376,3.347217,4.237256,-5.764917,1.112549,-1.178345,7.73042,good
1616135985.1261256,1,8.0,5.0,-6.0,-7.0,-3.0,0.349976,0.270447,-0.846008,-0.297729,-0.374046,0.396947,0.10687,6.851148,9.242529,-10.426855,2.625854,2.45,-4.764819,1.379321,-1.589868,5.581885,good
1616135985.136002,1,8.0,5.0,-6.0,-7.0,-5.0,0.357056,0.268921,-0.843567,-0.297791,-0.236641,0.40458,0.137405,6.117822,7.667017,-9.396851,1.783667,0.861328,-3.831714,1.642505,-1.793237,3.561352,good
1616135985.1459467,1,9.0,7.0,-5.0,-7.0,-3.0,0.363281,0.267883,-0.841858,-0.295898,-0.091603,0.381679,0.160305,5.336646,6.39895,-8.395556,0.894824,-0.38999,-2.897412,1.793237,-1.740601,1.759741,good
1616135985.1561224,1,10.0,8.0,-6.0,-7.0,-4.0,0.368286,0.267273,-0.841064,-0.292542,0.038168,0.328244,0.175573,4.55188,5.614184,-7.458862,0.013159,-1.136475,-1.994214,1.8052,-1.376929,0.334961,good
1616135985.1659522,1,8.0,6.0,-6.0,-7.0,-35.0,0.371948,0.266968,-0.84082,-0.28894,0.10687,0.251908,0.167939,3.831714,5.298364,-6.565234,-0.785962,-1.409229,-1.111353,1.652075,-0.77041,-0.716577,good
1616135985.176064,1,9.0,7.0,-7.0,-7.0,-3.0,0.374451,0.266785,-0.84082,-0.285828,0.10687,0.175573,0.145038,3.25271,5.249316,-5.768506,-1.423584,-1.418799,-0.317017,1.402051,-0.130396,-1.467847,good
1616135985.186077,1,9.0,6.0,-6.0,-7.0,-1.0,0.376099,0.266479,-0.840881,-0.283752,0.076336,0.114504,0.122137,2.887842,5.293579,-5.066284,-1.82793,-1.347021,0.382812,1.06709,0.375635,-2.004981,good
1616135985.195954,1,9.0,3.0,-3.0,-7.0,-2.0,0.37738,0.265869,-0.84082,-0.282654,0.030534,0.076336,0.10687,2.725147,5.342627,-4.533936,-2.020532,-1.281226,0.907983,0.745288,0.687866,-2.348315,good
1616135985.206102,1,24.0,4.0,-7.0,-7.0,-5.0,0.378662,0.265137,-0.840698,-0.282166,0.0,0.061069,0.083969,2.676099,5.333056,-4.212134,-2.095898,-1.283618,1.216626,0.540723,0.815869,-2.561255,good
1616135985.2160282,1,8.0,7.0,-7.0,-7.0,-4.0,0.379761,0.264648,-0.840454,-0.28186,-0.015267,0.061069,0.053435,2.688061,5.220605,-4.120019,-2.105469,-1.391284,1.296777,0.502441,0.765625,-2.684473,good
1616135985.225981,1,9.0,9.0,-8.0,-7.0,-4.0,0.380554,0.264587,-0.84021,-0.281494,0.0,0.061069,0.022901,2.745483,5.050733,-4.197778,-2.061206,-1.557568,1.210644,0.579004,0.593359,-2.728735,good
1616135985.2358377,1,9.0,7.0,-5.0,-7.0,-1.0,0.380859,0.265015,-0.840149,-0.280823,0.030534,0.045802,-0.007634,2.822046,4.949048,-4.376025,-1.990625,-1.653271,1.03479,0.698633,0.430664,-2.661743,good
1616135985.2460394,1,9.0,7.0,-4.0,8.0,-3.0,0.380554,0.265808,-0.840332,-0.280029,0.045802,0.007634,-0.030534,2.924927,4.9969,-4.574609,-1.882959,-1.597046,0.849365,0.773999,0.349316,-2.467944,good
1616135985.256009,1,9.0,7.0,-3.0,-9.0,-1.0,0.379395,0.266602,-0.840698,-0.279602,0.053435,-0.045802,-0.038168,3.079248,5.222998,-4.755249,-1.710693,-1.366162,0.690259,0.753662,0.355298,-2.137769,good
1616135985.2659562,1,9.0,7.0,-6.0,-7.0,-4.0,0.377563,0.267273,-0.841309,-0.279785,0.038168,-0.10687,-0.053435,3.305347,5.524463,-4.919141,-1.454687,-1.065894,0.552686,0.651978,0.362476,-1.73103,good
1616135985.2758453,1,9.0,8.0,-7.0,-7.0,-1.0,0.375244,0.2677,-0.84198,-0.280457,0.015267,-0.145038,-0.061069,3.587671,5.846265,-5.096191,-1.132886,-0.750073,0.401953,0.516797,0.332568,-1.275244,good
1616135985.2858982,1,11.0,5.0,-4.0,-7.0,0.0,0.372681,0.268005,-0.842651,-0.281433,0.0,-0.167939,-0.076336,3.895117,6.148926,-5.291186,-0.781177,-0.455786,0.233276,0.38042,0.261987,-0.811084,good
1616135985.295884,1,8.0,7.0,-4.0,-10.0,-5.0,0.370117,0.268311,-0.843323,-0.282593,0.0,-0.167939,-0.076336,4.201367,6.407324,-5.504126,-0.429468,-0.209351,0.045459,0.265576,0.150732,-0.369653,good
1616135985.305901,1,11.0,6.0,-8.0,-8.0,-4.0,0.367737,0.268616,-0.843933,-0.28363,-0.007634,-0.152672,-0.076336,4.448999,6.613086,-5.769702,-0.139966,-0.014355,-0.196191,0.236865,0.027515,0.035889,good
1616135985.3159194,1,8.0,5.0,-6.0,-7.0,-3.0,0.36554,0.268982,-0.844482,-0.284424,0.0,-0.129771,-0.068702,4.627246,6.780566,-6.054419,0.075366,0.144751,-0.458179,0.272754,-0.078955,0.393579,good
1616135985.3258066,1,9.0,8.0,-5.0,-7.0,-1.0,0.363647,0.269287,-0.845032,-0.285034,0.0,-0.10687,-0.053435,4.763623,6.908569,-6.330762,0.244043,0.267969,-0.714185,0.337354,-0.179443,0.702222,good
1616135985.335906,1,11.0,7.0,-6.0,-6.0,1.0,0.362122,0.269348,-0.84552,-0.285339,0.0,-0.083969,-0.030534,4.846167,6.983935,-6.607104,0.350513,0.343335,-0.972583,0.451001,-0.27395,0.952246,good
1616135985.345964,1,10.0,7.0,-5.0,-7.0,-3.0,0.360779,0.269348,-0.84613,-0.2854,0.0,-0.076336,-0.015267,4.871289,7.041358,-6.85354,0.393579,0.403149,-1.199878,0.581396,-0.326587,1.144849,good
1616135985.355939,1,11.0,4.0,-7.0,-7.0,-4.0,0.359558,0.269165,-0.84668,-0.285278,0.007634,-0.068702,0.0,4.878467,7.06648,-7.037768,0.416309,0.434253,-1.366162,0.684277,-0.369653,1.272852,good
1616135985.3658495,1,7.0,4.0,-6.0,-8.0,-4.0,0.358398,0.268921,-0.84729,-0.285156,0.0,-0.061069,0.0,4.868896,7.095191,-7.132276,0.419897,0.470142,-1.442725,0.727344,-0.369653,1.345825,good
1616135985.3758738,1,10.0,6.0,-10.0,-9.0,-1.0,0.357422,0.268677,-0.847778,-0.285156,0.0,-0.061069,0.0,4.841382,7.103564,-7.12749,0.403149,0.482104,-1.42478,0.717773,-0.346924,1.336255,good
1616135985.385986,1,8.0,8.0,-5.0,-6.0,-4.0,0.356567,0.268494,-0.848206,-0.285278,-0.007634,-0.053435,0.0,4.823438,7.095191,-7.065283,0.395972,0.474927,-1.35061,0.665137,-0.326587,1.286011,good
1616135985.3958738,1,11.0,5.0,-6.0,-7.0,-1.0,0.355835,0.26825,-0.848511,-0.285339,-0.007634,-0.045802,0.0,4.803101,7.040161,-6.99231,0.385205,0.423486,-1.269263,0.620874,-0.331372,1.199878,good
1616135985.4061854,1,9.0,7.0,-6.0,-7.0,-3.0,0.355408,0.268127,-0.848816,-0.285278,0.0,-0.022901,0.0,4.756445,7.010254,-6.918139,0.342139,0.395972,-1.187915,0.590967,-0.299072,1.114941,good
1616135985.4160347,1,11.0,6.0,-3.0,-7.0,-3.0,0.355042,0.268066,-0.848999,-0.285156,0.0,-0.015267,0.0,4.660742,6.995898,-6.872681,0.250024,0.385205,-1.136475,0.610107,-0.230884,1.037183,good
1616135985.4259772,1,8.0,6.0,-6.0,-7.0,-1.0,0.354797,0.268188,-0.84906,-0.285217,-0.015267,-0.007634,-0.007634,4.545898,6.989917,-6.820044,0.139966,0.378027,-1.080249,0.635229,-0.147144,0.949854,good
1616135985.4359715,1,9.0,7.0,-6.0,-8.0,-2.0,0.354614,0.268188,-0.848999,-0.285461,-0.030534,0.0,-0.007634,4.434644,6.999487,-6.765015,0.033496,0.385205,-1.026416,0.656763,-0.056226,0.875684,good
1616135985.4458814,1,7.0,8.0,-6.0,-7.0,-3.0,0.354492,0.268127,-0.848877,-0.286133,-0.061069,-0.007634,-0.007634,4.336548,7.013843,-6.721948,-0.057422,0.38999,-0.989331,0.683081,0.014355,0.815869,good
1616135985.4560297,1,9.0,7.0,-4.0,-7.0,-3.0,0.354492,0.267822,-0.848633,-0.287231,-0.083969,-0.007634,0.0,4.237256,7.023413,-6.690845,-0.150732,0.384009,-0.97019,0.727344,0.075366,0.758447,good
1616135985.4657905,1,11.0,7.0,-4.0,-7.0,-3.0,0.354492,0.267151,-0.848328,-0.288757,-0.122137,-0.022901,0.007634,4.167871,7.059302,-6.642993,-0.214136,0.400757,-0.939087,0.739307,0.135181,0.722559,good
1616135985.475853,1,11.0,8.0,-6.0,-7.0,-1.0,0.354553,0.266174,-0.8479,-0.290771,-0.160305,-0.030534,0.015267,4.105664,7.090405,-6.609497,-0.269165,0.407935,-0.929517,0.765625,0.174658,0.69624,good
1616135985.485885,1,11.0,9.0,-4.0,-7.0,-4.0,0.354797,0.264832,-0.847351,-0.293274,-0.19084,-0.030534,0.022901,4.069776,7.088013,-6.586768,-0.300269,0.375635,-0.939087,0.801514,0.165088,0.66394,good
1616135985.495805,1,7.0,9.0,-1.0,-7.0,-1.0,0.355164,0.263245,-0.846741,-0.295959,-0.21374,-0.030534,0.022901,4.067383,7.044946,-6.541308,-0.299072,0.300269,-0.929517,0.814673,0.110059,0.605322,good
1616135985.505412,1,10.0,7.0,-5.0,-7.0,-2.0,0.355652,0.26178,-0.846069,-0.298584,-0.198473,-0.015267,0.015267,4.096094,6.913354,-6.511401,-0.269165,0.136377,-0.937891,0.843384,-0.028711,0.507227,good
1616135985.5157783,1,9.0,6.0,-7.0,-7.0,-4.0,0.356079,0.26062,-0.845642,-0.300354,-0.145038,-0.007634,0.015267,4.12959,6.640601,-6.561646,-0.236865,-0.155518,-1.014453,0.948657,-0.277539,0.360083,good
1616135985.5257182,1,9.0,8.0,-4.0,-7.0,-3.0,0.356079,0.259949,-0.845703,-0.30072,-0.045802,-0.007634,0.015267,4.157104,6.314013,-6.625049,-0.212939,-0.484497,-1.081445,1.058716,-0.541919,0.179443,good
1616135985.5358407,1,9.0,8.0,-6.0,-7.0,-2.0,0.35553,0.259827,-0.846436,-0.2995,0.061069,-0.015267,0.015267,4.201367,6.1573,-6.638208,-0.171069,-0.620874,-1.073071,1.05752,-0.659155,0.102881,good
1616135985.5457053,1,15.0,6.0,-4.0,-7.0,-1.0,0.354736,0.260132,-0.847412,-0.297424,0.137405,-0.015267,0.022901,4.292285,6.223096,-6.568823,-0.082544,-0.525171,-0.967798,0.902002,-0.616089,0.154321,good
1616135985.555874,1,11.0,8.0,-6.0,-7.0,-3.0,0.353882,0.260559,-0.84845,-0.294922,0.160305,-0.015267,0.022901,4.385596,6.443213,-6.469531,0.005981,-0.267969,-0.829028,0.683081,-0.449805,0.295483,good
1616135985.5668666,1,7.0,3.0,-8.0,-7.0,-6.0,0.35321,0.260925,-0.849365,-0.292786,0.145038,-0.015267,0.030534,4.451392,6.749463,-6.376221,0.068188,0.068188,-0.701025,0.468945,-0.216528,0.482104,good
1616135985.5758152,1,9.0,10.0,-6.0,-7.0,-2.0,0.352722,0.261169,-0.850037,-0.291321,0.091603,-0.015267,0.022901,4.486084,7.040161,-6.293677,0.100488,0.38042,-0.594556,0.294287,0.013159,0.648389,good
1616135985.5859258,1,11.0,9.0,-3.0,-7.0,-2.0,0.352356,0.26123,-0.850342,-0.29071,0.038168,-0.015267,0.015267,4.505225,7.25669,-6.256592,0.120825,0.606519,-0.545508,0.19021,0.173462,0.782373,good
1616135985.5951445,1,9.0,5.0,-8.0,3.0,-3.0,0.352173,0.261108,-0.850342,-0.291016,-0.022901,-0.015267,0.0,4.495654,7.378711,-6.272143,0.114844,0.724951,-0.562256,0.177051,0.253613,0.870898,good
1616135985.605049,1,10.0,7.0,-10.0,-8.0,-2.0,0.352112,0.260864,-0.850159,-0.291931,-0.068702,-0.015267,-0.007634,4.499243,7.378711,-6.335547,0.124414,0.712988,-0.635229,0.229687,0.214136,0.90918,good
1616135985.615852,1,8.0,8.0,-6.0,-7.0,-3.0,0.352295,0.260559,-0.849731,-0.293152,-0.099237,0.0,-0.015267,4.513598,7.30813,-6.400146,0.142358,0.625659,-0.716577,0.302661,0.114844,0.904395,good
1616135985.6250677,1,9.0,4.0,-4.0,-7.0,58.0,0.352661,0.260376,-0.849243,-0.294312,-0.099237,0.015267,-0.022901,4.501636,7.15022,-6.491065,0.132788,0.451001,-0.825439,0.433057,-0.034692,0.84458,good
1616135985.6351297,1,8.0,8.0,-10.0,-7.0,-3.0,0.353088,0.260315,-0.848877,-0.294983,-0.068702,0.030534,-0.015267,4.453784,6.942065,-6.587964,0.08374,0.23208,-0.935498,0.598145,-0.19021,0.734522,good
1616135985.6449285,1,9.0,5.0,-4.0,-7.0,-6.0,0.353394,0.260498,-0.848694,-0.294983,-0.022901,0.030534,-0.015267,4.405932,6.780566,-6.651367,0.033496,0.068188,-1.003687,0.71897,-0.291895,0.638818,good
1616135985.6553242,1,8.0,7.0,-6.0,-7.0,-1.0,0.353577,0.260803,-0.848694,-0.294495,0.007634,0.038168,0.0,4.370044,6.733911,-6.641797,-0.005981,0.027515,-0.990527,0.742895,-0.289502,0.586182,good
1616135985.6652286,1,7.0,5.0,-7.0,-9.0,-4.0,0.353821,0.261108,-0.848694,-0.293884,0.022901,0.038168,0.0,4.335351,6.793725,-6.566431,-0.045459,0.093311,-0.912769,0.693848,-0.191406,0.569434,good
1616135985.675107,1,9.0,7.0,-4.0,-7.0,-4.0,0.354126,0.261353,-0.848694,-0.293396,0.015267,0.038168,0.007634,4.303052,6.903784,-6.46355,-0.08374,0.208154,-0.807495,0.611304,-0.053833,0.57063,good
1616135985.685131,1,10.0,6.0,-5.0,-7.0,-3.0,0.354553,0.261475,-0.848511,-0.293274,-0.015267,0.030534,0.007634,4.281518,6.993506,-6.361865,-0.111255,0.299072,-0.710596,0.533545,0.056226,0.563452,good
1616135985.6951332,1,6.0,6.0,-6.0,-8.0,-3.0,0.35498,0.261536,-0.848206,-0.293518,-0.038168,0.030534,0.0,4.259985,7.030591,-6.288892,-0.136377,0.330176,-0.645996,0.492871,0.114844,0.535937,good
1616135985.7049792,1,9.0,5.0,-7.0,-9.0,-3.0,0.355408,0.261536,-0.847839,-0.294067,-0.053435,0.022901,-0.007634,4.268359,7.040161,-6.233862,-0.129199,0.331372,-0.604126,0.458179,0.123218,0.515601,good
1616135985.7153242,1,10.0,8.0,-6.0,-9.0,-2.0,0.355957,0.261536,-0.847351,-0.294739,-0.068702,0.030534,-0.015267,4.292285,7.05332,-6.178833,-0.107666,0.332568,-0.564648,0.415112,0.122021,0.502441,good
1616135985.725067,1,12.0,7.0,-6.0,-8.0,-3.0,0.356689,0.261536,-0.846741,-0.295715,-0.083969,0.038168,-0.022901,4.3198,7.054517,-6.1573,-0.08374,0.318213,-0.563452,0.404346,0.095703,0.502441,good
1616135985.7353656,1,7.0,5.0,-8.0,-8.0,-3.0,0.357483,0.261536,-0.846008,-0.296753,-0.091603,0.045802,-0.022901,4.356885,7.005469,-6.159692,-0.049048,0.251221,-0.58977,0.419897,0.017944,0.485693,good
1616135985.745072,1,9.0,4.0,-8.0,-13.0,-4.0,0.358337,0.261536,-0.845337,-0.297791,-0.091603,0.045802,-0.022901,4.376025,6.894214,-6.183618,-0.033496,0.123218,-0.637622,0.477319,-0.094507,0.430664,good
1616135985.7553558,1,10.0,4.0,-6.0,-21.0,-5.0,0.35907,0.261597,-0.844727,-0.298523,-0.076336,0.045802,-0.015267,4.354492,6.770996,-6.236255,-0.059814,-0.011963,-0.709399,0.579004,-0.192603,0.363672,good
1616135985.7653146,1,10.0,5.0,-8.0,-8.0,-3.0,0.359497,0.261536,-0.84436,-0.299011,-0.061069,0.022901,-0.007634,4.318604,6.699219,-6.26377,-0.098096,-0.090918,-0.748877,0.650781,-0.234473,0.313428,good
1616135985.775167,1,9.0,7.0,-7.0,-8.0,-1.0,0.359619,0.261353,-0.844238,-0.299377,-0.045802,0.0,0.007634,4.275537,6.72793,-6.264966,-0.141162,-0.066992,-0.756055,0.6771,-0.192603,0.314624,good
1616135985.7852662,1,12.0,5.0,-6.0,-7.0,-5.0,0.359619,0.260925,-0.844238,-0.299927,-0.053435,-0.015267,0.015267,4.258789,6.866699,-6.217114,-0.15791,0.0646,-0.712988,0.624463,-0.078955,0.373242,good
1616135985.7951882,1,9.0,7.0,-7.0,-7.0,-3.0,0.35968,0.260132,-0.844055,-0.300842,-0.076336,-0.015267,0.022901,4.283911,7.04375,-6.136963,-0.131592,0.23208,-0.645996,0.520386,0.037085,0.462964,good
1616135985.8050358,1,12.0,7.0,-5.0,-5.0,-5.0,0.359985,0.259216,-0.84375,-0.302124,-0.10687,-0.007634,0.022901,4.330566,7.170557,-6.063989,-0.087329,0.344531,-0.592163,0.429468,0.100488,0.529956,good
1616135985.8151803,1,9.0,6.0,-4.0,-7.0,-4.0,0.360596,0.25824,-0.843323,-0.303589,-0.122137,0.007634,0.022901,4.37124,7.182519,-6.043653,-0.05144,0.33855,-0.596948,0.413916,0.069385,0.544312,good
1616135985.8249414,1,11.0,9.0,-7.0,-7.0,-2.0,0.361267,0.257507,-0.842834,-0.304749,-0.10687,0.015267,0.015267,4.399951,7.055713,-6.061597,-0.029907,0.197388,-0.638818,0.46416,-0.055029,0.477319,good
1616135985.8351038,1,9.0,7.0,-6.0,-8.0,-4.0,0.361877,0.257019,-0.842468,-0.30542,-0.068702,0.022901,0.007634,4.401147,6.900195,-6.087915,-0.034692,0.033496,-0.681885,0.535937,-0.178247,0.382812,good
1616135985.8451405,1,9.0,8.0,-5.0,-6.0,-3.0,0.362244,0.256958,-0.842285,-0.305481,-0.030534,0.030534,-0.007634,4.386792,6.796118,-6.095093,-0.053833,-0.070581,-0.695044,0.5802,-0.240454,0.308643,good
1616135985.8550277,1,9.0,7.0,-10.0,-7.0,-5.0,0.362366,0.257263,-0.842224,-0.305298,0.007634,0.022901,-0.015267,4.36167,6.787744,-6.063989,-0.080151,-0.078955,-0.66394,0.574219,-0.218921,0.27395,good
1616135987.5030975,1,7.0,5.0,-6.0,45.0,-4.0,0.742737,0.235107,-0.626831,-0.011597,-0.022901,0.0,-0.007634,9.066675,3.649878,1.006079,-0.004785,0.08374,-0.008374,-0.015552,0.077759,0.025122,good
1616135987.5132189,1,8.0,8.0,-5.0,-9.0,-3.0,0.74292,0.234924,-0.626709,-0.011719,-0.022901,0.007634,-0.007634,9.059497,3.617578,1.015649,-0.011963,0.052637,-0.003589,-0.013159,0.05144,0.007178,good
1616135987.522978,1,7.0,7.0,-1.0,-7.0,-6.0,0.743103,0.234802,-0.626526,-0.011902,-0.015267,0.007634,-0.007634,9.049927,3.592456,0.996509,-0.020337,0.026318,-0.028711,0.014355,0.038281,-0.011963,good
1616135987.5332563,1,7.0,6.0,-7.0,-7.0,-3.0,0.743286,0.234741,-0.626343,-0.012024,-0.015267,0.015267,-0.015267,9.048731,3.578101,0.995313,-0.020337,0.00957,-0.034692,0.025122,0.026318,-0.017944,good
1616135987.5429175,1,8.0,6.0,-7.0,-7.0,-3.0,0.743469,0.23468,-0.626099,-0.012146,-0.015267,0.015267,-0.015267,9.047534,3.570923,0.996509,-0.019141,0.001196,-0.039478,0.0323,0.019141,-0.020337,good
1616135987.5531397,1,6.0,7.0,-7.0,-8.0,-5.0,0.743652,0.234619,-0.625916,-0.012329,-0.015267,0.007634,-0.015267,9.049927,3.56853,0.980957,-0.015552,-0.002393,-0.061011,0.053833,0.022729,-0.021533,good
1616135987.5631826,1,8.0,4.0,-7.0,-7.0,-4.0,0.743774,0.234558,-0.625793,-0.012451,-0.015267,0.007634,-0.007634,9.059497,3.529053,0.972583,-0.005981,-0.04187,-0.072974,0.077759,-0.010767,-0.027515,good
1616135987.573099,1,7.0,5.0,-4.0,-8.0,-3.0,0.743896,0.234497,-0.625671,-0.012512,-0.007634,0.007634,-0.007634,9.060694,3.499146,0.97019,-0.003589,-0.072974,-0.078955,0.092114,-0.037085,-0.038281,good
1616135987.5830126,1,9.0,9.0,-10.0,-7.0,-5.0,0.743958,0.234497,-0.62561,-0.012451,0.0,0.0,-0.007634,9.051123,3.493164,0.984546,-0.013159,-0.077759,-0.065796,0.078955,-0.043066,-0.046655,good
1616135987.5929284,1,8.0,3.0,-6.0,-7.0,-3.0,0.743958,0.234558,-0.62561,-0.01239,0.0,0.0,0.0,9.034375,3.505127,1.010864,-0.029907,-0.066992,-0.039478,0.047852,-0.037085,-0.056226,good
1616135987.6030498,1,6.0,7.0,-7.0,-7.0,-3.0,0.743958,0.234558,-0.625549,-0.012329,0.0,0.0,0.0,9.018824,3.515893,1.041968,-0.045459,-0.055029,-0.008374,0.011963,-0.031104,-0.062207,good
1616135987.6130564,1,8.0,7.0,-4.0,-7.0,-6.0,0.743958,0.234558,-0.625549,-0.012268,0.0,-0.007634,0.0,9.014038,3.529053,1.068286,-0.050244,-0.040674,0.016748,-0.014355,-0.025122,-0.058618,good
1616135987.623088,1,7.0,4.0,-8.0,-7.0,-3.0,0.743958,0.234558,-0.625549,-0.012268,0.0,-0.007634,0.0,9.008057,3.546997,1.096997,-0.056226,-0.022729,0.045459,-0.047852,-0.016748,-0.055029,good
1616135987.6331518,1,8.0,7.0,-7.0,-7.0,-5.0,0.744019,0.234436,-0.625549,-0.012268,-0.007634,-0.007634,0.0,9.000879,3.579297,1.128101,-0.0646,0.00957,0.07417,-0.084937,0.003589,-0.047852,good
1616135987.6429288,1,7.0,7.0,-8.0,-7.0,-1.0,0.744019,0.234314,-0.625549,-0.012451,-0.022901,-0.007634,0.0,9.011645,3.625952,1.140064,-0.052637,0.056226,0.086133,-0.10647,0.037085,-0.017944,good
1616135987.653154,1,7.0,4.0,-6.0,-8.0,-5.0,0.744141,0.234131,-0.625488,-0.012756,-0.030534,0.0,-0.007634,9.024805,3.641504,1.142456,-0.039478,0.069385,0.084937,-0.10647,0.045459,-0.001196,good
1616135987.6628911,1,7.0,5.0,-22.0,-8.0,-5.0,0.744324,0.233826,-0.625366,-0.013184,-0.038168,0.0,-0.015267,9.034375,3.616382,1.116138,-0.027515,0.043066,0.052637,-0.066992,0.028711,-0.003589,good
1616135987.67319,1,7.0,4.0,-7.0,-7.0,-2.0,0.744507,0.233521,-0.625305,-0.01355,-0.038168,0.0,-0.015267,9.040357,3.56853,1.082642,-0.021533,-0.004785,0.014355,-0.016748,-0.001196,-0.019141,good
1616135987.6830287,1,9.0,5.0,-4.0,-7.0,-4.0,0.744629,0.233276,-0.625183,-0.013977,-0.030534,0.0,-0.015267,9.027197,3.505127,1.050342,-0.0323,-0.070581,-0.021533,0.031104,-0.045459,-0.057422,good
1616135987.693114,1,6.0,5.0,-8.0,-7.0,-4.0,0.744629,0.233093,-0.625244,-0.014221,-0.022901,-0.007634,-0.015267,9.016431,3.438135,1.013257,-0.043066,-0.137573,-0.058618,0.082544,-0.089722,-0.095703,good
1616135987.7030168,1,9.0,5.0,-7.0,-7.0,-3.0,0.744568,0.233093,-0.625366,-0.014404,-0.007634,-0.015267,-0.015267,9.011645,3.408227,0.995313,-0.047852,-0.169873,-0.07417,0.104077,-0.111255,-0.113647,good
1616135987.7131224,1,7.0,1.0,-7.0,-6.0,-1.0,0.744385,0.233215,-0.625549,-0.014526,0.0,-0.015267,-0.015267,9.015234,3.427368,0.989331,-0.044263,-0.153125,-0.07417,0.100488,-0.098096,-0.104077,good
1616135987.7231169,1,7.0,6.0,-4.0,-8.0,-6.0,0.744141,0.233398,-0.625732,-0.014587,0.007634,-0.015267,-0.015267,9.036768,3.47522,0.98335,-0.022729,-0.107666,-0.07417,0.093311,-0.063403,-0.068188,good
1616135987.733046,1,6.0,4.0,-6.0,-10.0,-3.0,0.743958,0.233582,-0.625854,-0.014587,0.007634,-0.015267,-0.007634,9.053515,3.536231,0.979761,-0.004785,-0.047852,-0.072974,0.080151,-0.016748,-0.028711,good
1616135987.7431767,1,7.0,4.0,-8.0,-7.0,-3.0,0.743835,0.233765,-0.625977,-0.014587,0.0,-0.015267,-0.007634,9.079834,3.613989,0.98335,0.020337,0.026318,-0.0646,0.057422,0.038281,0.020337,good
1616135987.7529094,1,7.0,5.0,-7.0,-7.0,-3.0,0.743774,0.233765,-0.626038,-0.014648,-0.007634,-0.007634,0.0,9.112134,3.677392,0.976172,0.052637,0.089722,-0.070581,0.052637,0.086133,0.072974,good
1616135987.763149,1,9.0,5.0,-7.0,-7.0,-3.0,0.743774,0.233765,-0.626038,-0.014771,-0.015267,0.0,0.0,9.14563,3.708496,0.963013,0.086133,0.118433,-0.08374,0.0646,0.105273,0.113647,good
1616135987.7729292,1,6.0,4.0,-3.0,-7.0,-5.0,0.743835,0.233704,-0.625977,-0.014771,-0.015267,0.007634,0.0,9.163574,3.700122,0.94148,0.104077,0.111255,-0.10647,0.092114,0.100488,0.124414,good
1616135987.7828925,1,9.0,5.0,-4.0,-7.0,-5.0,0.743958,0.233643,-0.625854,-0.014832,-0.007634,0.007634,0.0,9.1552,3.691748,0.923535,0.096899,0.102881,-0.128003,0.112451,0.102881,0.112451,good
1616135987.792877,1,7.0,4.0,-8.0,-7.0,-3.0,0.74408,0.233582,-0.625732,-0.014832,-0.007634,0.007634,0.0,9.139648,3.677392,0.922339,0.081348,0.088525,-0.132788,0.117236,0.096899,0.092114,good
1616135987.8028567,1,6.0,5.0,-6.0,-7.0,-6.0,0.744202,0.233521,-0.625671,-0.014771,-0.007634,0.007634,0.0,9.125293,3.657056,0.948657,0.065796,0.069385,-0.110059,0.098096,0.076563,0.07417,good
1616135987.8128695,1,11.0,5.0,-6.0,-8.0,58.0,0.744263,0.233398,-0.62561,-0.014771,-0.007634,0.0,0.0,9.098974,3.640308,0.968994,0.039478,0.053833,-0.092114,0.080151,0.065796,0.045459,good
1616135987.8229115,1,8.0,7.0,-4.0,-7.0,-3.0,0.744263,0.233337,-0.625549,-0.014648,-0.007634,0.0,0.0,9.079834,3.616382,0.990527,0.021533,0.0323,-0.070581,0.061011,0.044263,0.023926,good
1616135987.832773,1,7.0,5.0,-8.0,-8.0,-5.0,0.744324,0.233276,-0.62561,-0.014526,0.0,0.0,0.007634,9.064282,3.588867,1.021631,0.003589,0.007178,-0.040674,0.035889,0.017944,0.001196,good
1616135987.8429935,1,9.0,5.0,-6.0,-7.0,-4.0,0.744324,0.233276,-0.625549,-0.014343,0.0,0.0,0.007634,9.053515,3.592456,1.055127,-0.005981,0.013159,-0.007178,0.001196,0.015552,-0.001196,good
1616135987.852245,1,7.0,5.0,-7.0,-7.0,-5.0,0.744507,0.233215,-0.625427,-0.014221,-0.007634,0.007634,0.007634,9.03916,3.624756,1.083838,-0.021533,0.046655,0.015552,-0.031104,0.043066,0.0,good
1616135987.863001,1,7.0,7.0,-6.0,-7.0,-7.0,0.74469,0.233093,-0.625183,-0.014221,-0.015267,0.015267,0.0,9.040357,3.641504,1.09939,-0.019141,0.0646,0.025122,-0.044263,0.055029,0.008374,good
1616135987.872558,1,3.0,5.0,-7.0,-7.0,-3.0,0.744934,0.23291,-0.624939,-0.014282,-0.022901,0.015267,0.0,9.05232,3.615185,1.100586,-0.005981,0.039478,0.019141,-0.029907,0.029907,0.010767,good
1616135987.8820877,1,8.0,7.0,-6.0,-6.0,-3.0,0.745239,0.232666,-0.624695,-0.014282,-0.022901,0.022901,0.0,9.054712,3.54939,1.075464,-0.004785,-0.023926,-0.014355,0.017944,-0.014355,-0.014355,good
1616135987.8928962,1,6.0,5.0,-4.0,-7.0,-3.0,0.745483,0.232422,-0.624451,-0.014221,-0.015267,0.015267,0.0,9.046338,3.476416,1.05752,-0.011963,-0.093311,-0.039478,0.058618,-0.065796,-0.049048,good
1616135987.9028907,1,9.0,6.0,-4.0,-7.0,-3.0,0.745667,0.2323,-0.624329,-0.014099,-0.007634,0.007634,0.0,9.023608,3.424976,1.045557,-0.035889,-0.142358,-0.056226,0.082544,-0.096899,-0.090918,good
1616135987.913051,1,8.0,6.0,-5.0,-7.0,-4.0,0.745728,0.2323,-0.624268,-0.013977,0.0,0.0,0.0,9.008057,3.418994,1.038379,-0.052637,-0.147144,-0.0646,0.088525,-0.093311,-0.108862,good
1616135987.9229825,1,7.0,5.0,28.0,-8.0,-6.0,0.745728,0.232239,-0.624329,-0.013916,-0.007634,-0.007634,0.0,9.011645,3.435742,1.038379,-0.050244,-0.128003,-0.0646,0.08374,-0.076563,-0.099292,good
1616135987.9328318,1,8.0,5.0,-7.0,-8.0,-4.0,0.745667,0.232178,-0.62439,-0.014038,-0.007634,-0.007634,-0.007634,9.033178,3.447705,1.013257,-0.027515,-0.117236,-0.088525,0.107666,-0.065796,-0.077759,good
1616135987.9429114,1,6.0,6.0,-4.0,-7.0,17.0,0.745605,0.232117,-0.624512,-0.01416,-0.015267,-0.007634,-0.007634,9.073853,3.458472,0.96062,0.010767,-0.10647,-0.13877,0.160303,-0.052637,-0.044263,good
1616135987.952897,1,8.0,3.0,-6.0,-7.0,0.0,0.745544,0.232056,-0.624573,-0.014282,-0.007634,0.0,-0.007634,9.118115,3.476416,0.91875,0.056226,-0.088525,-0.179443,0.203369,-0.037085,0.0,good
1616135987.9621818,1,7.0,5.0,-4.0,-7.0,-3.0,0.745544,0.232056,-0.624573,-0.014282,-0.007634,0.007634,-0.007634,9.162378,3.508716,0.911572,0.100488,-0.056226,-0.186621,0.211743,-0.019141,0.05144,good
1616135987.9728372,1,8.0,5.0,-7.0,-7.0,-1.0,0.745667,0.232056,-0.62439,-0.014282,-0.007634,0.015267,0.0,9.16477,3.545801,0.906787,0.104077,-0.020337,-0.194995,0.210547,0.013159,0.065796,good
1616135987.9829755,1,9.0,7.0,-4.0,-6.0,-4.0,0.745911,0.232056,-0.624207,-0.01416,-0.007634,0.022901,0.0,9.131274,3.562549,0.942676,0.069385,-0.002393,-0.165088,0.169873,0.029907,0.044263,good
1616135987.992889,1,9.0,7.0,-5.0,-7.0,-1.0,0.746094,0.232056,-0.623901,-0.014038,0.0,0.015267,0.0,9.073853,3.569726,0.998901,0.013159,0.003589,-0.114844,0.108862,0.035889,0.0,good
1616135988.002329,1,8.0,6.0,-6.0,-8.0,-2.0,0.746277,0.232056,-0.623718,-0.013855,0.0,0.007634,0.0,9.017627,3.59126,1.069482,-0.04187,0.027515,-0.049048,0.028711,0.052637,-0.033496,good
1616135988.0122674,1,9.0,5.0,-7.0,-7.0,17.0,0.746399,0.232056,-0.623535,-0.013733,0.0,0.007634,0.007634,8.969775,3.602026,1.156811,-0.088525,0.038281,0.0323,-0.059814,0.050244,-0.063403,good
1616135988.0222182,1,10.0,7.0,-6.0,-7.0,-4.0,0.746582,0.232056,-0.623352,-0.013611,0.0,0.0,0.0,8.925512,3.606812,1.219019,-0.133984,0.044263,0.089722,-0.12561,0.050244,-0.096899,good
1616135988.0320942,1,10.0,7.0,-7.0,-21.0,-4.0,0.746643,0.232117,-0.623291,-0.013611,0.0,0.0,0.0,8.908765,3.616382,1.264477,-0.149536,0.052637,0.133984,-0.172266,0.049048,-0.102881,good
1616135988.0422869,1,8.0,5.0,-6.0,-7.0,-4.0,0.746643,0.232239,-0.623169,-0.01355,0.0,0.0,-0.007634,8.909961,3.616382,1.2573,-0.147144,0.05144,0.12561,-0.163892,0.049048,-0.101685,good
1616135988.0521352,1,9.0,8.0,-5.0,-9.0,-4.0,0.746643,0.232361,-0.623108,-0.01355,0.007634,-0.007634,-0.007634,8.944654,3.631934,1.260889,-0.111255,0.065796,0.129199,-0.162695,0.050244,-0.063403,good
1616135988.0629294,1,8.0,5.0,-6.0,-7.0,-1.0,0.746643,0.232544,-0.623108,-0.01355,0.007634,0.0,-0.007634,8.970972,3.658252,1.227393,-0.084937,0.088525,0.096899,-0.132788,0.072974,-0.034692,good
1616135988.0721643,1,8.0,4.0,-6.0,-7.0,0.0,0.746643,0.232666,-0.623108,-0.01355,0.0,0.0,-0.007634,8.999682,3.685767,1.17356,-0.056226,0.114844,0.043066,-0.08374,0.105273,-0.004785,good
1616135988.0822196,1,6.0,5.0,-6.0,-7.0,0.0,0.746582,0.232666,-0.623047,-0.01355,-0.007634,0.0,0.0,9.02959,3.694141,1.138867,-0.025122,0.123218,0.008374,-0.046655,0.113647,0.021533,good
1616135988.0921242,1,7.0,7.0,-8.0,-7.0,0.0,0.746643,0.232666,-0.623047,-0.013611,-0.007634,0.0,0.0,9.045141,3.659448,1.10896,-0.00957,0.087329,-0.020337,-0.005981,0.087329,0.020337,good
1616135988.1020756,1,7.0,5.0,-5.0,-7.0,-3.0,0.746643,0.232605,-0.623047,-0.013611,-0.007634,0.0,-0.007634,9.040357,3.581689,1.087427,-0.014355,0.010767,-0.043066,0.033496,0.027515,-0.013159,good
1616135988.112355,1,8.0,7.0,-6.0,-7.0,-5.0,0.746643,0.232666,-0.623047,-0.013489,0.007634,0.0,-0.007634,9.026001,3.482398,1.085034,-0.029907,-0.086133,-0.044263,0.057422,-0.052637,-0.063403,good
1616135988.1221707,1,9.0,9.0,-6.0,-4.0,-6.0,0.746582,0.232849,-0.623047,-0.013184,0.022901,0.0,-0.007634,8.992505,3.415405,1.122119,-0.063403,-0.151929,-0.005981,0.0323,-0.113647,-0.113647,good
1616135988.132301,1,6.0,7.0,-7.0,-7.0,-1.0,0.746582,0.233154,-0.622986,-0.012939,0.022901,-0.007634,-0.007634,8.939868,3.40105,1.236963,-0.11604,-0.168677,0.108862,-0.081348,-0.149536,-0.155518,good
1616135988.1428022,1,7.0,5.0,-5.0,-7.0,-2.0,0.746704,0.233398,-0.622742,-0.012878,0.007634,0.0,-0.015267,8.858521,3.444116,1.449902,-0.196191,-0.128003,0.318213,-0.30625,-0.15791,-0.19021,good
1616135988.1520226,1,8.0,7.0,-4.0,-7.0,0.0,0.74707,0.233582,-0.622192,-0.013306,-0.015267,0.0,-0.030534,8.725733,3.556567,1.802808,-0.322998,-0.025122,0.659155,-0.681885,-0.141162,-0.229687,good
1616135988.1620877,1,8.0,6.0,-6.0,-4.0,0.0,0.747986,0.233398,-0.621155,-0.014404,-0.061069,0.015267,-0.053435,8.510401,3.679785,2.360278,-0.529956,0.082544,1.190308,-1.256104,-0.155518,-0.31582,good
1616135988.1720965,1,7.0,7.0,0.0,-7.0,-3.0,0.749634,0.232666,-0.619385,-0.016174,-0.114504,0.038168,-0.068702,8.18501,3.655859,3.13667,-0.840991,0.040674,1.916455,-1.998999,-0.330176,-0.520386,good
1616135988.182035,1,9.0,7.0,-6.0,-3.0,-3.0,0.752136,0.231384,-0.61676,-0.018433,-0.152672,0.068702,-0.083969,7.771094,3.489575,4.2552,-1.236963,-0.143555,2.959619,-3.029004,-0.703418,-0.799121,good
1616135988.192129,1,7.0,9.0,-3.0,-8.0,-3.0,0.755798,0.229248,-0.612976,-0.021057,-0.206107,0.10687,-0.099237,7.223193,3.128296,5.933594,-1.762134,-0.520386,4.527954,-4.544702,-1.364966,-1.159204,good
1616135988.2021415,1,8.0,6.0,-5.0,-7.0,-1.0,0.76123,0.225586,-0.607483,-0.024109,-0.290076,0.160305,-0.091603,6.409717,2.494263,8.365649,-2.546899,-1.158008,6.796118,-6.748267,-2.381812,-1.671216,good
1616135988.2123892,1,8.0,5.0,-4.0,-7.0,-2.0,0.76886,0.219849,-0.599792,-0.027832,-0.40458,0.21374,-0.091603,5.03877,1.56355,11.259473,-3.879565,-2.075562,9.457861,-9.461451,-3.563745,-2.562451,good
1616135988.227082,1,8.0,7.0,-7.0,-7.0,-3.0,0.777222,0.213074,-0.591125,-0.033325,-0.496183,0.167939,-0.175573,2.582788,0.601733,13.471411,-6.28291,-3.0302,11.409009,-11.916235,-4.169067,-4.405932,good
1616135988.232096,1,5.0,5.0,-12.0,-8.0,-2.0,0.783325,0.207886,-0.584229,-0.04303,-0.503817,-0.167939,-0.435115,-1.06709,-0.56106,15.095972,-9.861011,-4.244433,12.832593,-14.321973,-4.335351,-7.481592,good
1616135988.2427876,1,7.0,9.0,-6.0,-7.0,-4.0,0.783813,0.206726,-0.582642,-0.058472,-0.381679,-0.80916,-0.80916,-5.165576,-2.118628,16.219288,-13.879346,-5.961108,13.910449,-16.512379,-4.354492,-11.401831,good
1616135988.2528229,1,5.0,5.0,-11.0,-5.0,-5.0,0.776001,0.209778,-0.5896,-0.078674,-0.19084,-1.572519,-1.083969,-8.636011,-3.648682,16.123585,-17.2792,-7.748364,13.998975,-17.352173,-3.844873,-15.44768,good
1616135988.2628734,1,6.0,5.0,-8.0,-8.0,-4.0,0.758362,0.214783,-0.607056,-0.101135,-0.053435,-2.358779,-1.10687,-10.985522,-4.63562,14.778955,-19.582056,-9.030787,13.105347,-16.414282,-2.562451,-18.992285,good
1616135988.272825,1,9.0,7.0,-5.0,-7.0,1.0,0.730896,0.219116,-0.634338,-0.123901,0.007634,-3.022901,-0.969466,-12.001172,-4.544702,12.238037,-20.555836,-9.223389,11.265454,-13.544385,-0.453394,-21.230541,good
1616135988.282924,1,8.0,6.0,-7.0,-7.0,-1.0,0.694824,0.222473,-0.667969,-0.146667,0.038168,-3.40458,-0.854962,-11.961695,-3.231177,8.61687,-20.418262,-8.180224,8.531934,-9.030787,2.245435,-21.677954,good
1616135988.2928944,1,6.0,7.0,-6.0,-7.0,-3.0,0.652588,0.226196,-0.703125,-0.169128,0.091603,-3.473282,-0.854962,-10.803686,-1.081445,4.459765,-19.047314,-6.304443,5.352197,-3.831714,4.657153,-19.870361,good
1616135988.3020902,1,9.0,5.0,-6.0,-7.0,-3.0,0.607971,0.231018,-0.735352,-0.19043,0.137405,-3.267176,-0.900763,-8.805883,1.509717,0.150732,-16.706177,-3.987231,1.994214,1.045557,6.269751,-16.079321,good
1616135988.3122363,1,9.0,9.0,-4.0,-5.0,-1.0,0.564087,0.237305,-0.762451,-0.210144,0.129771,-2.862595,-0.954198,-6.520972,4.462158,-4.482495,-13.972656,-1.301563,-1.783667,5.380908,7.23396,-10.899389,good
1616135988.3222606,1,9.0,5.0,-6.0,-7.0,-3.0,0.524048,0.244629,-0.783081,-0.228699,0.022901,-2.343511,-0.969466,-4.263574,7.644287,-8.492456,-11.209229,1.620972,-5.09978,8.234057,7.719653,-5.18352,good
1616135988.3320448,1,8.0,5.0,-6.0,-7.0,-2.0,0.490967,0.250916,-0.796631,-0.247864,-0.251908,-1.832061,-0.916031,-2.289697,10.788135,-11.437719,-8.736499,4.502832,-7.565332,9.578687,7.877563,0.129199,good
1616135988.3422031,1,9.0,4.0,-4.0,-7.0,-3.0,0.464172,0.255005,-0.804626,-0.268494,-0.549618,-1.48855,-0.854962,-0.907983,13.124487,-13.603003,-6.88584,6.57002,-9.438721,10.307226,7.46604,4.20376,good
1616135988.3522038,1,8.0,9.0,-6.0,-7.0,-2.0,0.44104,0.25769,-0.809692,-0.289001,-0.633588,-1.29771,-0.78626,0.217725,14.026489,-15.192871,-5.321094,7.212427,-10.841968,10.730713,6.017334,6.820044,good
1616135988.3621504,1,11.0,5.0,-33.0,-7.0,-4.0,0.419983,0.259766,-0.814514,-0.304565,-0.419847,-1.152672,-0.694656,1.473828,13.498926,-16.362843,-3.679785,6.498242,-11.83728,10.768994,3.623559,8.17185,good
1616135988.3724506,1,8.0,6.0,-4.0,-7.0,-3.0,0.400635,0.262817,-0.820374,-0.312195,0.0,-0.977099,-0.572519,2.877075,12.576587,-17.220581,-1.955933,5.492163,-12.476099,10.310816,1.232178,9.043945,good
1616135988.3819833,1,8.0,9.0,-8.0,-7.0,-4.0,0.382935,0.267761,-0.827209,-0.312012,0.427481,-0.793893,-0.473282,4.292285,12.305029,-17.852222,-0.278735,5.236157,-12.833789,9.363355,-0.336157,10.216309,good
1616135988.3920586,1,9.0,5.0,-4.0,-8.0,-5.0,0.367371,0.274048,-0.834106,-0.306946,0.656489,-0.610687,-0.381679,5.684766,12.81106,-18.316381,1.326685,5.81875,-13.007251,8.041455,-1.098193,11.78584,good
1616135988.402409,1,9.0,5.0,-5.0,-6.0,-5.0,0.35498,0.279907,-0.839905,-0.300415,0.633588,-0.435115,-0.282443,6.961206,13.617358,-18.421656,2.764624,6.724341,-12.858912,6.467139,-1.364966,13.21062,good
1616135988.412183,1,8.0,7.0,-6.0,-7.0,-3.0,0.347046,0.284058,-0.843628,-0.295227,0.450382,-0.267176,-0.183206,7.956519,14.286084,-17.58186,3.861621,7.472022,-11.850439,4.567431,-1.244141,13.738184,good
1616135988.422365,1,9.0,7.0,-4.0,-7.0,-2.0,0.343628,0.28656,-0.845032,-0.292908,0.19084,-0.099237,-0.129771,8.609693,14.756226,-16.188183,4.562646,7.974463,-10.382593,2.77898,-0.925928,13.551562,good
1616135988.43235,1,10.0,6.0,-3.0,-11.0,-4.0,0.344055,0.288086,-0.844116,-0.293518,-0.053435,0.053435,-0.114504,8.905176,14.768188,-14.606689,4.870093,7.968482,-8.814258,1.434351,-0.698633,12.741674,good
1616135988.4420352,1,10.0,8.0,-2.0,-7.0,-4.0,0.347351,0.288818,-0.841431,-0.296448,-0.259542,0.175573,-0.114504,8.902783,14.276514,-13.031177,4.852149,7.420581,-7.3177,0.5802,-0.661548,11.461645,good
1616135988.4520645,1,8.0,7.0,-10.0,-7.0,-1.0,0.352539,0.288879,-0.837708,-0.300964,-0.40458,0.244275,-0.091603,8.6073,13.354175,-11.542994,4.521973,6.415698,-5.952734,0.162695,-0.753662,9.820337,good
1616135988.4620905,1,8.0,9.0,-5.0,-3.0,-1.0,0.358459,0.288269,-0.833496,-0.306213,-0.473282,0.267176,-0.076336,8.047437,12.095678,-10.279712,3.921436,5.067481,-4.834204,0.156714,-0.937891,7.969678,good
1616135988.4721973,1,8.0,8.0,-6.0,-7.0,0.0,0.363831,0.287415,-0.829651,-0.311035,-0.450382,0.236641,-0.061069,7.335645,10.589551,-9.213819,3.171362,3.481201,-3.903491,0.373242,-1.195093,5.98623,good
1616135988.4819572,1,9.0,8.0,-6.0,-7.0,-5.0,0.368042,0.286682,-0.826721,-0.314514,-0.335878,0.19084,-0.045802,6.603516,9.079834,-8.304639,2.406934,1.915259,-3.097192,0.618481,-1.433154,4.075757,good
1616135988.4922516,1,10.0,5.0,-7.0,-7.0,-3.0,0.370911,0.286499,-0.82489,-0.316101,-0.175573,0.145038,-0.030534,5.882154,7.797412,-7.513892,1.659253,0.60293,-2.367456,0.80271,-1.520483,2.399756,good
1616135988.5022397,1,6.0,7.0,-5.0,-7.0,-5.0,0.372498,0.286865,-0.824158,-0.315857,-0.022901,0.10687,-0.015267,5.239746,6.967187,-6.787744,0.997705,-0.228491,-1.661646,0.818262,-1.361377,1.132886,good
1616135988.5119414,1,8.0,7.0,-4.0,-6.0,-3.0,0.373413,0.287781,-0.823975,-0.314331,0.083969,0.091603,0.0,4.722949,6.626245,-6.089111,0.46416,-0.556274,-0.958228,0.637622,-0.972583,0.295483,good
1616135988.5219154,1,-6.0,6.0,-7.0,-7.0,-5.0,0.374084,0.288757,-0.824036,-0.3125,0.122137,0.083969,0.015267,4.286304,6.657349,-5.498145,0.011963,-0.50603,-0.354102,0.397168,-0.436646,-0.178247,good
1616135988.5322392,1,9.0,8.0,-6.0,-7.0,-6.0,0.374817,0.289612,-0.824036,-0.310852,0.10687,0.083969,0.030534,3.908276,6.857129,-5.053125,-0.38042,-0.290698,0.099292,0.200977,0.113647,-0.430664,good
1616135988.542148,1,11.0,8.0,-6.0,-7.0,-1.0,0.37561,0.290161,-0.823853,-0.309875,0.053435,0.068702,0.038168,3.572119,7.040161,-4.804297,-0.729736,-0.099292,0.34812,0.147144,0.556274,-0.575415,good
1616135988.5519795,1,9.0,7.0,-3.0,-7.0,-4.0,0.376099,0.290222,-0.82373,-0.30957,0.007634,0.038168,0.045802,3.312524,7.102368,-4.726538,-0.997705,-0.034692,0.42229,0.217725,0.809888,-0.685474,good
1616135988.5621178,1,8.0,7.0,-4.0,-10.0,-5.0,0.376282,0.289795,-0.823792,-0.30957,-0.015267,0.0,0.053435,3.161792,7.017432,-4.776782,-1.154419,-0.117236,0.369653,0.366064,0.852954,-0.787158,good
1616135988.5721087,1,9.0,6.0,-7.0,-7.0,-5.0,0.375854,0.289246,-0.824219,-0.309509,0.0,-0.030534,0.045802,3.073267,6.842773,-4.953833,-1.242944,-0.287109,0.19978,0.593359,0.756055,-0.861328,good
1616135988.5819771,1,6.0,7.0,-6.0,-7.0,-2.0,0.374756,0.288879,-0.824951,-0.309143,0.030534,-0.061069,0.030534,3.056519,6.6729,-5.212232,-1.252515,-0.447412,-0.037085,0.830225,0.588574,-0.855347,good
1616135988.5920522,1,5.0,7.0,-4.0,-7.0,-3.0,0.372986,0.288757,-0.82605,-0.308411,0.068702,-0.091603,0.007634,3.119922,6.534131,-5.482593,-1.172363,-0.569434,-0.272754,1.007275,0.381616,-0.781177,good
1616135988.6019034,1,8.0,7.0,-5.0,-7.0,-6.0,0.370728,0.289062,-0.827393,-0.307312,0.10687,-0.10687,-0.015267,3.240747,6.50542,-5.729028,-1.030005,-0.577808,-0.472534,1.092212,0.215332,-0.6125,good
1616135988.612154,1,9.0,7.0,-3.0,-7.0,-3.0,0.368164,0.289795,-0.828735,-0.306091,0.122137,-0.10687,-0.038168,3.422583,6.675293,-5.897705,-0.818262,-0.387598,-0.58977,1.021631,0.153125,-0.313428,good
1616135988.621976,1,10.0,7.0,-6.0,-7.0,-4.0,0.365784,0.290894,-0.829712,-0.305298,0.10687,-0.091603,-0.068702,3.611597,6.999487,-5.995801,-0.595752,-0.050244,-0.643604,0.852954,0.198584,0.058618,good
1616135988.6319113,1,8.0,4.0,-5.0,-7.0,-1.0,0.363892,0.292114,-0.8302,-0.305115,0.061069,-0.068702,-0.076336,3.807788,7.376318,-6.055615,-0.366064,0.327783,-0.674707,0.648389,0.270361,0.449805,good
1616135988.6418457,1,9.0,7.0,-6.0,-7.0,-3.0,0.362671,0.293091,-0.830139,-0.305725,0.0,-0.045802,-0.083969,3.97168,7.706494,-6.117822,-0.172266,0.648389,-0.727344,0.492871,0.322998,0.79314,good
1616135988.6519947,1,13.0,7.0,-6.0,-7.0,-2.0,0.362,0.293823,-0.829712,-0.306946,-0.053435,-0.030534,-0.076336,4.085327,7.903882,-6.24104,-0.033496,0.826636,-0.855347,0.466553,0.297876,1.052734,good
1616135988.6619,1,8.0,8.0,-4.0,-5.0,-2.0,0.361572,0.294189,-0.829224,-0.308411,-0.083969,-0.022901,-0.061069,4.167871,7.914649,-6.408521,0.069385,0.817065,-1.03479,0.551489,0.161499,1.187915,good
1616135988.6719947,1,8.0,7.0,-6.0,-7.0,-3.0,0.361328,0.294434,-0.828857,-0.309448,-0.076336,-0.007634,-0.045802,4.273145,7.774683,-6.546094,0.187817,0.661548,-1.180737,0.641211,-0.066992,1.204663,good
1616135988.68196,1,9.0,7.0,-4.0,-8.0,-3.0,0.361267,0.294556,-0.828735,-0.309814,-0.038168,0.0,-0.030534,4.386792,7.554565,-6.628638,0.30625,0.435449,-1.26687,0.701025,-0.321802,1.136475,good
1616135988.6920767,1,11.0,7.0,-5.0,-6.0,-3.0,0.361267,0.294739,-0.828857,-0.309326,0.015267,0.015267,-0.007634,4.47771,7.383496,-6.622656,0.394775,0.270361,-1.254907,0.685474,-0.484497,1.046753,good
1616135988.7019591,1,7.0,5.0,-7.0,-6.0,-6.0,0.361267,0.294922,-0.829102,-0.308411,0.038168,0.015267,0.0,4.52915,7.351196,-6.536523,0.440234,0.250024,-1.158008,0.588574,-0.498853,1.000098,good
1616135988.7112577,1,7.0,5.0,-6.0,-7.0,-4.0,0.361328,0.295044,-0.829346,-0.307556,0.038168,0.015267,0.007634,4.559058,7.478003,-6.372632,0.46416,0.388794,-0.984546,0.401953,-0.374438,1.015649,good
1616135988.7211647,1,9.0,5.0,-4.0,-7.0,-5.0,0.361694,0.294983,-0.829346,-0.307251,0.0,0.015267,0.015267,4.544702,7.68855,-6.20874,0.441431,0.60293,-0.821851,0.230884,-0.172266,1.071875,good
1616135988.7312706,1,9.0,6.0,-3.0,-48.0,-6.0,0.362183,0.294617,-0.829102,-0.307678,-0.053435,0.007634,0.022901,4.511206,7.84646,-6.084326,0.401953,0.754858,-0.709399,0.126807,-0.015552,1.102978,good
1616135988.7418888,1,8.0,8.0,-6.0,-7.0,-1.0,0.362915,0.293884,-0.828613,-0.308777,-0.10687,0.015267,0.022901,4.471728,7.927808,-5.98623,0.355298,0.821851,-0.635229,0.080151,0.080151,1.091016,good
1616135988.7518277,1,9.0,8.0,-2.0,-7.0,-2.0,0.363831,0.29303,-0.827942,-0.310303,-0.129771,0.015267,0.015267,4.395166,7.812964,-5.973071,0.272754,0.68667,-0.65437,0.18064,0.045459,0.968994,good
1616135988.7619612,1,9.0,5.0,-7.0,-7.0,-3.0,0.364502,0.292236,-0.827393,-0.311646,-0.122137,0.015267,0.007634,4.300659,7.524658,-6.0281,0.173462,0.382812,-0.735718,0.381616,-0.102881,0.748877,good
1616135988.7719803,1,9.0,9.0,-4.0,-7.0,-4.0,0.36499,0.291687,-0.827148,-0.312439,-0.083969,0.015267,0.007634,4.1906,7.207642,-6.105859,0.058618,0.055029,-0.829028,0.604126,-0.258398,0.510815,good
1616135988.7819116,1,8.0,8.0,-6.0,-7.0,-4.0,0.36499,0.291382,-0.827148,-0.312622,-0.038168,0.0,0.0,4.050635,6.970777,-6.196777,-0.080151,-0.181836,-0.922339,0.815869,-0.33855,0.328979,good
1616135988.792029,1,9.0,7.0,-6.0,-7.0,-4.0,0.364563,0.291382,-0.827454,-0.312317,0.0,-0.007634,0.007634,3.947754,6.839185,-6.248218,-0.18064,-0.307446,-0.964209,0.936694,-0.360083,0.218921,good
1616135988.8020265,1,7.0,5.0,-4.0,-7.0,-5.0,0.364014,0.291443,-0.827942,-0.311646,0.030534,-0.015267,0.007634,3.880762,6.84397,-6.245825,-0.245239,-0.291895,-0.945068,0.953442,-0.297876,0.194995,good
1616135988.8119514,1,7.0,4.0,-8.0,-7.0,-6.0,0.363464,0.291504,-0.828369,-0.311096,0.030534,-0.015267,0.007634,3.831714,6.963599,-6.20874,-0.291895,-0.163892,-0.893628,0.906787,-0.16748,0.24165,good
1616135988.8212388,1,9.0,7.0,-6.0,-7.0,-5.0,0.362915,0.291626,-0.828674,-0.310791,0.015267,-0.015267,0.0,3.806592,7.115527,-6.159692,-0.311035,-0.005981,-0.833813,0.830225,-0.035889,0.317017,good
1616135988.8320627,1,11.0,5.0,-4.0,-7.0,-3.0,0.362488,0.291626,-0.828796,-0.310913,-0.007634,-0.015267,0.0,3.79104,7.25669,-6.150122,-0.319409,0.133984,-0.819458,0.787158,0.062207,0.407935,good
1616135988.8411562,1,11.0,5.0,-6.0,-7.0,-5.0,0.362122,0.291565,-0.828796,-0.31134,-0.030534,-0.022901,-0.007634,3.817358,7.333252,-6.133374,-0.284717,0.205762,-0.80271,0.735718,0.087329,0.466553,good
1616135988.8518355,1,9.0,6.0,-4.0,-6.0,-2.0,0.361938,0.291382,-0.828796,-0.31189,-0.045802,-0.015267,-0.007634,3.881958,7.344018,-6.121411,-0.215332,0.209351,-0.794336,0.689062,0.04187,0.494067,good
1616135988.861098,1,9.0,9.0,-6.0,-7.0,-3.0,0.361816,0.291199,-0.828674,-0.312439,-0.045802,-0.015267,-0.007634,3.954932,7.297363,-6.144141,-0.137573,0.156714,-0.823047,0.680689,-0.055029,0.502441,good
1616135988.87135,1,7.0,4.0,-6.0,-7.0,-3.0,0.361694,0.291016,-0.828674,-0.312744,-0.038168,-0.007634,-0.007634,4.036279,7.227979,-6.175244,-0.053833,0.084937,-0.855347,0.6771,-0.171069,0.503638,good
1616135988.8817997,1,9.0,7.0,-1.0,-8.0,-5.0,0.361694,0.291016,-0.828674,-0.312744,-0.022901,0.0,-0.007634,4.120019,7.146631,-6.203955,0.028711,0.003589,-0.884058,0.673511,-0.289502,0.494067,good
1616135988.8910615,1,6.0,5.0,-5.0,-7.0,-3.0,0.361694,0.291138,-0.828735,-0.3125,-0.007634,0.007634,-0.015267,4.20376,7.113135,-6.200366,0.111255,-0.026318,-0.878076,0.629248,-0.364868,0.503638,good
1616135988.9014528,1,10.0,8.0,-4.0,-6.0,-3.0,0.361816,0.291321,-0.828674,-0.312256,-0.007634,0.015267,-0.015267,4.271948,7.143042,-6.183618,0.178247,0.004785,-0.860132,0.569434,-0.386401,0.544312,good
1616135988.911091,1,7.0,5.0,-5.0,-7.0,-3.0,0.362,0.291565,-0.828552,-0.312195,-0.015267,0.015267,-0.015267,4.323389,7.207642,-6.150122,0.228491,0.068188,-0.827832,0.498853,-0.372046,0.594556,good
1616135988.9212077,1,11.0,4.0,-6.0,-7.0,-3.0,0.362183,0.291687,-0.828308,-0.3125,-0.038168,0.015267,-0.022901,4.365259,7.2854,-6.117822,0.271558,0.141162,-0.80271,0.436646,-0.34812,0.650781,good
1616135988.9314606,1,7.0,6.0,-6.0,-7.0,-4.0,0.362427,0.291748,-0.828003,-0.313049,-0.053435,0.007634,-0.022901,4.382007,7.346411,-6.102271,0.289502,0.192603,-0.796728,0.409131,-0.327783,0.692651,good
1616135988.9409826,1,8.0,6.0,-6.0,-7.0,-1.0,0.36261,0.291748,-0.827698,-0.31366,-0.053435,0.0,-0.022901,4.387988,7.361963,-6.103467,0.297876,0.19978,-0.807495,0.411523,-0.332568,0.705811,good
1616135988.95127,1,11.0,4.0,-7.0,-7.0,-3.0,0.362732,0.291565,-0.827454,-0.314209,-0.053435,-0.007634,-0.007634,4.389184,7.375122,-6.081933,0.301465,0.205762,-0.795532,0.399561,-0.328979,0.704614,good
1616135988.961904,1,8.0,8.0,-5.0,-7.0,-4.0,0.362793,0.291199,-0.827393,-0.314636,-0.045802,-0.015267,0.007634,4.392774,7.408618,-6.036475,0.305054,0.234473,-0.756055,0.358887,-0.301465,0.705811,good
1616135988.9712093,1,8.0,6.0,-6.0,-7.0,-4.0,0.362915,0.29071,-0.827393,-0.315063,-0.045802,-0.015267,0.015267,4.384399,7.428955,-5.982642,0.293091,0.251221,-0.708203,0.324194,-0.267969,0.68667,good
1616135988.981116,1,9.0,6.0,-4.0,-6.0,-3.0,0.363098,0.290222,-0.827332,-0.315369,-0.045802,-0.007634,0.015267,4.382007,7.449292,-5.912061,0.287109,0.269165,-0.6448,0.27395,-0.233276,0.662744,good
1616135988.9914403,1,7.0,4.0,-7.0,-39.0,0.0,0.363525,0.289734,-0.827209,-0.315735,-0.045802,0.007634,0.015267,4.368848,7.454077,-5.829516,0.266772,0.270361,-0.571826,0.228491,-0.196191,0.616089,good
1616135991.219009,1,7.0,8.0,-7.0,-7.0,0.0,0.753113,0.253174,-0.607178,-0.009338,-0.015267,-0.015267,-0.015267,8.887232,3.706104,1.39248,-0.028711,-0.141162,0.07417,-0.033496,-0.141162,-0.070581,good
1616135991.2290304,1,9.0,7.0,-5.0,-7.0,-5.0,0.752991,0.253174,-0.6073,-0.009399,0.0,-0.007634,-0.007634,8.925512,3.694141,1.36377,0.008374,-0.153125,0.047852,0.002393,-0.153125,-0.045459,good
1616135991.2386072,1,9.0,5.0,-5.0,-7.0,-3.0,0.75293,0.253235,-0.607361,-0.009277,0.007634,-0.007634,0.0,8.947046,3.709692,1.31831,0.029907,-0.137573,0.004785,0.043066,-0.130396,-0.025122,good
1616135991.2488437,1,10.0,6.0,-8.0,-7.0,-1.0,0.752808,0.253479,-0.607361,-0.009033,0.015267,0.0,0.0,8.954224,3.757544,1.283618,0.037085,-0.089722,-0.025122,0.058618,-0.080151,-0.004785,good
1616135991.2588823,1,9.0,8.0,-5.0,-7.0,-2.0,0.752747,0.253662,-0.607361,-0.00885,0.015267,0.0,0.0,8.95542,3.831714,1.26687,0.038281,-0.015552,-0.040674,0.05144,-0.00957,0.022729,good
1616135991.268159,1,8.0,6.0,-7.0,-7.0,-1.0,0.752747,0.253845,-0.6073,-0.008789,0.0,0.0,0.0,8.945849,3.908276,1.269263,0.028711,0.057422,-0.038281,0.025122,0.053833,0.043066,good
1616135991.2779694,1,9.0,8.0,-10.0,-7.0,-3.0,0.752747,0.253906,-0.6073,-0.008911,-0.007634,0.0,-0.007634,8.941065,3.950146,1.274048,0.025122,0.096899,-0.033496,0.008374,0.088525,0.056226,good
1616135991.2883463,1,8.0,8.0,-6.0,-8.0,-3.0,0.752747,0.253906,-0.607239,-0.009033,-0.015267,0.0,-0.007634,8.941065,3.944165,1.282422,0.026318,0.089722,-0.025122,0.002393,0.078955,0.055029,good
1616135991.2982535,1,9.0,13.0,-7.0,-7.0,-4.0,0.752808,0.253845,-0.607239,-0.009094,-0.007634,0.0,-0.007634,8.941065,3.915454,1.280029,0.026318,0.061011,-0.028711,0.014355,0.055029,0.043066,good
1616135991.3082385,1,9.0,5.0,-4.0,-4.0,-3.0,0.752808,0.253784,-0.607239,-0.009155,-0.007634,-0.007634,0.0,8.937475,3.878369,1.281226,0.022729,0.023926,-0.027515,0.023926,0.022729,0.026318,good
1616135991.318373,1,8.0,5.0,-20.0,-7.0,1.0,0.752808,0.253723,-0.6073,-0.009033,0.0,-0.007634,0.0,8.951831,3.854443,1.287207,0.035889,0.002393,-0.021533,0.027515,-0.001196,0.029907,good
1616135991.328443,1,9.0,7.0,-6.0,-8.0,-6.0,0.752747,0.253662,-0.607361,-0.008911,0.0,-0.007634,0.0,8.951831,3.837695,1.297974,0.034692,-0.010767,-0.00957,0.020337,-0.016748,0.025122,good
1616135991.3382585,1,8.0,7.0,-7.0,-7.0,-3.0,0.752747,0.253601,-0.607422,-0.00885,0.0,-0.007634,0.0,8.948242,3.830518,1.315918,0.029907,-0.015552,0.007178,0.004785,-0.025122,0.021533,good
1616135991.3482008,1,11.0,8.0,-4.0,-7.0,-1.0,0.752747,0.25354,-0.607422,-0.008789,-0.007634,-0.007634,0.0,8.945849,3.816162,1.321899,0.027515,-0.028711,0.013159,0.002393,-0.038281,0.014355,good
1616135991.3588674,1,9.0,9.0,-6.0,-7.0,-4.0,0.752808,0.253479,-0.607422,-0.008728,-0.007634,0.0,-0.007634,8.941065,3.811377,1.319507,0.021533,-0.0323,0.00957,0.005981,-0.038281,0.007178,good
1616135991.3680837,1,7.0,7.0,1.0,-7.0,-2.0,0.752808,0.253418,-0.607422,-0.00885,-0.007634,0.0,-0.007634,8.931494,3.803003,1.295581,0.011963,-0.040674,-0.013159,0.026318,-0.033496,-0.005981,good
1616135991.3782785,1,9.0,7.0,-6.0,-7.0,-3.0,0.752869,0.253479,-0.607361,-0.008911,-0.007634,0.0,-0.015267,8.927905,3.797021,1.275244,0.00957,-0.049048,-0.034692,0.047852,-0.0323,-0.014355,good
1616135991.3882637,1,12.0,7.0,-7.0,21.0,5.0,0.752869,0.253479,-0.6073,-0.008972,-0.007634,0.0,-0.007634,8.927905,3.807788,1.254907,0.010767,-0.038281,-0.056226,0.0646,-0.015552,-0.011963,good
1616135991.3981998,1,9.0,5.0,-5.0,-8.0,-4.0,0.752869,0.253601,-0.607239,-0.009033,0.0,0.0,-0.007634,8.929102,3.847266,1.252515,0.013159,-0.002393,-0.058618,0.057422,0.014355,0.002393,good
1616135991.408113,1,12.0,6.0,-7.0,-7.0,-2.0,0.752869,0.253723,-0.607239,-0.009033,0.0,0.0,-0.007634,8.943457,3.883154,1.258496,0.027515,0.031104,-0.05144,0.044263,0.037085,0.029907,good
1616135991.4183578,1,11.0,6.0,-1.0,-7.0,-5.0,0.75293,0.253784,-0.607117,-0.009033,0.0,0.0,0.0,8.951831,3.90708,1.271655,0.037085,0.053833,-0.040674,0.031104,0.049048,0.049048,good
1616135991.4281907,1,17.0,5.0,-7.0,-6.0,-3.0,0.75293,0.253845,-0.607056,-0.008972,0.0,0.0,0.0,8.949438,3.915454,1.286011,0.034692,0.062207,-0.026318,0.014355,0.052637,0.05144,good
1616135991.4381814,1,8.0,3.0,-7.0,-7.0,0.0,0.752991,0.253906,-0.606995,-0.008911,0.0,0.0,0.0,8.937475,3.925025,1.294385,0.022729,0.070581,-0.020337,0.003589,0.061011,0.045459,good
1616135991.4481542,1,9.0,10.0,-6.0,-7.0,-5.0,0.752991,0.253906,-0.606995,-0.008972,-0.007634,-0.007634,0.0,8.924316,3.946558,1.315918,0.00957,0.092114,0.0,-0.023926,0.076563,0.044263,good
1616135991.458347,1,7.0,8.0,-6.0,-7.0,-3.0,0.752991,0.253906,-0.606995,-0.009033,-0.007634,-0.007634,-0.007634,8.913549,3.95852,1.33147,0.0,0.102881,0.015552,-0.044263,0.08374,0.04187,good
1616135991.468204,1,9.0,7.0,-8.0,-7.0,1.0,0.752991,0.253845,-0.606995,-0.009155,-0.007634,-0.007634,-0.007634,8.906372,3.957324,1.333862,-0.005981,0.101685,0.017944,-0.047852,0.08374,0.035889,good
1616135991.478303,1,10.0,8.0,-6.0,-9.0,-4.0,0.75293,0.253784,-0.607056,-0.009277,-0.007634,-0.007634,-0.007634,8.914746,3.94895,1.313525,0.001196,0.093311,0.0,-0.026318,0.080151,0.037085,good
1616135991.4884603,1,11.0,6.0,-8.0,-6.0,-2.0,0.752869,0.253784,-0.607178,-0.009338,-0.007634,-0.007634,0.0,8.927905,3.946558,1.303955,0.014355,0.089722,-0.007178,-0.015552,0.075366,0.046655,good
1616135991.4980977,1,9.0,5.0,-5.0,-7.0,0.0,0.752808,0.253784,-0.6073,-0.009338,-0.007634,-0.007634,0.0,8.942261,3.95852,1.283618,0.027515,0.101685,-0.025122,0.0,0.088525,0.061011,good
1616135991.5081325,1,7.0,7.0,-6.0,-7.0,-4.0,0.752686,0.253784,-0.607361,-0.009338,-0.007634,-0.007634,0.0,8.964991,3.992017,1.2573,0.050244,0.136377,-0.049048,0.017944,0.119629,0.092114,good
1616135991.5182636,1,10.0,9.0,-10.0,-10.0,-3.0,0.752686,0.253662,-0.607483,-0.009338,-0.007634,-0.007634,0.007634,8.994898,4.000391,1.233374,0.078955,0.145947,-0.071777,0.043066,0.128003,0.119629,good
1616135991.528095,1,9.0,9.0,-5.0,-7.0,-4.0,0.752686,0.25354,-0.607544,-0.009277,-0.015267,0.0,0.007634,9.011645,3.997998,1.198682,0.094507,0.145947,-0.10647,0.078955,0.135181,0.128003,good
1616135991.5381205,1,10.0,9.0,-6.0,-7.0,-1.0,0.752747,0.253357,-0.607483,-0.009155,-0.007634,0.007634,0.007634,9.010449,3.980054,1.180737,0.092114,0.132788,-0.126807,0.100488,0.132788,0.118433,good
1616135991.5481763,1,7.0,8.0,-6.0,-6.0,0.0,0.752869,0.253174,-0.607422,-0.009033,-0.007634,0.007634,0.007634,8.993701,3.951343,1.185522,0.07417,0.107666,-0.12561,0.102881,0.11604,0.092114,good
1616135991.558138,1,9.0,9.0,-3.0,-7.0,-3.0,0.753052,0.252991,-0.6073,-0.008911,-0.007634,0.007634,0.007634,8.973364,3.90708,1.209448,0.053833,0.065796,-0.10647,0.092114,0.078955,0.059814,good
1616135991.5679605,1,8.0,5.0,-4.0,-7.0,-4.0,0.753174,0.252747,-0.607239,-0.008789,-0.015267,0.007634,0.007634,8.941065,3.868799,1.240552,0.020337,0.0323,-0.078955,0.068188,0.050244,0.020337,good
1616135991.5781906,1,11.0,-13.0,-7.0,-7.0,-2.0,0.753296,0.252502,-0.607178,-0.008728,-0.015267,0.0,0.007634,8.909961,3.804199,1.280029,-0.010767,-0.027515,-0.043066,0.044263,-0.003589,-0.026318,good
1616135991.588268,1,7.0,7.0,-6.0,-7.0,-3.0,0.753357,0.252197,-0.607239,-0.008667,-0.007634,-0.007634,0.007634,8.890821,3.7073,1.303955,-0.0323,-0.119629,-0.021533,0.045459,-0.084937,-0.078955,good
1616135991.5982475,1,9.0,7.0,-6.0,-7.0,-6.0,0.753235,0.252014,-0.607422,-0.008423,0.0,-0.015267,0.007634,8.877661,3.6104,1.305151,-0.047852,-0.209351,-0.016748,0.063403,-0.160303,-0.126807,good
1616135991.608239,1,9.0,8.0,-4.0,-7.0,-3.0,0.753052,0.252014,-0.607727,-0.008057,0.015267,-0.022901,0.007634,8.889624,3.539819,1.2896,-0.039478,-0.275146,-0.026318,0.094507,-0.217725,-0.145947,good
1616135991.618095,1,9.0,7.0,-7.0,-6.0,-3.0,0.752686,0.252136,-0.608093,-0.007629,0.030534,-0.022901,0.007634,8.914746,3.515893,1.264477,-0.017944,-0.294287,-0.040674,0.118433,-0.235669,-0.135181,good
1616135991.6282248,1,9.0,8.0,-6.0,-7.0,-4.0,0.752319,0.25238,-0.608459,-0.007202,0.030534,-0.022901,0.007634,8.941065,3.543408,1.24773,0.003589,-0.263184,-0.046655,0.120825,-0.212939,-0.104077,good
1616135991.6382804,1,8.0,9.0,-5.0,-7.0,-3.0,0.752014,0.252563,-0.608765,-0.006897,0.022901,-0.022901,0.0,8.976954,3.598438,1.228589,0.037085,-0.205762,-0.056226,0.122021,-0.169873,-0.052637,good
1616135991.6480548,1,9.0,5.0,-6.0,-7.0,-1.0,0.751831,0.252747,-0.608948,-0.006714,0.007634,-0.015267,0.0,8.996094,3.653467,1.220215,0.055029,-0.150732,-0.058618,0.112451,-0.126807,-0.015552,good
1616135991.658099,1,9.0,9.0,-5.0,-7.0,-3.0,0.75177,0.252808,-0.609009,-0.006592,0.0,-0.007634,0.0,8.993701,3.710889,1.208252,0.052637,-0.092114,-0.069385,0.104077,-0.070581,0.002393,good
1616135991.668261,1,8.0,5.0,-6.0,-7.0,-5.0,0.751709,0.252808,-0.60907,-0.006653,-0.007634,-0.007634,-0.007634,8.986524,3.764722,1.223804,0.045459,-0.038281,-0.05144,0.069385,-0.027515,0.019141,good
1616135991.6781447,1,9.0,5.0,-6.0,-7.0,-3.0,0.751709,0.252747,-0.60907,-0.006775,-0.015267,-0.007634,-0.007634,8.966187,3.786255,1.236963,0.025122,-0.017944,-0.039478,0.047852,-0.008374,0.010767,good
1616135991.6881204,1,10.0,8.0,-5.0,-7.0,-1.0,0.751709,0.252686,-0.60907,-0.006958,-0.007634,-0.007634,-0.007634,8.948242,3.771899,1.229785,0.008374,-0.033496,-0.046655,0.053833,-0.014355,-0.010767,good
1616135991.6982174,1,9.0,8.0,-6.0,-7.0,-6.0,0.751648,0.252747,-0.609131,-0.006958,0.0,-0.007634,-0.007634,8.947046,3.730029,1.227393,0.007178,-0.076563,-0.046655,0.066992,-0.05144,-0.028711,good
1616135991.708276,1,9.0,10.0,-6.0,-5.0,0.0,0.751526,0.252869,-0.609253,-0.006714,0.015267,-0.007634,0.0,8.942261,3.689355,1.239355,0.001196,-0.114844,-0.031104,0.062207,-0.088525,-0.046655,good
1616135991.7180188,1,9.0,8.0,-5.0,-7.0,-3.0,0.751343,0.253235,-0.609314,-0.006287,0.038168,-0.007634,0.0,8.925512,3.690552,1.24773,-0.015552,-0.113647,-0.017944,0.045459,-0.087329,-0.059814,good
1616135991.7281537,1,9.0,7.0,-2.0,-6.0,-3.0,0.75116,0.253784,-0.609375,-0.005859,0.045802,-0.007634,0.0,8.905176,3.750366,1.283618,-0.037085,-0.055029,0.023926,-0.014355,-0.044263,-0.05144,good
1616135991.7382553,1,8.0,7.0,-4.0,-7.0,-4.0,0.750977,0.254395,-0.609375,-0.005554,0.038168,-0.007634,-0.007634,8.875269,3.846069,1.351807,-0.065796,0.034692,0.096899,-0.11604,0.014355,-0.033496,good
1616135991.7481847,1,8.0,6.0,-7.0,-8.0,-4.0,0.750793,0.254883,-0.609314,-0.005493,0.022901,-0.015267,-0.015267,8.842969,3.951343,1.448706,-0.095703,0.133984,0.198584,-0.246436,0.071777,-0.00957,good
1616135991.7582104,1,9.0,7.0,-6.0,-7.0,-5.0,0.750793,0.255188,-0.609192,-0.005676,0.0,-0.015267,-0.015267,8.808276,4.020728,1.56355,-0.126807,0.197388,0.313428,-0.379224,0.093311,0.001196,good
1616135991.768035,1,7.0,7.0,-6.0,-7.0,-3.0,0.750916,0.255249,-0.60907,-0.006165,-0.022901,-0.015267,-0.022901,8.760425,4.038672,1.673608,-0.172266,0.208154,0.421094,-0.492871,0.077759,-0.021533,good
1616135991.777935,1,10.0,6.0,-7.0,-7.0,-4.0,0.751038,0.255066,-0.608887,-0.006775,-0.030534,-0.022901,-0.022901,8.689844,4.047046,1.824341,-0.239258,0.210547,0.565845,-0.643604,0.046655,-0.062207,good
1616135991.7881308,1,9.0,8.0,-7.0,-7.0,-5.0,0.751465,0.254761,-0.608521,-0.00769,-0.053435,-0.015267,-0.030534,8.610888,4.085327,2.070776,-0.313428,0.240454,0.800317,-0.887646,0.010767,-0.087329,good
1616135991.7980878,1,9.0,7.0,-6.0,-7.0,-4.0,0.752136,0.254272,-0.60791,-0.00885,-0.076336,-0.007634,-0.038168,8.455371,4.074561,2.399756,-0.461768,0.220117,1.110156,-1.204663,-0.071777,-0.186621,good
1616135991.808293,1,11.0,9.0,-7.0,-7.0,-4.0,0.753174,0.253418,-0.606995,-0.010254,-0.091603,0.0,-0.038168,8.192187,3.932202,2.889038,-0.716577,0.068188,1.568335,-1.649683,-0.287109,-0.41272,good
1616135991.818096,1,8.0,9.0,-7.0,-6.0,-3.0,0.7547,0.252197,-0.60553,-0.011658,-0.10687,0.015267,-0.045802,7.851245,3.584082,3.670215,-1.047949,-0.284717,2.302856,-2.314819,-0.753662,-0.742895,good
1616135991.828238,1,12.0,7.0,-5.0,-7.0,-3.0,0.757019,0.250427,-0.603333,-0.012817,-0.10687,0.045802,-0.038168,7.348804,3.001489,4.905982,-1.539624,-0.864917,3.469238,-3.363965,-1.52168,-1.228589,good
1616135991.8380172,1,9.0,8.0,-7.0,-8.0,-4.0,0.760681,0.247803,-0.599792,-0.013794,-0.137405,0.083969,-0.030534,6.554468,2.403345,7.006665,-2.320801,-1.452295,5.46106,-5.268457,-2.502637,-1.811182,good
1616135991.8480031,1,8.0,8.0,-4.0,-7.0,-4.0,0.766479,0.243774,-0.593933,-0.015503,-0.236641,0.137405,-0.045802,5.25769,1.924829,9.966284,-3.590064,-1.917651,8.244824,-8.114429,-3.491968,-2.545703,good
1616135991.8580098,1,9.0,7.0,-4.0,-7.0,-3.0,0.773926,0.238342,-0.586365,-0.019775,-0.396947,0.10687,-0.129771,2.970386,1.520483,12.520361,-5.830713,-2.321997,10.572803,-10.934082,-3.902295,-4.04585,good
1616135991.8682928,1,9.0,8.0,-8.0,-7.0,-1.0,0.779907,0.233215,-0.580078,-0.029053,-0.519084,-0.19084,-0.358779,-0.368457,0.891235,14.398535,-9.102564,-3.003882,12.25957,-13.543188,-3.84248,-6.63103,good
1616135991.8780043,1,9.0,8.0,-7.0,-7.0,-3.0,0.781189,0.230347,-0.578552,-0.044739,-0.519084,-0.778626,-0.694656,-4.027905,-0.278735,15.646265,-12.684253,-4.312622,13.446289,-15.72522,-3.713281,-9.960302,good
1616135991.888118,1,9.0,17.0,-28.0,-6.0,-4.0,0.775024,0.230286,-0.584839,-0.065613,-0.412214,-1.496183,-0.954198,-7.114331,-1.84707,15.732397,-15.701294,-6.096289,13.67478,-16.612865,-3.402246,-13.532422,good
1616135991.8980572,1,10.0,7.0,-6.0,-7.0,0.0,0.759827,0.23175,-0.60083,-0.088806,-0.267176,-2.236641,-0.984733,-9.201856,-3.206055,14.731104,-17.745752,-7.702905,13.059888,-16.007544,-2.622266,-16.77915,good
1616135991.90823,1,7.0,8.0,-8.0,-5.0,-4.0,0.734985,0.233276,-0.62677,-0.111816,-0.10687,-2.931298,-0.870229,-10.230664,-4.104468,12.651953,-18.748241,-8.838183,11.61836,-13.726221,-1.446314,-19.339209,good
1616135991.9181845,1,10.0,9.0,-3.0,-7.0,-3.0,0.7005,0.234619,-0.660828,-0.132446,0.114504,-3.435115,-0.694656,-10.414892,-4.501636,9.534424,-18.878637,-9.437525,9.371729,-9.810766,-0.149536,-20.903955,good
1616135991.9281113,1,8.0,4.0,-3.0,-7.0,-3.0,0.658386,0.236877,-0.698669,-0.149414,0.374046,-3.618321,-0.587786,-9.778467,-3.877173,5.926416,-18.099854,-8.979345,6.792529,-5.145239,1.280029,-20.646753,good
1616135991.9381726,1,11.0,7.0,-7.0,-4.0,-3.0,0.611816,0.242432,-0.735168,-0.162659,0.671756,-3.496183,-0.625954,-8.417089,-2.098291,1.951147,-16.459742,-7.348804,3.895117,-0.451001,2.822046,-18.218287,good
1616135991.9481957,1,12.0,7.0,-6.0,-7.0,-3.0,0.562805,0.252869,-0.7677,-0.172913,0.923664,-3.206107,-0.755725,-6.828418,0.784766,-2.563648,-14.439209,-4.605713,0.441431,3.915454,4.666724,-13.882935,good
1616135991.9582193,1,8.0,7.0,-6.0,-6.0,-4.0,0.515381,0.266113,-0.794067,-0.18158,0.923664,-2.748092,-0.801527,-5.033984,4.665527,-6.816455,-12.107641,-0.848169,-2.868701,6.784155,6.670508,-8.060596,good
1616135991.9681056,1,11.0,8.0,-7.0,-7.0,-4.0,0.474121,0.277832,-0.813049,-0.192444,0.534351,-2.267176,-0.770992,-3.340039,8.625244,-10.206738,-9.846655,2.976367,-5.537622,7.960107,8.267553,-2.184424,good
1616135991.9781282,1,11.0,7.0,-5.0,-6.0,-3.0,0.440491,0.284973,-0.825378,-0.208557,-0.083969,-1.885496,-0.717557,-2.001392,11.535815,-12.698608,-7.9625,5.701514,-7.553369,8.334546,8.783154,2.515796,good
1616135991.988124,1,10.0,8.0,-8.0,-7.0,-5.0,0.414429,0.286255,-0.832947,-0.229126,-0.618321,-1.572519,-0.534351,-0.421094,13.637695,-14.528931,-5.901294,7.571313,-9.124097,8.229273,8.151514,6.418091,good
1616135991.998006,1,12.0,8.0,-6.0,-7.0,-4.0,0.394592,0.281982,-0.838379,-0.24884,-0.78626,-1.335878,-0.244275,1.075464,13.513281,-15.87356,-4.032691,7.242334,-10.33833,8.424268,5.878564,8.369238,good
1616135992.00812,1,11.0,7.0,-6.0,-7.0,-5.0,0.377441,0.275269,-0.844849,-0.260864,-0.473282,-1.160305,-0.015267,2.174854,11.747559,-16.861694,-2.667725,5.390479,-11.186499,8.79751,2.999097,8.655151,good
1616135992.0181208,1,9.0,8.0,-8.0,-9.0,-5.0,0.360718,0.270142,-0.853027,-0.263123,0.083969,-1.007634,0.068702,3.228784,10.008154,-17.589039,-1.408032,3.698926,-11.696118,8.693433,0.590967,8.747266,good
1616135992.0281296,1,10.0,5.0,-7.0,-7.0,-6.0,0.344543,0.268555,-0.862061,-0.257019,0.603053,-0.824427,0.045802,4.548291,9.162378,-18.122583,0.078955,3.005078,-11.942554,7.834497,-0.957031,9.453076,good
1616135992.037949,1,12.0,6.0,-7.0,-7.0,-6.0,0.330383,0.269958,-0.870483,-0.245544,0.89313,-0.59542,0.030534,5.95752,9.232959,-18.513769,1.619775,3.29458,-12.033472,6.471924,-1.604224,10.668506,good
1616135992.0479925,1,9.0,9.0,-6.0,-7.0,-4.0,0.319946,0.272217,-0.877136,-0.23291,0.877863,-0.366412,0.061069,7.097583,10.015332,-18.373804,2.838794,4.303052,-11.642285,4.760034,-1.30874,11.736792,good
1616135992.057989,1,9.0,6.0,-7.0,-7.0,-24.0,0.314331,0.273743,-0.881042,-0.223633,0.603053,-0.160305,0.083969,7.80459,11.008252,-17.202637,3.575708,5.459863,-10.319189,2.77898,-0.42229,11.881543,good
1616135992.068038,1,9.0,9.0,-3.0,-7.0,-3.0,0.313721,0.27417,-0.88208,-0.219971,0.198473,0.022901,0.061069,8.150317,11.761914,-15.462036,3.908276,6.272143,-8.537915,1.03479,0.447412,11.235547,good
1616135992.0779693,1,12.0,8.0,-2.0,-7.0,-3.0,0.317261,0.273682,-0.880493,-0.221985,-0.206107,0.160305,0.015267,8.188599,11.90188,-13.630518,3.903491,6.369043,-6.767407,-0.101685,0.88645,10.040454,good
1616135992.0879104,1,12.0,7.0,-4.0,-4.0,-5.0,0.323547,0.272522,-0.876892,-0.228394,-0.526718,0.259542,-0.045802,7.968482,11.385083,-11.967676,3.627148,5.731421,-5.240942,-0.594556,0.837402,8.509204,good
1616135992.0973172,1,8.0,7.0,-4.0,-6.0,-5.0,0.330994,0.270996,-0.87207,-0.237732,-0.740458,0.290076,-0.099237,7.54978,10.28689,-10.682861,3.154614,4.464551,-4.136767,-0.485693,0.343335,6.829614,good
1616135992.1072905,1,10.0,7.0,-4.0,-7.0,-1.0,0.337952,0.269226,-0.867188,-0.247681,-0.78626,0.251908,-0.122137,6.975562,8.530737,-9.829907,2.537329,2.537329,-3.469238,0.145947,-0.610107,4.95144,good
1616135992.117921,1,12.0,8.0,-6.0,-7.0,-4.0,0.343018,0.267822,-0.863342,-0.255493,-0.633588,0.19084,-0.129771,6.345117,6.406128,-9.26167,1.881763,0.281128,-3.046948,0.971387,-1.780078,2.964404,good
1616135992.127986,1,11.0,9.0,-6.0,-7.0,-4.0,0.345825,0.267456,-0.861206,-0.259338,-0.343511,0.129771,-0.129771,5.748169,4.526758,-8.754443,1.269263,-1.662842,-2.615088,1.603027,-2.697632,1.166382,good
1616135992.1372232,1,9.0,5.0,-7.0,-7.0,-6.0,0.346558,0.268494,-0.860596,-0.259094,-0.038168,0.083969,-0.114504,5.189502,3.379517,-8.242432,0.707007,-2.813672,-2.112647,1.912866,-3.032593,-0.132788,good
1616135992.1471343,1,11.0,10.0,-4.0,-7.0,-4.0,0.346008,0.270752,-0.861023,-0.256226,0.175573,0.061069,-0.10687,4.705005,3.151025,-7.706494,0.224902,-3.008667,-1.538428,1.860229,-2.707202,-0.819458,good
1616135992.157946,1,9.0,9.0,-3.0,-7.0,-6.0,0.345093,0.273621,-0.861511,-0.252747,0.244275,0.053435,-0.091603,4.320996,3.6427,-7.151416,-0.149536,-2.475122,-0.936694,1.512109,-1.922436,-1.019238,good
1616135992.167434,1,11.0,8.0,-6.0,-8.0,-4.0,0.344543,0.276367,-0.861572,-0.250305,0.19084,0.068702,-0.091603,3.999194,4.499243,-6.662134,-0.462964,-1.593457,-0.416309,1.070679,-0.949854,-0.935498,good
1616135992.177257,1,8.0,7.0,-8.0,-7.0,-4.0,0.344666,0.278687,-0.860901,-0.249756,0.068702,0.076336,-0.091603,3.725244,5.353394,-6.311621,-0.726147,-0.742895,-0.062207,0.714185,-0.075366,-0.75127,good
1616135992.1873517,1,11.0,6.0,-6.0,-8.0,-16.0,0.345154,0.280396,-0.859802,-0.251099,-0.053435,0.061069,-0.091603,3.499146,5.915649,-6.171655,-0.936694,-0.211743,0.057422,0.588574,0.474927,-0.592163,good
1616135992.1980712,1,9.0,8.0,-4.0,-8.0,-3.0,0.345642,0.281433,-0.858521,-0.253479,-0.137405,0.038168,-0.091603,3.342432,6.133374,-6.201562,-1.075464,-0.038281,-0.002393,0.661548,0.679492,-0.507227,good
1616135992.2073138,1,11.0,5.0,-1.0,-7.0,-4.0,0.345825,0.282104,-0.857483,-0.256165,-0.160305,0.007634,-0.083969,3.276636,6.062793,-6.349902,-1.11853,-0.154321,-0.178247,0.851758,0.586182,-0.48689,good
1616135992.2172253,1,9.0,8.0,-8.0,-7.0,-5.0,0.345398,0.282654,-0.856812,-0.25824,-0.114504,-0.022901,-0.083969,3.283813,5.810376,-6.591553,-1.085034,-0.439038,-0.436646,1.10896,0.300269,-0.489282,good
1616135992.2272117,1,9.0,7.0,-6.0,-7.0,-5.0,0.344238,0.283447,-0.85675,-0.259094,-0.030534,-0.045802,-0.091603,3.355591,5.525659,-6.860718,-0.984546,-0.736914,-0.698633,1.333862,-0.039478,-0.467749,good
1616135992.2379627,1,7.0,8.0,-5.0,-4.0,-4.0,0.342468,0.284851,-0.857239,-0.258484,0.076336,-0.053435,-0.091603,3.477612,5.401245,-7.077246,-0.832617,-0.852954,-0.884058,1.416406,-0.265576,-0.351709,good
1616135992.2478802,1,9.0,7.0,-8.0,-7.0,-4.0,0.340393,0.286743,-0.85791,-0.256836,0.152672,-0.045802,-0.099237,3.597241,5.49336,-7.216016,-0.681885,-0.73811,-0.978564,1.361377,-0.303857,-0.143555,good
1616135992.2573414,1,8.0,5.0,-6.0,-7.0,-4.0,0.338196,0.28894,-0.858643,-0.254761,0.19084,-0.038168,-0.099237,3.700122,5.807983,-7.306933,-0.5479,-0.393579,-1.020435,1.201074,-0.156714,0.16748,good
1616135992.267471,1,8.0,8.0,-4.0,-7.0,-4.0,0.336182,0.291199,-0.859192,-0.253052,0.167939,-0.038168,-0.091603,3.785058,6.272143,-7.347608,-0.43186,0.090918,-1.016846,0.967798,0.110059,0.527563,good
1616135992.277191,1,9.0,7.0,-5.0,-6.0,-2.0,0.334534,0.292969,-0.859436,-0.252197,0.10687,-0.038168,-0.076336,3.877173,6.772192,-7.352393,-0.309839,0.60293,-0.991724,0.701025,0.394775,0.890039,good
1616135992.2874577,1,13.0,7.0,-6.0,-7.0,-3.0,0.333557,0.294128,-0.859375,-0.252625,0.007634,-0.038168,-0.068702,3.960913,7.178931,-7.329663,-0.200977,1.000098,-0.959424,0.476123,0.606519,1.167578,good
1616135992.2972164,1,9.0,8.0,-6.0,-5.0,-3.0,0.333008,0.294617,-0.858887,-0.254211,-0.076336,-0.030534,-0.061069,4.027905,7.384692,-7.321289,-0.110059,1.181934,-0.96062,0.361279,0.666333,1.324292,good
1616135992.3071218,1,9.0,8.0,-4.0,-6.0,-1.0,0.332947,0.294739,-0.858215,-0.256409,-0.129771,-0.022901,-0.061069,4.093701,7.39187,-7.324878,-0.025122,1.154419,-0.985742,0.339746,0.577808,1.361377,good
1616135992.317214,1,7.0,5.0,-4.0,-7.0,-4.0,0.333069,0.294739,-0.857422,-0.258789,-0.152672,-0.015267,-0.061069,4.160693,7.247119,-7.353589,0.057422,0.973779,-1.040771,0.393579,0.376831,1.317114,good
1616135992.327103,1,11.0,7.0,-6.0,-7.0,-3.0,0.333435,0.2948,-0.856689,-0.260742,-0.129771,0.007634,-0.053435,4.234863,6.97915,-7.39187,0.142358,0.673511,-1.102978,0.490479,0.092114,1.199878,good
1616135992.3373108,1,9.0,7.0,-6.0,-7.0,-5.0,0.333862,0.294983,-0.856201,-0.261719,-0.076336,0.022901,-0.045802,4.286304,6.675293,-7.455274,0.196191,0.352905,-1.181934,0.623267,-0.186621,1.065894,good
1616135992.3471146,1,5.0,7.0,-4.0,-7.0,-4.0,0.334106,0.295349,-0.855957,-0.261658,-0.015267,0.030534,-0.030534,4.291089,6.488672,-7.495947,0.19978,0.163892,-1.225,0.715381,-0.328979,0.972583,good
1616135992.3571515,1,11.0,9.0,-4.0,-7.0,-4.0,0.334229,0.295898,-0.856018,-0.260864,0.030534,0.038168,-0.015267,4.286304,6.455176,-7.486377,0.191406,0.139966,-1.208252,0.715381,-0.333765,0.943872,good
1616135992.3670716,1,8.0,6.0,-4.0,-9.0,-3.0,0.334351,0.296448,-0.856079,-0.259827,0.053435,0.038168,-0.007634,4.279126,6.559253,-7.419385,0.178247,0.256006,-1.132886,0.630444,-0.223706,0.965405,good
1616135992.3771803,1,9.0,7.0,-4.0,-7.0,-5.0,0.334595,0.296814,-0.856079,-0.259033,0.038168,0.038168,0.007634,4.264771,6.726733,-7.334448,0.156714,0.433057,-1.043164,0.517993,-0.063403,1.013257,good
1616135992.3871806,1,7.0,6.0,-8.0,-7.0,-6.0,0.334961,0.297058,-0.856018,-0.258606,0.007634,0.038168,0.007634,4.226489,6.891821,-7.267456,0.111255,0.601733,-0.976172,0.440234,0.100488,1.058716,good
1616135992.397068,1,9.0,9.0,-7.0,-6.0,-3.0,0.335388,0.297058,-0.855774,-0.258728,-0.022901,0.030534,0.007634,4.201367,7.00188,-7.196875,0.081348,0.709399,-0.912769,0.376831,0.210547,1.074268,good
1616135992.407148,1,9.0,5.0,-12.0,-7.0,-5.0,0.33606,0.296936,-0.855408,-0.259277,-0.053435,0.030534,0.007634,4.198975,7.015039,-7.140649,0.072974,0.711792,-0.870898,0.352905,0.227295,1.045557,good
1616135992.417204,1,7.0,7.0,-5.0,-8.0,-6.0,0.336792,0.296753,-0.85498,-0.259827,-0.061069,0.038168,0.0,4.177442,6.907373,-7.146631,0.044263,0.593359,-0.892432,0.427075,0.160303,0.97019,good
1616135992.4271562,1,9.0,6.0,-5.0,-7.0,-3.0,0.337524,0.296631,-0.854675,-0.260071,-0.045802,0.045802,0.007634,4.140357,6.736304,-7.175342,-0.001196,0.416309,-0.933105,0.544312,0.058618,0.861328,good
1616135992.4371676,1,9.0,7.0,-6.0,-8.0,-2.0,0.338135,0.296631,-0.854553,-0.259705,-0.007634,0.053435,0.007634,4.109253,6.529346,-7.186109,-0.044263,0.212939,-0.948657,0.649585,-0.052637,0.721362,good
1616135992.4473865,1,11.0,8.0,-6.0,-7.0,-4.0,0.338684,0.296875,-0.854553,-0.258667,0.038168,0.061069,0.015267,4.078149,6.328369,-7.178931,-0.088525,0.025122,-0.937891,0.730933,-0.147144,0.575415,good
1616135992.4570527,1,11.0,7.0,-6.0,-8.0,-5.0,0.33905,0.297302,-0.854736,-0.25708,0.076336,0.061069,0.015267,4.044653,6.188403,-7.116724,-0.136377,-0.093311,-0.864917,0.745288,-0.177051,0.433057,good
1616135992.4671435,1,11.0,7.0,-3.0,-7.0,-2.0,0.339417,0.297852,-0.85498,-0.255188,0.099237,0.061069,0.015267,4.005176,6.147729,-7.015039,-0.192603,-0.110059,-0.748877,0.698633,-0.119629,0.325391,good
1616135992.477316,1,8.0,5.0,-6.0,-7.0,-3.0,0.3396,0.298401,-0.855286,-0.253357,0.091603,0.053435,0.022901,3.940576,6.196777,-6.919336,-0.270361,-0.035889,-0.636426,0.637622,0.011963,0.267969,good
1616135992.4871645,1,8.0,7.0,-6.0,-6.0,-1.0,0.339661,0.298706,-0.85553,-0.252014,0.068702,0.030534,0.022901,3.891528,6.28291,-6.817651,-0.327783,0.068188,-0.522778,0.552686,0.150732,0.236865,good
1616135992.4970288,1,12.0,8.0,-5.0,-7.0,-6.0,0.339661,0.298645,-0.855713,-0.251404,0.022901,0.007634,0.030534,3.868799,6.391772,-6.723145,-0.355298,0.186621,-0.42229,0.45459,0.275146,0.235669,good
1616135992.5070195,1,12.0,7.0,-3.0,-7.0,-4.0,0.339661,0.298279,-0.855835,-0.251526,-0.022901,-0.007634,0.022901,3.898706,6.462354,-6.648974,-0.327783,0.257202,-0.349316,0.361279,0.321802,0.245239,good
1616135992.5171983,1,11.0,7.0,-7.0,-7.0,-4.0,0.339783,0.297729,-0.855774,-0.252136,-0.061069,-0.015267,0.015267,3.94895,6.432446,-6.623853,-0.278735,0.220117,-0.332568,0.333765,0.265576,0.23208,good
1616135992.5269475,1,11.0,10.0,-4.0,-2.0,-4.0,0.339966,0.297119,-0.855652,-0.252991,-0.076336,-0.007634,0.015267,4.015943,6.349902,-6.628638,-0.211743,0.126807,-0.34812,0.337354,0.150732,0.211743,good
1616135992.537209,1,7.0,7.0,-6.0,-11.0,-4.0,0.340271,0.29657,-0.855469,-0.253784,-0.076336,0.0,0.007634,4.093701,6.2219,-6.675293,-0.136377,-0.010767,-0.406738,0.381616,-0.008374,0.193799,good
1616135992.5471215,1,9.0,8.0,-4.0,-7.0,-1.0,0.340515,0.296204,-0.855408,-0.254272,-0.053435,0.0,0.0,4.146338,6.034082,-6.759033,-0.086133,-0.205762,-0.497656,0.484497,-0.19978,0.149536,good
1616135992.557206,1,7.0,10.0,-3.0,-4.0,-4.0,0.340576,0.296021,-0.855408,-0.254272,-0.022901,0.007634,0.0,4.185815,5.873779,-6.833203,-0.047852,-0.364868,-0.573022,0.569434,-0.354102,0.112451,good
1616135992.5670683,1,11.0,7.0,-6.0,-8.0,-3.0,0.340515,0.296143,-0.85553,-0.253723,0.015267,0.007634,-0.007634,4.202563,5.807983,-6.881055,-0.033496,-0.42229,-0.614893,0.611304,-0.413916,0.110059,good
1616135992.5772772,1,9.0,8.0,-6.0,-7.0,-2.0,0.340332,0.296448,-0.855774,-0.252991,0.030534,0.007634,-0.007634,4.198975,5.861816,-6.918139,-0.039478,-0.358887,-0.641211,0.6125,-0.37085,0.165088,good
1616135992.5870907,1,10.0,9.0,-5.0,-7.0,-1.0,0.340027,0.296814,-0.855957,-0.25238,0.030534,0.0,-0.007634,4.207349,5.994605,-6.913354,-0.028711,-0.216528,-0.626855,0.5479,-0.275146,0.252417,good
1616135992.5971353,1,9.0,9.0,-4.0,-7.0,-6.0,0.339783,0.297058,-0.856079,-0.252014,0.015267,-0.007634,-0.007634,4.214526,6.178833,-6.891821,-0.019141,-0.027515,-0.598145,0.456982,-0.142358,0.35769,good
1616135992.6070914,1,8.0,6.0,-7.0,-7.0,-5.0,0.3396,0.29718,-0.856018,-0.252136,-0.007634,-0.007634,-0.015267,4.2229,6.340332,-6.870288,-0.005981,0.131592,-0.576611,0.38042,-0.035889,0.451001,good
1616135992.6169472,1,9.0,7.0,-7.0,-7.0,-2.0,0.3396,0.297241,-0.855896,-0.252625,-0.038168,-0.007634,-0.015267,4.238452,6.433642,-6.849951,0.013159,0.216528,-0.559863,0.327783,0.011963,0.501245,good
1616135992.6270263,1,9.0,6.0,-7.0,-7.0,-5.0,0.339722,0.297241,-0.855591,-0.253357,-0.061069,0.0,-0.015267,4.243237,6.493457,-6.835596,0.021533,0.26438,-0.555078,0.303857,0.039478,0.532349,good
1616135992.6370468,1,12.0,6.0,-5.0,-7.0,-3.0,0.339966,0.297119,-0.855225,-0.254395,-0.076336,0.0,-0.022901,4.23606,6.544898,-6.830811,0.017944,0.300269,-0.564648,0.301465,0.063403,0.559863,good
1616135992.6469383,1,8.0,5.0,-6.0,-7.0,-5.0,0.34021,0.296997,-0.854797,-0.255676,-0.091603,0.0,-0.022901,4.221704,6.541308,-6.842773,0.00957,0.276343,-0.592163,0.336157,0.045459,0.557471,good
1616135992.6570072,1,9.0,7.0,-4.0,-6.0,-4.0,0.340515,0.296814,-0.85437,-0.256897,-0.091603,0.0,-0.022901,4.231275,6.483887,-6.865503,0.022729,0.200977,-0.631641,0.382812,-0.025122,0.539526,good
1616135992.667218,1,10.0,5.0,-6.0,-4.0,-3.0,0.34082,0.296692,-0.854004,-0.257935,-0.083969,0.007634,-0.022901,4.240845,6.394165,-6.922925,0.035889,0.094507,-0.702222,0.462964,-0.12561,0.521582,good
1616135992.677158,1,9.0,8.0,-5.0,-8.0,0.0,0.341003,0.296692,-0.85376,-0.258545,-0.053435,0.007634,-0.022901,4.246826,6.284106,-6.973169,0.043066,-0.025122,-0.76084,0.541919,-0.228491,0.484497,good
1616135992.6870148,1,8.0,8.0,-3.0,-7.0,-5.0,0.341125,0.296692,-0.853638,-0.258667,-0.030534,0.007634,-0.015267,4.263574,6.229077,-7.006665,0.059814,-0.081348,-0.797925,0.577808,-0.287109,0.478516,good
1616135992.6972108,1,11.0,8.0,-8.0,-7.0,-3.0,0.341187,0.296753,-0.853638,-0.258545,-0.007634,0.015267,-0.007634,4.279126,6.242236,-7.01145,0.07417,-0.066992,-0.80271,0.568237,-0.288306,0.49646,good
1616135992.707068,1,12.0,7.0,-4.0,-7.0,-2.0,0.341309,0.296814,-0.853699,-0.25824,0.0,0.015267,0.0,4.2875,6.285303,-7.005469,0.077759,-0.020337,-0.794336,0.544312,-0.256006,0.522778,good
1616135994.3064487,1,11.0,7.0,-6.0,-4.0,-4.0,0.731812,0.263062,-0.628174,0.025146,0.0,-0.007634,-0.007634,9.075048,3.32688,0.77041,-0.0646,-0.136377,0.061011,-0.017944,-0.123218,-0.102881,good
1616135994.3149705,1,11.0,9.0,-4.0,-6.0,0.0,0.731812,0.263062,-0.628174,0.024963,-0.015267,-0.015267,-0.015267,9.055908,3.363965,0.808691,-0.082544,-0.101685,0.099292,-0.069385,-0.104077,-0.105273,good
1616135994.3251529,1,11.0,10.0,-4.0,-7.0,-3.0,0.731873,0.262939,-0.628174,0.024536,-0.030534,-0.015267,-0.022901,9.037964,3.367554,0.857739,-0.099292,-0.101685,0.147144,-0.11604,-0.118433,-0.117236,good
1616135994.335073,1,14.0,10.0,-5.0,-6.0,-2.0,0.731934,0.262695,-0.628235,0.023865,-0.045802,-0.022901,-0.030534,9.006861,3.356787,0.900806,-0.128003,-0.117236,0.189014,-0.154321,-0.141162,-0.147144,good
1616135994.345066,1,12.0,8.0,-3.0,-5.0,-2.0,0.732056,0.26239,-0.628296,0.022949,-0.053435,-0.022901,-0.038168,8.969775,3.32688,0.912769,-0.162695,-0.154321,0.198584,-0.15791,-0.166284,-0.191406,good
1616135994.3550365,1,9.0,9.0,-4.0,-7.0,-3.0,0.732056,0.262207,-0.628418,0.021973,-0.045802,-0.030534,-0.045802,8.953028,3.271851,0.891235,-0.175854,-0.218921,0.178247,-0.118433,-0.209351,-0.228491,good
1616135994.3650143,1,9.0,9.0,-6.0,-6.0,-3.0,0.731934,0.262085,-0.628601,0.021057,-0.038168,-0.030534,-0.045802,8.968579,3.218018,0.849365,-0.156714,-0.282324,0.139966,-0.057422,-0.253613,-0.235669,good
1616135994.3749762,1,9.0,9.0,-4.0,-7.0,-4.0,0.731689,0.262207,-0.628845,0.020447,-0.015267,-0.030534,-0.038168,9.006861,3.200073,0.789551,-0.11604,-0.307446,0.087329,0.005981,-0.265576,-0.211743,good
1616135994.3851202,1,9.0,5.0,-8.0,-7.0,-4.0,0.731384,0.262512,-0.629028,0.020142,0.007634,-0.030534,-0.030534,9.037964,3.239551,0.715381,-0.082544,-0.275146,0.021533,0.062207,-0.220117,-0.173462,good
