"Alphabet","timestamp","user_id","flex_1","flex_2","flex_3","flex_4","flex_5","Qw","Qx","Qy","Qz","GYRx","GYRy","GYRz","ACCx","ACCy","ACCz","ACCx_body","ACCy_body","ACCz_body","ACCx_world","ACCy_world","ACCz_world"
"H","1617445719.6010616","7","29","4","-35","48","29","0.773926","0.627197","-0.067261","0.055115","-0.015267","0","0.007634","1.788452","10.12898","2.052832","0.089722","0.68667","0.052637","-0.029907","0.089722","0.68667"
"H","1617445719.591254","7","31","1","-33","44","20","0.773804","0.62738","-0.067139","0.054932","-0.022901","0","0.007634","1.782471","10.218701","2.062402","0.088525","0.775195","0.065796","-0.045459","0.095703","0.775195"
"H","1617445719.5810516","7","29","1","-33","46","27","0.773621","0.627625","-0.067078","0.054749","-0.022901","0.007634","0.007634","1.781274","10.298853","2.080347","0.089722","0.85415","0.089722","-0.058618","0.087329","0.856543"
"H","1617445719.5710928","7","31","1","-33","48","29","0.773438","0.627869","-0.067078","0.054565","-0.022901","0.007634","0.015267","1.800415","10.352686","2.099487","0.111255","0.905591","0.114844","-0.046655","0.072974","0.915161"
"H","1617445719.561117","7","29","-1","-35","46","28","0.773315","0.628052","-0.067078","0.054199","-0.007634","0.015267","0.015267","1.825537","10.377808","2.124609","0.141162","0.929517","0.144751","-0.021533","0.047852","0.948657"
"H","1617445719.551162","7","31","-1","-33","48","28","0.773376","0.628052","-0.067017","0.053772","0.007634","0.007634","0.022901","1.831519","10.363452","2.131787","0.153125","0.912769","0.150732","-0.007178","0.039478","0.936694"
"H","1617445719.5409608","7","29","-1","-34","46","27","0.773499","0.627991","-0.066833","0.053345","0.007634","0","0.022901","1.821948","10.349096","2.116235","0.151929","0.897217","0.132788","-0.003589","0.053833","0.917554"
"H","1617445719.5312574","7","29","-1","-36","46","26","0.773621","0.627808","-0.066589","0.052979","0.007634","-0.007634","0.022901","1.802808","10.363452","2.115039","0.141162","0.912769","0.128003","-0.015552","0.062207","0.929517"
"H","1617445719.5212376","7","32","1","-35","48","30","0.773743","0.627747","-0.066284","0.052673","0","-0.007634","0.015267","1.770508","10.402929","2.104272","0.11604","0.95105","0.114844","-0.045459","0.082544","0.959424"
"H","1617445719.5109909","7","29","-5","-33","48","27","0.773743","0.627747","-0.06604","0.05249","-0.007634","-0.007634","0.007634","1.745386","10.463941","2.105469","0.096899","1.010864","0.114844","-0.07417","0.095703","1.014453"
"H","1617445719.5018227","7","29","0","-36","47","27","0.773743","0.627808","-0.065918","0.052368","-0.007634","-0.007634","0.007634","1.704712","10.498632","2.094702","0.059814","1.04436","0.105273","-0.114844","0.111255","1.038379"
"H","1617445719.4914348","7","29","1","-35","47","29","0.773743","0.627869","-0.065857","0.052307","-0.007634","0","0.007634","1.708301","10.489062","2.074365","0.065796","1.033594","0.086133","-0.10647","0.128003","1.02522"
"H","1617445719.481021","7","29","-1","-36","46","27","0.773743","0.627808","-0.065979","0.052246","0","0.015267","0","1.74419","10.440015","2.064795","0.100488","0.985742","0.075366","-0.0646","0.129199","0.982153"
"H","1617445719.4712565","7","29","1","-35","45","31","0.773865","0.627686","-0.066223","0.052063","0.007634","0.022901","-0.007634","1.811182","10.374219","2.057617","0.165088","0.921143","0.065796","0.008374","0.124414","0.929517"
"H","1617445719.461264","7","29","-1","-37","46","27","0.773987","0.627502","-0.06665","0.05188","0.015267","0.022901","-0.007634","1.881763","10.276123","2.045654","0.23208","0.824243","0.050244","0.090918","0.119629","0.843384"
"H","1617445719.4510736","7","29","-1","-34","46","27","0.774231","0.627136","-0.067017","0.051697","0.022901","0.015267","-0.015267","1.940381","10.146924","2.015747","0.287109","0.697437","0.013159","0.16748","0.130396","0.722559"
"H","1617445719.4411714","7","29","-3","-34","44","27","0.774536","0.626709","-0.067383","0.051575","0.022901","0.015267","-0.022901","1.988232","10.029688","1.989429","0.331372","0.583789","-0.021533","0.230884","0.141162","0.613696"
"H","1617445719.4318428","7","29","3","-35","46","28","0.774841","0.626343","-0.067688","0.051575","0.015267","0.007634","-0.030534","2.006177","9.961499","1.981055","0.344531","0.516797","-0.038281","0.25481","0.143555","0.5479"
"H","1617445719.4219382","7","28","-3","-34","44","27","0.774963","0.62616","-0.067932","0.051697","-0.007634","-0.007634","-0.030534","1.989429","9.983032","1.988232","0.322998","0.540723","-0.035889","0.229687","0.147144","0.568237"
"H","1617445719.4117668","7","31","-3","-33","46","28","0.774963","0.626099","-0.068054","0.052063","-0.015267","-0.015267","-0.038168","1.942773","10.041651","2.012158","0.269165","0.600537","-0.011963","0.165088","0.136377","0.620874"
"H","1617445719.4012966","7","31","-1","-36","42","31","0.774841","0.626221","-0.068115","0.052612","-0.015267","-0.022901","-0.038168","1.878174","10.075147","2.022925","0.197388","0.634033","0","0.088525","0.131592","0.643604"
"H","1617445719.3917673","7","32","0","-35","45","26","0.774719","0.626282","-0.068237","0.053223","-0.015267","-0.015267","-0.038168","1.835107","10.061987","2.031299","0.144751","0.623267","0.010767","0.037085","0.119629","0.626855"
"H","1617445719.3817492","7","29","-2","-33","44","28","0.774719","0.626221","-0.068359","0.053772","0","-0.015267","-0.030534","1.825537","10.021314","2.039673","0.126807","0.583789","0.017944","0.025122","0.104077","0.587378"
"H","1617445719.371964","7","32","-1","-36","47","27","0.774841","0.626038","-0.068542","0.054138","0.015267","0","-0.022901","1.831519","9.948339","2.042065","0.12561","0.513208","0.015552","0.035889","0.092114","0.517993"
"H","1617445719.3618348","7","33","-2","-38","48","27","0.775024","0.625732","-0.068787","0.05426","0.015267","0.007634","-0.015267","1.856641","9.868189","2.045654","0.145947","0.435449","0.013159","0.068188","0.077759","0.446216"
"H","1617445719.3519924","7","33","1","-36","45","27","0.775269","0.625427","-0.069092","0.054199","0.015267","0.015267","-0.007634","1.893726","9.805982","2.052832","0.179443","0.375635","0.013159","0.111255","0.065796","0.394775"
"H","1617445719.341921","7","29","-1","-34","47","29","0.775452","0.625183","-0.069397","0.054016","0.015267","0.015267","-0.007634","1.927222","9.770093","2.06958","0.210547","0.340942","0.025122","0.147144","0.046655","0.369653"
"H","1617445719.3319025","7","31","-3","-36","45","27","0.775635","0.625","-0.069641","0.053833","0.007634","0.007634","-0.007634","1.922436","9.7677","2.071973","0.203369","0.33855","0.022729","0.141162","0.049048","0.366064"
"H","1617445719.3218594","7","31","7","-36","49","29","0.775635","0.624939","-0.069641","0.053772","-0.007634","-0.007634","-0.015267","1.881763","9.805982","2.055225","0.163892","0.378027","0.005981","0.095703","0.072974","0.393579"
"H","1617445719.312056","7","28","1","-39","43","28","0.775574","0.625","-0.06958","0.053955","-0.022901","-0.015267","-0.015267","1.830322","9.884936","2.032495","0.111255","0.456982","-0.014355","0.031104","0.110059","0.455786"
"H","1617445719.302075","7","35","0","-36","48","29","0.775391","0.625244","-0.069519","0.054199","-0.030534","-0.015267","-0.015267","1.798023","9.968677","2.025317","0.076563","0.539526","-0.016748","-0.015552","0.130396","0.52876"
"H","1617445719.2918377","7","32","-1","-48","47","29","0.775208","0.625488","-0.069458","0.054443","-0.030534","-0.007634","-0.007634","1.788452","10.039258","2.030102","0.0646","0.608911","-0.005981","-0.039478","0.133984","0.595752"
"H","1617445719.2818904","7","29","-3","-34","49","30","0.775024","0.625671","-0.069397","0.054565","-0.022901","0","0","1.808789","10.066772","2.034888","0.084937","0.636426","0.002393","-0.025122","0.131592","0.626855"
"H","1617445719.2720194","7","33","1","-36","48","27","0.774902","0.625793","-0.069397","0.054565","-0.007634","0.007634","0.007634","1.843481","10.061987","2.034888","0.119629","0.630444","0.005981","0.008374","0.12561","0.628052"
"H","1617445719.2618606","7","29","-1","-34","45","27","0.774902","0.625854","-0.069458","0.054382","-0.007634","0.007634","0.007634","1.878174","10.040454","2.038476","0.155518","0.608911","0.00957","0.047852","0.118433","0.614893"
"H","1617445719.2518544","7","32","-1","-33","46","27","0.774902","0.625854","-0.069519","0.054016","-0.007634","0.015267","0.015267","1.909277","10.056005","2.046851","0.19021","0.623267","0.019141","0.078955","0.111255","0.636426"
"H","1617445719.241816","7","31","1","-35","46","26","0.774902","0.625916","-0.069519","0.05365","-0.007634","0.007634","0.007634","1.917651","10.103857","2.055225","0.203369","0.669922","0.028711","0.084937","0.111255","0.685474"
"H","1617445719.231927","7","32","-1","-34","50","32","0.774841","0.625977","-0.069458","0.053345","-0.015267","0","0.007634","1.899707","10.15769","2.051636","0.19021","0.722559","0.026318","0.063403","0.124414","0.733325"
"H","1617445719.221888","7","33","4","-33","47","26","0.77478","0.626099","-0.069336","0.053162","-0.015267","-0.007634","0.007634","1.880566","10.20315","2.057617","0.174658","0.766821","0.034692","0.040674","0.12561","0.775195"
"H","1617445719.2120745","7","32","0","-33","43","29","0.774658","0.626282","-0.069153","0.05304","-0.015267","-0.007634","0.007634","1.857837","10.243823","2.061206","0.156714","0.806299","0.043066","0.015552","0.12561","0.81228"
"H","1617445719.201987","7","31","-2","-35","46","28","0.774597","0.626404","-0.068909","0.052979","-0.022901","-0.007634","0.007634","1.844678","10.282104","2.071973","0.147144","0.843384","0.056226","0","0.120825","0.848169"
"H","1617445719.192042","7","29","-1","-34","44","27","0.774475","0.626526","-0.068726","0.052856","-0.022901","-0.007634","0.007634","1.843481","10.337133","2.092309","0.150732","0.897217","0.078955","-0.004785","0.108862","0.905591"
"H","1617445719.1819186","7","24","-1","-34","51","26","0.774353","0.626709","-0.068542","0.052795","-0.015267","-0.007634","0.007634","1.830322","10.383789","2.105469","0.141162","0.942676","0.096899","-0.022729","0.100488","0.952246"
"H","1617445719.1718495","7","29","-1","-37","48","27","0.774231","0.626892","-0.06842","0.052673","-0.015267","0","0.007634","1.830322","10.4125","2.119824","0.144751","0.968994","0.114844","-0.023926","0.088525","0.980957"
"H","1617445719.1619651","7","27","-3","-33","51","30","0.77417","0.627014","-0.06842","0.05249","-0.015267","0.007634","0.007634","1.842285","10.429248","2.152124","0.15791","0.984546","0.149536","-0.014355","0.057422","1.006079"
"H","1617445719.15203","7","32","0","-35","52","29","0.774048","0.627136","-0.06842","0.052307","-0.007634","0","0.007634","1.845874","10.413696","2.171265","0.163892","0.968994","0.172266","-0.005981","0.031104","0.996509"
"H","1617445719.1418805","7","29","1","-33","46","29","0.774048","0.627136","-0.06842","0.052124","0","0","0","1.841089","10.350293","2.167676","0.161499","0.905591","0.168677","0.001196","0.021533","0.934302"
"H","1617445719.1319032","7","31","-1","-34","47","28","0.77417","0.627075","-0.06842","0.052063","0.007634","0","0","1.848267","10.285693","2.168872","0.169873","0.839795","0.16748","0.020337","0.00957","0.872095"
"H","1617445719.122162","7","32","1","-34","52","29","0.774231","0.627014","-0.068481","0.052063","0","0","-0.007634","1.849463","10.24502","2.158105","0.169873","0.799121","0.155518","0.027515","0.013159","0.830225"
"H","1617445719.1120703","7","29","-1","-34","46","28","0.774231","0.626953","-0.068542","0.052124","-0.007634","-0.007634","-0.015267","1.855444","10.230664","2.154517","0.174658","0.785962","0.150732","0.034692","0.014355","0.817065"
"H","1617445719.1020963","7","35","1","-34","48","28","0.77417","0.627014","-0.068665","0.052246","-0.007634","-0.007634","-0.015267","1.854248","10.217505","2.141357","0.169873","0.772803","0.139966","0.0323","0.022729","0.801514"
"H","1617445719.0920827","7","29","0","-35","47","28","0.774048","0.627136","-0.068787","0.052429","-0.015267","-0.007634","-0.015267","1.855444","10.192383","2.109058","0.166284","0.747681","0.110059","0.033496","0.046655","0.77041"
"H","1617445719.0819986","7","31","-1","-34","48","30","0.773926","0.627197","-0.068909","0.052612","-0.015267","0","-0.015267","1.861426","10.175634","2.07915","0.168677","0.732129","0.08374","0.039478","0.068188","0.75127"
"H","1617445719.0720718","7","33","-1","-33","48","29","0.773865","0.627319","-0.069031","0.052734","-0.015267","0","-0.015267","1.856641","10.174438","2.040869","0.160303","0.729736","0.047852","0.0323","0.102881","0.740503"
"H","1617445719.0620258","7","30","-1","-33","48","29","0.773743","0.62738","-0.069214","0.052917","-0.007634","0","-0.015267","1.854248","10.158887","2.013355","0.153125","0.715381","0.022729","0.028711","0.124414","0.720166"
"H","1617445719.0521746","7","32","-1","-34","44","28","0.773804","0.62738","-0.069336","0.052979","0","0","-0.007634","1.849463","10.120605","1.979858","0.145947","0.6771","-0.010767","0.028711","0.149536","0.674707"
"H","1617445719.041886","7","33","1","-35","52","30","0.773865","0.627258","-0.069397","0.052979","0.007634","0","-0.007634","1.853052","10.071558","1.955933","0.14834","0.629248","-0.037085","0.040674","0.165088","0.624463"
"H","1617445719.032095","7","31","0","-35","48","26","0.774048","0.627014","-0.069458","0.052979","0.007634","-0.007634","0","1.851856","10.023706","1.946362","0.145947","0.582593","-0.052637","0.046655","0.171069","0.575415"
"H","1617445719.0219674","7","29","0","-35","47","27","0.774231","0.62677","-0.069397","0.052979","0.007634","-0.007634","0","1.848267","9.99021","1.94397","0.143555","0.550293","-0.059814","0.050244","0.172266","0.541919"
"H","1617445719.0120788","7","32","0","-36","48","28","0.774414","0.626526","-0.069336","0.052979","0.007634","-0.007634","0","1.849463","9.967481","1.952344","0.145947","0.52876","-0.057422","0.056226","0.165088","0.522778"
"H","1617445719.0019734","7","32","-3","-34","42","26","0.774597","0.626343","-0.069214","0.05304","0","-0.015267","-0.007634","1.84707","9.955518","1.983447","0.144751","0.517993","-0.0323","0.056226","0.13877","0.516797"
"H","1617445718.9921246","7","32","0","-34","50","28","0.774719","0.626221","-0.069031","0.053162","-0.007634","-0.015267","-0.007634","1.835107","9.962695","2.022925","0.133984","0.525171","0.002393","0.043066","0.10647","0.52876"
"H","1617445718.9820333","7","31","-1","-33","43","27","0.774719","0.626221","-0.068848","0.053345","-0.015267","-0.022901","-0.007634","1.817163","9.978247","2.063599","0.11604","0.540723","0.043066","0.020337","0.070581","0.549097"
"H","1617445718.9721506","7","28","1","-36","44","27","0.774658","0.626282","-0.068604","0.05365","-0.015267","-0.030534","-0.007634","1.79563","10.011744","2.093506","0.094507","0.574219","0.07417","-0.005981","0.046655","0.583789"
"H","1617445718.9621482","7","32","-1","-35","48","30","0.774536","0.626404","-0.068359","0.054016","-0.015267","-0.030534","-0.007634","1.778882","10.042847","2.117432","0.077759","0.605322","0.100488","-0.028711","0.027515","0.616089"
"H","1617445718.952075","7","29","4","-34","47","26","0.774475","0.626526","-0.068054","0.054321","-0.015267","-0.030534","-0.007634","1.774097","10.048828","2.146142","0.072974","0.610107","0.130396","-0.035889","0","0.626855"
"H","1617445718.9420135","7","33","0","-35","46","28","0.774414","0.626587","-0.067749","0.054688","-0.007634","-0.030534","-0.007634","1.760937","10.057202","2.167676","0.059814","0.618481","0.153125","-0.05144","-0.020337","0.636426"
"H","1617445718.9320643","7","32","-2","-35","50","27","0.774353","0.626648","-0.067444","0.054932","-0.007634","-0.030534","0","1.757349","10.066772","2.191602","0.058618","0.628052","0.178247","-0.055029","-0.043066","0.650781"
"H","1617445718.9220347","7","29","-1","-35","47","28","0.774292","0.626709","-0.067139","0.055176","-0.015267","-0.022901","0","1.770508","10.095484","2.196387","0.072974","0.656763","0.184229","-0.045459","-0.043066","0.681885"
"H","1617445718.9120567","7","28","0","-35","48","30","0.774231","0.626892","-0.066956","0.055237","-0.015267","-0.015267","0","1.780078","10.12898","2.189209","0.084937","0.687866","0.179443","-0.038281","-0.0323","0.712988"
"H","1617445718.9021983","7","27","0","-34","46","31","0.774048","0.627075","-0.066772","0.055237","-0.022901","-0.007634","0.007634","1.804004","10.186401","2.173657","0.111255","0.744092","0.168677","-0.021533","-0.00957","0.77041"
"H","1617445718.8919694","7","33","1","-34","47","28","0.773865","0.627319","-0.066711","0.055176","-0.022901","0","0.007634","1.833911","10.243823","2.142554","0.143555","0.800317","0.143555","0","0.025122","0.824243"
"H","1617445718.8820422","7","32","0","-33","48","31","0.773682","0.627625","-0.06665","0.055054","-0.022901","0","0.007634","1.838696","10.284497","2.091113","0.150732","0.838599","0.098096","0.002393","0.076563","0.85415"
"H","1617445718.8722017","7","29","0","-33","48","28","0.773499","0.627808","-0.066589","0.054932","-0.015267","0","0","1.82793","10.302442","2.028906","0.142358","0.855347","0.04187","-0.004785","0.133984","0.856543"
"H","1617445718.8621566","7","28","1","-34","46","26","0.773438","0.62793","-0.066528","0.054871","-0.015267","0","0","1.823145","10.302442","1.984644","0.13877","0.85415","0","-0.005981","0.174658","0.846973"
"H","1617445718.852145","7","32","0","-36","47","31","0.773376","0.627991","-0.066528","0.054749","-0.007634","0.007634","0","1.842285","10.288086","1.957129","0.159106","0.839795","-0.025122","0.015552","0.196191","0.831421"
"H","1617445718.842112","7","28","1","-33","44","28","0.773376","0.627991","-0.06665","0.054626","-0.007634","0.007634","0","1.855444","10.256983","1.942773","0.172266","0.808691","-0.039478","0.034692","0.204565","0.800317"
"H","1617445718.8322048","7","31","0","-34","47","30","0.773438","0.62793","-0.066833","0.054443","-0.007634","0.015267","0","1.894922","10.22229","1.954736","0.210547","0.773999","-0.028711","0.077759","0.186621","0.776392"
"H","1617445718.8220222","7","32","-5","-35","48","28","0.773499","0.627869","-0.067078","0.054199","-0.007634","0.015267","-0.007634","1.941577","10.185205","1.987036","0.257202","0.736914","0.001196","0.129199","0.149536","0.753662"
"H","1617445718.8123257","7","31","-3","-36","44","26","0.773499","0.627808","-0.067322","0.054016","0","0.007634","-0.007634","1.961914","10.137354","2.033691","0.276343","0.690259","0.047852","0.154321","0.094507","0.722559"
"H","1617445718.8020775","7","28","0","-35","49","28","0.77356","0.627747","-0.067322","0.054016","0","-0.015267","-0.015267","1.918848","10.077539","2.046851","0.233276","0.630444","0.059814","0.120825","0.070581","0.659155"
"H","1617445718.7920084","7","29","-3","-33","44","29","0.773621","0.627686","-0.0672","0.054199","0","-0.030534","-0.015267","1.854248","10.026098","2.043262","0.16748","0.579004","0.053833","0.0646","0.065796","0.596948"
"H","1617445718.7822194","7","29","0","-36","46","27","0.773682","0.627563","-0.066956","0.054626","-0.007634","-0.030534","-0.015267","1.817163","10.000977","2.049243","0.129199","0.555078","0.056226","0.031104","0.058618","0.568237"
"H","1617445718.7721925","7","29","-9","-34","46","29","0.773682","0.627563","-0.066711","0.054993","-0.007634","-0.030534","-0.015267","1.781274","9.991406","2.055225","0.092114","0.546704","0.062207","-0.003589","0.05144","0.555078"
"H","1617445718.7620344","7","29","-2","-34","47","30","0.773682","0.627502","-0.066528","0.05542","-0.007634","-0.022901","-0.015267","1.766919","9.980639","2.057617","0.075366","0.537134","0.063403","-0.017944","0.047852","0.543115"
"H","1617445718.7523165","7","32","-1","-34","51","28","0.773682","0.627502","-0.066467","0.055603","-0.007634","-0.007634","-0.007634","1.776489","9.981836","2.063599","0.08374","0.53833","0.068188","-0.010767","0.044263","0.546704"
"H","1617445718.7421064","7","29","-1","-36","47","30","0.773682","0.627563","-0.066467","0.055664","-0.007634","0.007634","0","1.811182","10.000977","2.076758","0.118433","0.556274","0.082544","0.019141","0.033496","0.573022"
"H","1617445718.7320826","7","31","0","-36","45","29","0.773621","0.627625","-0.066589","0.055481","-0.007634","0.015267","0.007634","1.842285","10.039258","2.082739","0.149536","0.594556","0.090918","0.043066","0.033496","0.616089"
"H","1617445718.7220874","7","28","-3","-36","44","27","0.773621","0.627686","-0.066711","0.055176","-0.007634","0.015267","0.007634","1.860229","10.094287","2.076758","0.169873","0.648389","0.086133","0.053833","0.049048","0.671118"
"H","1617445718.712227","7","32","-3","-35","44","27","0.77356","0.627747","-0.066772","0.05481","-0.007634","0.007634","0.007634","1.875781","10.140943","2.077954","0.189014","0.693848","0.089722","0.065796","0.055029","0.71897"
"H","1617445718.7028904","7","32","0","-38","50","29","0.77356","0.627808","-0.066711","0.054504","-0.007634","0","0.007634","1.860229","10.167261","2.065991","0.177051","0.71897","0.077759","0.050244","0.071777","0.73811"
"H","1617445718.6921804","7","29","-1","-36","47","31","0.77356","0.627808","-0.06665","0.054321","-0.007634","-0.007634","0.007634","1.820752","10.184009","2.033691","0.141162","0.735718","0.045459","0.013159","0.10647","0.741699"
"H","1617445718.682834","7","30","-1","-36","44","26","0.77356","0.627808","-0.066467","0.05426","-0.007634","-0.007634","0","1.802808","10.198364","2.013355","0.126807","0.750073","0.025122","-0.001196","0.129199","0.748877"
"H","1617445718.6729107","7","32","0","-35","45","26","0.77356","0.627869","-0.066345","0.05426","-0.015267","-0.007634","0","1.78606","10.211523","2.008569","0.111255","0.762036","0.021533","-0.017944","0.135181","0.757251"
"H","1617445718.663042","7","29","0","-36","47","26","0.773499","0.62793","-0.066223","0.054321","-0.015267","-0.007634","0","1.792041","10.224683","2.030102","0.118433","0.775195","0.044263","-0.014355","0.11604","0.776392"
"H","1617445718.6529078","7","29","-1","-36","47","28","0.773438","0.627991","-0.066223","0.054382","-0.015267","-0.007634","0","1.802808","10.239038","2.045654","0.129199","0.789551","0.061011","-0.005981","0.101685","0.795532"
"H","1617445718.6421251","7","31","-1","-34","47","27","0.773315","0.628174","-0.066223","0.054382","-0.022901","0","0","1.819556","10.242627","2.06001","0.145947","0.791943","0.080151","0.008374","0.08374","0.803906"
"H","1617445718.632271","7","33","4","-34","51","29","0.773193","0.628296","-0.066284","0.054382","-0.022901","0","0","1.8375","10.25459","2.077954","0.162695","0.80271","0.101685","0.021533","0.0646","0.821851"
"H","1617445718.6221492","7","32","-1","-34","48","28","0.77301","0.628479","-0.066284","0.054321","-0.015267","0.007634","0","1.856641","10.246216","2.080347","0.183032","0.794336","0.108862","0.043066","0.055029","0.818262"
"H","1617445718.6130104","7","29","-1","-34","44","30","0.772949","0.628601","-0.066345","0.054199","-0.015267","0.007634","0","1.876978","10.230664","2.085132","0.203369","0.777588","0.11604","0.065796","0.044263","0.807495"
"H","1617445718.6028605","7","29","1","-34","46","28","0.772827","0.628723","-0.066406","0.054016","-0.007634","0","0","1.874585","10.215113","2.073169","0.202173","0.76084","0.107666","0.068188","0.049048","0.789551"
"H","1617445718.5930252","7","28","0","-37","44","29","0.772827","0.628784","-0.066345","0.053894","-0.007634","0","0","1.848267","10.207934","2.034888","0.178247","0.752466","0.070581","0.046655","0.08374","0.77041"
"H","1617445718.583097","7","29","-4","-33","44","29","0.772766","0.628845","-0.066284","0.053833","-0.007634","0","0","1.8375","10.219897","1.991821","0.169873","0.764429","0.028711","0.038281","0.126807","0.771606"
"H","1617445718.5728416","7","33","3","-36","50","33","0.772766","0.628906","-0.066284","0.053772","-0.015267","0","0","1.835107","10.247412","1.960718","0.16748","0.790747","0","0.0323","0.160303","0.790747"
"H","1617445718.5620897","7","31","-1","-33","45","30","0.772705","0.628967","-0.066223","0.053772","-0.015267","0","0","1.836304","10.272534","1.929614","0.169873","0.815869","-0.029907","0.0323","0.193799","0.809888"
"H","1617445718.5529008","7","29","1","-33","47","28","0.772644","0.628967","-0.066223","0.053772","-0.007634","0","0","1.844678","10.267749","1.906885","0.178247","0.81228","-0.05144","0.04187","0.214136","0.80271"
"H","1617445718.5429225","7","29","-5","-34","45","29","0.772705","0.628967","-0.066284","0.053711","0","0","0","1.859033","10.221094","1.903296","0.192603","0.764429","-0.056226","0.063403","0.209351","0.758447"
"H","1617445718.532894","7","32","-1","-34","46","27","0.772827","0.628845","-0.066284","0.053711","0","0","0","1.880566","10.158887","1.928418","0.214136","0.702222","-0.033496","0.094507","0.174658","0.707007"
"H","1617445718.523136","7","31","-1","-36","47","26","0.772888","0.628662","-0.066284","0.05365","0","-0.007634","-0.007634","1.87937","10.102661","1.964307","0.214136","0.648389","-0.001196","0.102881","0.132788","0.661548"
"H","1617445718.5128756","7","31","0","-36","48","26","0.772949","0.628601","-0.066284","0.05365","-0.007634","-0.015267","-0.015267","1.851856","10.067968","2.015747","0.186621","0.613696","0.047852","0.080151","0.077759","0.632837"
"H","1617445718.5030577","7","32","3","-33","46","28","0.772949","0.628662","-0.066101","0.053833","-0.015267","-0.022901","-0.015267","1.79563","10.078735","2.064795","0.130396","0.623267","0.096899","0.020337","0.031104","0.642407"
"H","1617445718.493032","7","32","-1","-35","48","29","0.772827","0.628784","-0.065918","0.054199","-0.022901","-0.030534","-0.015267","1.735815","10.09668","2.085132","0.068188","0.641211","0.119629","-0.043066","0.013159","0.653174"
"H","1617445718.4828703","7","29","-1","-32","45","26","0.772705","0.628906","-0.065735","0.054626","-0.015267","-0.022901","-0.015267","1.699927","10.109838","2.097095","0.029907","0.65437","0.133984","-0.08374","0.001196","0.662744"
"H","1617445718.4730318","7","29","28","-33","48","27","0.772583","0.629089","-0.065613","0.054993","-0.007634","-0.015267","-0.007634","1.69873","10.102661","2.099487","0.026318","0.647192","0.139966","-0.086133","-0.005981","0.656763"
"H","1617445718.4629345","7","30","-2","-32","46","29","0.772522","0.62915","-0.065552","0.055176","0","-0.007634","0","1.723853","10.076343","2.085132","0.050244","0.620874","0.126807","-0.058618","0.001196","0.632837"
"H","1617445718.4528437","7","28","1","-35","45","26","0.772583","0.629089","-0.065491","0.055237","0.007634","0","0","1.762134","10.048828","2.050439","0.088525","0.593359","0.090918","-0.014355","0.031104","0.605322"
"H","1617445718.4430275","7","29","0","-34","43","27","0.772644","0.628967","-0.065552","0.055176","0.007634","0.007634","0","1.799219","10.033277","2.025317","0.12561","0.579004","0.063403","0.023926","0.055029","0.592163"
"H","1617445718.4329336","7","29","-1","-36","51","27","0.772705","0.628906","-0.065552","0.054993","0","0.007634","0","1.817163","10.058398","1.99541","0.145947","0.604126","0.0323","0.040674","0.090918","0.613696"
"H","1617445718.4228706","7","29","0","-35","47","27","0.772705","0.628906","-0.065552","0.05481","-0.015267","0.007634","0","1.815967","10.112231","1.984644","0.147144","0.656763","0.021533","0.033496","0.112451","0.662744"
"H","1617445718.4130015","7","28","-3","-37","47","27","0.772644","0.629028","-0.065552","0.054626","-0.015267","0","0","1.808789","10.160083","1.991821","0.142358","0.703418","0.031104","0.021533","0.111255","0.708203"
"H","1617445718.4030733","7","31","-1","-35","48","31","0.772522","0.62915","-0.065552","0.054565","-0.015267","0","0","1.799219","10.194776","2.002588","0.132788","0.73811","0.045459","0.005981","0.104077","0.742895"
"H","1617445718.3928752","7","29","0","-36","44","26","0.7724","0.629333","-0.065491","0.054504","-0.015267","-0.007634","0","1.783667","10.205542","2.008569","0.119629","0.747681","0.055029","-0.008374","0.096899","0.752466"
"H","1617445718.3830023","7","29","1","-35","46","27","0.772339","0.629395","-0.06543","0.054504","-0.015267","-0.007634","0","1.775293","10.209131","2.012158","0.112451","0.75127","0.061011","-0.015552","0.090918","0.756055"
"H","1617445718.3730323","7","29","-4","-33","44","29","0.772278","0.629517","-0.065369","0.054504","-0.007634","-0.007634","0","1.776489","10.218701","2.012158","0.113647","0.759644","0.063403","-0.015552","0.090918","0.764429"
"H","1617445718.3630247","7","29","0","-37","46","27","0.772217","0.629578","-0.065247","0.054504","-0.007634","-0.007634","0","1.780078","10.22229","2.019336","0.119629","0.762036","0.071777","-0.010767","0.082544","0.769214"
"H","1617445718.352957","7","28","0","-34","44","27","0.772217","0.629578","-0.065063","0.054504","-0.007634","-0.015267","0","1.776489","10.227076","2.020532","0.118433","0.766821","0.072974","-0.011963","0.082544","0.773999"
"H","1617445718.343189","7","33","0","-34","46","29","0.772217","0.629639","-0.064941","0.054504","-0.007634","-0.015267","0","1.771704","10.240234","2.032495","0.11604","0.778784","0.084937","-0.016748","0.072974","0.787158"
"H","1617445718.3328712","7","32","-1","-36","47","26","0.772156","0.629639","-0.064758","0.054565","-0.015267","-0.015267","0","1.764526","10.266553","2.061206","0.110059","0.806299","0.114844","-0.028711","0.049048","0.819458"
"H","1617445718.322963","7","28","0","-33","47","27","0.772095","0.629761","-0.064575","0.054626","-0.015267","-0.015267","0","1.745386","10.295263","2.080347","0.093311","0.833813","0.136377","-0.050244","0.033496","0.846973"
"H","1617445718.3131723","7","28","1","-34","50","28","0.772034","0.629883","-0.064453","0.054749","-0.015267","-0.007634","0","1.732227","10.304834","2.087524","0.080151","0.842188","0.144751","-0.0646","0.026318","0.85415"
"H","1617445718.3029375","7","29","-1","-36","47","27","0.771973","0.629944","-0.064392","0.054749","-0.007634","0","0","1.745386","10.277319","2.081543","0.094507","0.814673","0.141162","-0.045459","0.025122","0.830225"
"H","1617445718.2928662","7","29","0","-34","46","28","0.771973","0.629944","-0.064453","0.054749","0","0","0","1.770508","10.237842","2.073169","0.118433","0.775195","0.132788","-0.015552","0.025122","0.794336"
"H","1617445718.2830732","7","32","-1","-35","47","29","0.771973","0.629944","-0.064514","0.054626","0","0","0","1.782471","10.204346","2.034888","0.131592","0.741699","0.094507","0.003589","0.056226","0.756055"
"H","1617445718.2729995","7","28","0","-35","47","26","0.772034","0.629883","-0.064575","0.054565","-0.007634","0.007634","-0.007634","1.789648","10.21272","2.006177","0.13877","0.750073","0.0646","0.00957","0.087329","0.759644"
"H","1617445718.2630744","7","28","-1","-34","46","28","0.771973","0.629944","-0.064697","0.054504","-0.015267","0.007634","-0.007634","1.800415","10.248609","1.984644","0.14834","0.785962","0.044263","0.014355","0.113647","0.791943"
"H","1617445718.2530408","7","29","1","-33","47","29","0.771851","0.630066","-0.064819","0.054443","-0.007634","0.007634","-0.007634","1.802808","10.256983","1.95354","0.149536","0.794336","0.016748","0.014355","0.142358","0.794336"
"H","1617445718.2431674","7","28","0","-34","44","29","0.771851","0.630127","-0.065002","0.054443","-0.007634","0.007634","-0.007634","1.815967","10.229467","1.930811","0.159106","0.765625","-0.003589","0.028711","0.156714","0.764429"
"H","1617445718.2329223","7","29","0","-38","46","28","0.771851","0.630066","-0.065186","0.054382","0","0.007634","-0.007634","1.839893","10.18042","1.934399","0.181836","0.717773","0","0.059814","0.143555","0.723755"
"H","1617445718.2231","7","31","-3","-36","47","29","0.771973","0.629883","-0.06543","0.054321","0.007634","0.007634","-0.007634","1.859033","10.112231","1.946362","0.197388","0.650781","0.007178","0.084937","0.123218","0.662744"
"H","1617445718.213034","7","32","-2","-34","44","27","0.772034","0.629761","-0.065552","0.05426","0.007634","0","-0.007634","1.851856","10.066772","1.959522","0.189014","0.606519","0.017944","0.08374","0.104077","0.620874"
"H","1617445718.2029488","7","28","-2","-34","46","27","0.772156","0.629639","-0.065552","0.05426","0","-0.007634","-0.015267","1.821948","10.05481","1.965503","0.159106","0.594556","0.020337","0.056226","0.099292","0.604126"
"H","1617445718.192962","7","29","-1","-36","47","26","0.772217","0.629578","-0.065552","0.054382","-0.007634","-0.007634","-0.007634","1.796826","10.088305","1.982251","0.132788","0.628052","0.034692","0.025122","0.092114","0.635229"
"H","1617445718.1831071","7","31","-1","-36","47","29","0.772156","0.629639","-0.065552","0.054504","-0.007634","-0.007634","-0.007634","1.782471","10.139746","1.99541","0.117236","0.679492","0.050244","0","0.087329","0.685474"
"H","1617445718.1731796","7","27","1","-34","48","27","0.772095","0.6297","-0.065552","0.054626","-0.007634","-0.007634","-0.007634","1.770508","10.168457","1.987036","0.104077","0.708203","0.043066","-0.016748","0.099292","0.709399"
"H","1617445718.1630695","7","31","1","-36","42","27","0.772095","0.6297","-0.065613","0.054626","-0.007634","0","-0.007634","1.770508","10.18042","1.98584","0.102881","0.721362","0.04187","-0.020337","0.104077","0.721362"
"H","1617445718.153086","7","33","-3","-36","46","28","0.772095","0.629639","-0.065613","0.054626","0","0","0","1.7729","10.174438","1.994214","0.105273","0.715381","0.049048","-0.016748","0.095703","0.717773"
"H","1617445718.142975","7","29","-3","-35","44","28","0.772156","0.629578","-0.065674","0.054565","0.007634","0","0","1.776489","10.151709","2.006177","0.108862","0.692651","0.059814","-0.00957","0.080151","0.698633"
"H","1617445718.1336875","7","31","-1","-36","46","27","0.772278","0.629456","-0.065674","0.054443","0","0","0","1.777686","10.122998","2.014551","0.111255","0.665137","0.065796","-0.002393","0.069385","0.673511"
"H","1617445718.1230876","7","29","1","-34","45","27","0.7724","0.629333","-0.065735","0.054382","0","-0.007634","0","1.778882","10.117017","2.031299","0.112451","0.659155","0.078955","-0.001196","0.055029","0.669922"
"H","1617445718.113003","7","29","1","-36","47","29","0.7724","0.629333","-0.065674","0.054382","-0.007634","-0.007634","-0.007634","1.774097","10.124194","2.046851","0.108862","0.666333","0.094507","-0.005981","0.04187","0.679492"
"H","1617445717.364197","7","32","-1","-36","48","31","0.770813","0.631653","-0.066101","0.049438","0","-0.022901","-0.038168","1.820752","9.85144","2.020532","0.209351","0.372046","0.12561","0.141162","-0.050244","0.417505"
"H","1617445717.3540957","7","28","-4","-35","44","27","0.770813","0.631592","-0.066162","0.05011","-0.007634","-0.030534","-0.045802","1.758545","9.823926","2.022925","0.137573","0.345728","0.126807","0.07417","-0.056226","0.38042"
"H","1617445717.344015","7","31","-1","-34","46","29","0.770691","0.631653","-0.066101","0.050842","-0.007634","-0.030534","-0.038168","1.69873","9.825122","2.008569","0.070581","0.349316","0.114844","0.008374","-0.043066","0.37085"
"H","1617445717.3340206","7","28","-1","-34","48","27","0.77063","0.631714","-0.066162","0.051514","-0.007634","-0.015267","-0.030534","1.660449","9.795215","1.979858","0.022729","0.319409","0.087329","-0.0323","-0.022729","0.328979"
"H","1617445717.324318","7","31","-1","-35","45","28","0.77063","0.631653","-0.066406","0.052002","0","0","-0.022901","1.685571","9.743774","1.967896","0.038281","0.270361","0.07417","-0.008374","-0.019141","0.281128"
"H","1617445717.3140302","7","31","-1","-35","47","27","0.770691","0.631531","-0.066772","0.052063","0.015267","0.022901","-0.007634","1.738208","9.686353","1.971484","0.084937","0.214136","0.075366","0.045459","-0.031104","0.235669"
"H","1617445717.3040369","7","25","1","-34","43","27","0.770813","0.631287","-0.067139","0.05188","0.022901","0.022901","0","1.769312","9.626538","1.954736","0.112451","0.156714","0.055029","0.082544","-0.022729","0.18064"
"H","1617445717.2940905","7","33","-1","-35","46","27","0.771057","0.631042","-0.067505","0.051453","0.015267","0.022901","0.007634","1.801611","9.626538","1.939185","0.144751","0.156714","0.033496","0.114844","-0.002393","0.181836"
"H","1617445717.2841794","7","29","1","-36","46","26","0.771118","0.630981","-0.067688","0.050964","0","0.022901","0.007634","1.8052","9.711474","1.926025","0.150732","0.24165","0.019141","0.107666","0.027515","0.261987"
"H","1617445717.274154","7","29","-1","-38","43","26","0.771057","0.631042","-0.067749","0.050537","-0.015267","0.007634","0.007634","1.781274","9.858618","1.904492","0.131592","0.388794","0","0.065796","0.075366","0.397168"
"H","1617445717.2643","7","28","1","-36","48","27","0.770874","0.631348","-0.067627","0.050293","-0.030534","0","0.007634","1.739404","10.026098","1.861426","0.094507","0.552686","-0.034692","0.003589","0.142358","0.543115"
"H","1617445717.2541502","7","29","-1","-35","47","31","0.770569","0.631714","-0.067444","0.05011","-0.038168","-0.007634","0.015267","1.705908","10.182813","1.833911","0.065796","0.707007","-0.053833","-0.046655","0.19021","0.683081"
"H","1617445717.2442682","7","29","-1","-36","50","27","0.770325","0.63208","-0.067139","0.049927","-0.030534","-0.007634","0.015267","1.68916","10.314404","1.807593","0.056226","0.836206","-0.071777","-0.076563","0.233276","0.803906"
"H","1617445717.2342105","7","32","0","-36","47","28","0.770081","0.632385","-0.066895","0.049744","-0.030534","0","0.022901","1.687964","10.431641","1.789648","0.061011","0.95105","-0.082544","-0.089722","0.265576","0.913965"
"H","1617445717.224955","7","29","0","-34","50","28","0.769897","0.63269","-0.06665","0.049377","-0.022901","0.007634","0.030534","1.707104","10.533325","1.800415","0.088525","1.050342","-0.065796","-0.077759","0.267969","1.018042"
"H","1617445717.2141757","7","27","1","-34","47","29","0.769836","0.632812","-0.066345","0.048889","-0.015267","0.007634","0.038168","1.740601","10.58357","1.820752","0.132788","1.098193","-0.04187","-0.04187","0.252417","1.07666"
"H","1617445717.204208","7","28","-1","-35","47","26","0.769897","0.632812","-0.066101","0.048279","0","0.007634","0.038168","1.766919","10.596728","1.845874","0.169873","1.10896","-0.017944","-0.005981","0.230884","1.096997"
"H","1617445717.194016","7","28","-1","-35","47","27","0.77002","0.632751","-0.065796","0.047607","0.007634","0.007634","0.038168","1.79563","10.595532","1.87937","0.211743","1.106567","0.011963","0.034692","0.200977","1.107764"
"H","1617445717.1843328","7","29","1","-36","48","28","0.770203","0.632568","-0.065491","0.046997","0.007634","0","0.038168","1.8052","10.595532","1.896118","0.233276","1.106567","0.023926","0.057422","0.189014","1.112549"
"H","1617445717.1745808","7","32","2","-36","44","30","0.770447","0.632446","-0.065063","0.046509","0.007634","-0.007634","0.030534","1.793237","10.60271","1.881763","0.233276","1.111353","0.003589","0.058618","0.210547","1.113745"
"H","1617445717.164255","7","29","-1","-33","50","28","0.770569","0.632324","-0.064697","0.046204","-0.015267","-0.015267","0.015267","1.781274","10.666113","1.870996","0.230884","1.17356","-0.008374","0.047852","0.235669","1.171167"
"H","1617445717.154992","7","33","1","-35","51","29","0.770508","0.632446","-0.064331","0.046021","-0.022901","-0.015267","0.007634","1.7729","10.755835","1.867407","0.230884","1.262085","-0.010767","0.035889","0.25481","1.256104"
"H","1617445717.1449163","7","28","-1","-33","46","31","0.770386","0.632629","-0.064148","0.046082","-0.030534","-0.015267","-0.007634","1.752563","10.809668","1.873389","0.211743","1.314722","0","0.008374","0.253613","1.306348"
"H","1617445717.134153","7","31","-1","-33","46","26","0.770203","0.632812","-0.064026","0.046265","-0.022901","-0.007634","-0.015267","1.741797","10.801294","1.868603","0.200977","1.306348","-0.001196","0","0.252417","1.296777"
"H","1617445717.1242385","7","31","1","-34","43","27","0.770142","0.632874","-0.064148","0.04657","-0.007634","0","-0.022901","1.771704","10.716357","1.898511","0.224902","1.221411","0.029907","0.033496","0.205762","1.223804"
"H","1617445717.1142385","7","29","2","-36","48","32","0.770203","0.632751","-0.064453","0.046814","0.007634","0","-0.030534","1.820752","10.568018","1.932007","0.266772","1.074268","0.061011","0.095703","0.145947","1.093408"
"H","1617445717.1042068","7","31","3","-33","47","29","0.770447","0.632446","-0.064697","0.047119","0.022901","-0.007634","-0.038168","1.845874","10.367041","1.958325","0.284717","0.875684","0.080151","0.142358","0.089722","0.907983"
"H","1617445717.094179","7","32","0","-36","48","28","0.770752","0.631958","-0.065002","0.047546","0.030534","-0.015267","-0.045802","1.851856","10.17085","1.99541","0.279932","0.684277","0.10647","0.165088","0.027515","0.727344"
"H","1617445717.0842905","7","32","-1","-5","45","29","0.771118","0.63147","-0.065247","0.048096","0.022901","-0.015267","-0.053435","1.843481","10.023706","2.03728","0.261987","0.540723","0.136377","0.16748","-0.028711","0.590967"
"H","1617445717.074172","7","31","1","-39","43","27","0.771362","0.631042","-0.065491","0.048767","0.015267","-0.022901","-0.061069","1.818359","9.91604","2.076758","0.224902","0.437842","0.166284","0.145947","-0.076563","0.491675"
"H","1617445717.0648077","7","28","0","-36","48","28","0.771545","0.630737","-0.065796","0.049622","0.015267","-0.022901","-0.061069","1.78606","9.828711","2.109058","0.177051","0.354102","0.191406","0.110059","-0.117236","0.407935"
"H","1617445717.0542228","7","29","2","-33","48","27","0.771667","0.630493","-0.066101","0.050537","0.007634","-0.022901","-0.061069","1.758545","9.778467","2.118628","0.133984","0.307446","0.196191","0.07417","-0.130396","0.35769"
"H","1617445717.044288","7","31","-1","-34","46","30","0.771667","0.630371","-0.066406","0.051453","0","-0.015267","-0.061069","1.758545","9.756933","2.137769","0.118433","0.289502","0.212939","0.061011","-0.150732","0.340942"
"H","1617445717.0348709","7","30","-1","-35","46","27","0.771606","0.63031","-0.066833","0.052246","0","-0.015267","-0.045802","1.774097","9.728223","2.138965","0.117236","0.263184","0.214136","0.063403","-0.156714","0.31582"
"H","1617445717.024935","7","29","0","-35","47","28","0.771667","0.630188","-0.067139","0.052795","0.007634","-0.007634","-0.038168","1.783667","9.67439","2.136572","0.11604","0.211743","0.209351","0.070581","-0.162695","0.26438"
"H","1617445717.014136","7","33","-1","-36","48","28","0.771729","0.630066","-0.067383","0.053223","0.007634","-0.007634","-0.030534","1.78606","9.636108","2.123413","0.108862","0.175854","0.193799","0.070581","-0.154321","0.226099"
"H","1617445717.004124","7","32","0","-34","47","29","0.77179","0.629944","-0.067566","0.053467","0.007634","-0.007634","-0.015267","1.777686","9.646875","2.113843","0.094507","0.187817","0.181836","0.053833","-0.139966","0.233276"
"H","1617445716.9942362","7","29","1","-35","48","31","0.771851","0.629822","-0.067627","0.053589","0.007634","-0.007634","-0.007634","1.758545","9.689941","2.110254","0.072974","0.23208","0.175854","0.026318","-0.12561","0.270361"
"H","1617445716.985089","7","29","0","-36","48","29","0.771912","0.629822","-0.067566","0.05365","0","-0.007634","0","1.748975","9.773682","2.097095","0.063403","0.31582","0.161499","0.002393","-0.094507","0.346924"
"H","1617445716.974991","7","31","-1","-34","43","26","0.771851","0.629883","-0.067444","0.053589","-0.007634","-0.007634","0.007634","1.74419","9.895703","2.073169","0.062207","0.436646","0.13877","-0.016748","-0.047852","0.459375"
"H","1617445716.9642477","7","32","-3","-37","46","28","0.771729","0.630005","-0.067322","0.053406","-0.007634","0","0.015267","1.751367","10.030884","2.042065","0.072974","0.571826","0.111255","-0.027515","0.004785","0.586182"
"H","1617445716.9551451","7","31","0","-34","47","28","0.771667","0.630188","-0.067139","0.053101","-0.007634","0","0.022901","1.757349","10.146924","2.006177","0.084937","0.684277","0.078955","-0.0323","0.058618","0.690259"
"H","1617445716.9449728","7","29","0","-34","48","30","0.771606","0.63031","-0.066895","0.052673","-0.007634","0","0.030534","1.750171","10.247412","1.951147","0.087329","0.783569","0.026318","-0.044263","0.130396","0.776392"
"H","1617445716.9350226","7","29","-5","-37","43","29","0.771667","0.63031","-0.066589","0.052246","-0.007634","0","0.030534","1.756152","10.346704","1.908081","0.102881","0.880469","-0.016748","-0.04187","0.191406","0.863721"
"H","1617445716.9250453","7","31","-2","-36","48","27","0.771667","0.630371","-0.066284","0.051819","-0.007634","0","0.038168","1.770508","10.432837","1.890137","0.126807","0.965405","-0.033496","-0.031104","0.224902","0.946265"
"H","1617445716.9150748","7","29","3","-35","47","28","0.771729","0.630371","-0.065918","0.051331","-0.007634","0","0.030534","1.793237","10.484278","1.885352","0.161499","1.015649","-0.039478","-0.003589","0.240454","1.000098"
"H","1617445716.9049037","7","31","-1","-36","49","28","0.771851","0.63031","-0.065613","0.050903","-0.007634","0","0.030534","1.81477","10.515381","1.898511","0.192603","1.04436","-0.028711","0.021533","0.235669","1.03479"
"H","1617445716.8949502","7","32","-1","-34","44","31","0.771851","0.63031","-0.065308","0.050537","-0.007634","0","0.022901","1.841089","10.557251","1.92124","0.228491","1.086231","-0.005981","0.050244","0.221313","1.085034"
"H","1617445716.8922863","7","29","1","-36","46","27","0.771851","0.630371","-0.065063","0.050232","-0.015267","-0.007634","0.015267","1.857837","10.608691","1.941577","0.252417","1.135278","0.013159","0.066992","0.212939","1.140064"
"H","1617445716.8911438","7","29","0","-34","47","30","0.771851","0.630493","-0.064758","0.050049","-0.015267","-0.015267","0.007634","1.855444","10.658936","1.948755","0.257202","1.18313","0.021533","0.0646","0.214136","1.189111"
"H","1617445716.8651223","7","29","-3","-36","47","26","0.77179","0.630554","-0.064392","0.050049","-0.007634","-0.022901","0","1.832715","10.674487","1.932007","0.239258","1.198682","0.005981","0.045459","0.23208","1.198682"
"H","1617445716.855128","7","29","1","-35","46","29","0.77179","0.630554","-0.064148","0.050232","0","-0.022901","-0.007634","1.826733","10.649365","1.903296","0.234473","1.17356","-0.021533","0.045459","0.253613","1.167578"
"H","1617445716.844916","7","31","1","-34","46","28","0.771912","0.630432","-0.064026","0.050476","0.007634","-0.022901","-0.015267","1.835107","10.575195","1.865015","0.24165","1.09939","-0.063403","0.065796","0.281128","1.088623"
"H","1617445716.8349607","7","28","1","-35","52","28","0.772095","0.630127","-0.063965","0.050781","0.007634","-0.015267","-0.022901","1.842285","10.480688","1.831519","0.246436","1.008472","-0.104077","0.086133","0.302661","0.994116"
"H","1617445716.8251855","7","28","0","-35","48","28","0.772339","0.629822","-0.064026","0.051086","0.007634","-0.007634","-0.022901","1.872192","10.408911","1.835107","0.271558","0.937891","-0.107666","0.120825","0.293091","0.92832"
"H","1617445716.8152523","7","32","3","-35","52","27","0.772522","0.629517","-0.064209","0.051392","0.007634","-0.007634","-0.030534","1.892529","10.3479","1.866211","0.285913","0.880469","-0.08374","0.143555","0.258398","0.880469"
"H","1617445716.805062","7","31","-1","-36","47","26","0.772705","0.629272","-0.064453","0.051819","0","-0.015267","-0.038168","1.912866","10.27373","1.918848","0.29668","0.808691","-0.037085","0.162695","0.19978","0.821851"
"H","1617445716.7951264","7","29","1","-35","43","27","0.772888","0.629028","-0.064636","0.052368","0.007634","-0.015267","-0.045802","1.922436","10.184009","1.98584","0.29668","0.721362","0.022729","0.174658","0.123218","0.750073"
"H","1617445716.7850783","7","29","0","-35","45","30","0.77301","0.628784","-0.064819","0.052979","0.015267","-0.030534","-0.053435","1.904492","10.070361","2.040869","0.269165","0.610107","0.072974","0.162695","0.052637","0.648389"
"H","1617445716.7749424","7","28","0","-34","48","27","0.773254","0.628418","-0.06488","0.053833","0.015267","-0.038168","-0.053435","1.853052","9.935181","2.073169","0.205762","0.478516","0.095703","0.120825","0.003589","0.514404"
"H","1617445716.7651482","7","27","0","-35","45","31","0.773499","0.627991","-0.06488","0.05481","0.015267","-0.045802","-0.061069","1.802808","9.834692","2.104272","0.143555","0.382812","0.117236","0.072974","-0.034692","0.416309"
"H","1617445716.7549634","7","28","-1","-35","44","26","0.773743","0.627625","-0.06488","0.055847","0.007634","-0.045802","-0.061069","1.766919","9.762915","2.15332","0.095703","0.314624","0.156714","0.035889","-0.087329","0.350513"
"H","1617445716.7452197","7","31","-1","-34","48","26","0.773865","0.62738","-0.064941","0.056946","0.007634","-0.038168","-0.061069","1.739404","9.709082","2.193994","0.053833","0.265576","0.191406","0.002393","-0.131592","0.303857"
"H","1617445716.7350302","7","31","-2","-34","46","28","0.773926","0.627197","-0.065063","0.057922","0","-0.030534","-0.053435","1.729834","9.687549","2.245435","0.029907","0.246436","0.239258","-0.019141","-0.181836","0.290698"
"H","1617445716.7252016","7","29","-3","-37","45","31","0.773926","0.627075","-0.065247","0.058716","0","-0.015267","-0.038168","1.742993","9.687549","2.28252","0.031104","0.250024","0.27395","-0.019141","-0.215332","0.301465"
"H","1617445716.7151773","7","29","0","-35","46","31","0.773926","0.627014","-0.065491","0.059204","0.007634","-0.007634","-0.030534","1.75376","9.676783","2.288501","0.0323","0.240454","0.278735","-0.016748","-0.22251","0.294287"
"H","1617445716.7049727","7","32","-1","-36","47","28","0.773987","0.626892","-0.065674","0.059448","0.015267","-0.007634","-0.015267","1.76333","9.680371","2.270557","0.035889","0.246436","0.258398","-0.014355","-0.200977","0.295483"
"H","1617445716.69515","7","32","-1","-35","47","28","0.774048","0.626831","-0.065735","0.059509","0.007634","0","0","1.762134","9.734204","2.240649","0.033496","0.300269","0.226099","-0.025122","-0.15791","0.340942"
"H","1617445716.6849806","7","28","-1","-34","47","28","0.774109","0.62677","-0.065674","0.059387","0","0","0.007634","1.747778","9.829907","2.213135","0.021533","0.395972","0.197388","-0.052637","-0.110059","0.424683"
"H","1617445716.675128","7","25","-1","-34","44","31","0.774109","0.626831","-0.065552","0.059204","-0.007634","-0.007634","0.007634","1.720264","9.961499","2.184424","-0.001196","0.526367","0.169873","-0.096899","-0.056226","0.540723"
"H","1617445716.6650512","7","31","1","-35","47","29","0.773987","0.627014","-0.065308","0.059082","-0.022901","-0.015267","0.007634","1.67959","10.10625","2.170068","-0.037085","0.669922","0.159106","-0.156714","-0.016748","0.671118"
"H","1617445716.6551936","7","30","1","-33","44","32","0.773804","0.627197","-0.065063","0.059082","-0.022901","-0.015267","0.007634","1.638916","10.227076","2.154517","-0.07417","0.789551","0.14834","-0.212939","0.016748","0.777588"
"H","1617445716.6451693","7","29","-1","-36","47","27","0.773682","0.627441","-0.064819","0.059143","-0.015267","-0.015267","0.007634","1.622168","10.280909","2.149731","-0.087329","0.840991","0.14834","-0.234473","0.026318","0.824243"
"H","1617445716.6350486","7","32","1","-34","50","29","0.773621","0.627502","-0.064636","0.059143","-0.007634","-0.007634","0.007634","1.628149","10.279712","2.154517","-0.078955","0.839795","0.154321","-0.226099","0.020337","0.826636"
"H","1617445716.6251264","7","29","-2","-36","48","30","0.773621","0.627502","-0.064575","0.059143","-0.007634","0","0.015267","1.67959","10.26416","2.19519","-0.026318","0.823047","0.194995","-0.172266","-0.021533","0.827832"
"H","1617445716.615175","7","32","-1","-37","48","27","0.773621","0.627502","-0.064514","0.05896","0","0","0.007634","1.733423","10.217505","2.225098","0.029907","0.776392","0.224902","-0.108862","-0.059814","0.797925"
"H","1617445716.6051323","7","31","-1","-34","47","27","0.773682","0.627441","-0.064514","0.058777","0.007634","0.007634","0.007634","1.768115","10.155298","2.220313","0.065796","0.714185","0.218921","-0.063403","-0.065796","0.744092"
"H","1617445716.5950978","7","29","1","-36","47","29","0.773804","0.62738","-0.064575","0.058472","0.007634","0.007634","0.007634","1.798023","10.107447","2.182031","0.099292","0.665137","0.178247","-0.020337","-0.035889","0.693848"
"H","1617445716.585178","7","31","3","-34","47","28","0.773865","0.627258","-0.064636","0.058228","0.007634","0.007634","0.007634","1.81477","10.089502","2.11145","0.118433","0.648389","0.105273","0.002393","0.031104","0.666333"
"H","1617445716.5752275","7","27","-2","-36","47","30","0.773865","0.627258","-0.064758","0.057922","-0.007634","0.015267","0","1.824341","10.107447","2.036084","0.129199","0.666333","0.031104","0.011963","0.107666","0.669922"
"H","1617445716.5651467","7","32","1","-34","47","29","0.773804","0.62738","-0.06488","0.057678","-0.015267","0.015267","0","1.838696","10.146924","1.973877","0.144751","0.704614","-0.027515","0.022729","0.172266","0.697437"
"H","1617445716.555146","7","29","0","-34","44","31","0.773682","0.627502","-0.065125","0.057495","-0.015267","0.022901","-0.007634","1.848267","10.17085","1.909277","0.153125","0.72854","-0.088525","0.028711","0.236865","0.709399"
"H","1617445716.5452647","7","27","-1","-36","48","29","0.773621","0.627563","-0.06543","0.057251","-0.007634","0.022901","0","1.860229","10.168457","1.856641","0.163892","0.726147","-0.13877","0.040674","0.285913","0.698633"
"H","1617445716.5350456","7","32","0","-35","49","27","0.773621","0.627563","-0.065796","0.057007","-0.015267","0.030534","0","1.885352","10.17085","1.830322","0.185425","0.72854","-0.163892","0.062207","0.311035","0.699829"
"H","1617445716.5252664","7","33","1","-35","46","28","0.77356","0.627625","-0.066162","0.056641","-0.015267","0.030534","0","1.917651","10.194776","1.863818","0.217725","0.75127","-0.128003","0.089722","0.279932","0.734522"
"H","1617445716.5152788","7","29","2","-33","47","28","0.773499","0.627747","-0.066528","0.056274","-0.015267","0.030534","0","1.934399","10.223486","1.920044","0.233276","0.778784","-0.068188","0.098096","0.227295","0.776392"
"H","1617445716.5051436","7","29","1","-36","48","29","0.773438","0.627808","-0.066772","0.055908","-0.007634","0.015267","0","1.934399","10.223486","1.978662","0.233276","0.778784","-0.007178","0.096899","0.16748","0.788355"
"H","1617445716.495002","7","29","21","-34","48","28","0.773438","0.627808","-0.066956","0.055664","0","0.007634","0","1.917651","10.204346","2.016943","0.216528","0.759644","0.029907","0.082544","0.126807","0.775195"
"H","1617445716.4849868","7","29","1","-33","57","31","0.773499","0.627747","-0.066956","0.055542","0","-0.007634","0","1.87937","10.176831","2.01814","0.18064","0.732129","0.029907","0.05144","0.120825","0.742895"
"H","1617445716.4750326","7","33","3","-35","48","29","0.77356","0.627625","-0.066895","0.055542","0","-0.007634","0","1.857837","10.167261","2.010962","0.160303","0.723755","0.020337","0.033496","0.129199","0.72854"
"H","1617445716.465145","7","33","0","-35","44","26","0.773682","0.627563","-0.066772","0.055542","0","-0.007634","0","1.845874","10.179224","2.001392","0.149536","0.734522","0.007178","0.021533","0.143555","0.734522"
"H","1617445716.4552665","7","28","-2","-37","44","27","0.773682","0.627502","-0.066772","0.055542","-0.007634","0","-0.007634","1.843481","10.198364","1.994214","0.147144","0.754858","0","0.016748","0.155518","0.752466"
"H","1617445716.4451303","7","29","-1","-34","48","27","0.773682","0.627502","-0.066833","0.055542","-0.007634","0.007634","0","1.850659","10.22229","1.994214","0.153125","0.778784","0","0.017944","0.160303","0.776392"
"H","1617445716.43502","7","30","1","-37","44","29","0.773682","0.627502","-0.066956","0.05542","-0.007634","0.007634","0","1.860229","10.230664","1.997803","0.162695","0.787158","0.003589","0.026318","0.159106","0.787158"
"H","1617445716.4251935","7","29","-1","-38","47","29","0.773682","0.627502","-0.067139","0.055298","-0.007634","0.007634","0","1.870996","10.223486","2.013355","0.172266","0.77998","0.019141","0.035889","0.142358","0.784766"
"H","1617445716.4152882","7","29","1","-37","47","27","0.773743","0.627441","-0.067261","0.055115","-0.007634","0.007634","0","1.874585","10.213916","2.040869","0.175854","0.77041","0.045459","0.040674","0.113647","0.781177"
"H","1617445716.4052942","7","31","0","-35","44","26","0.773804","0.62738","-0.067322","0.054993","0","0","0","1.861426","10.176831","2.062402","0.163892","0.733325","0.065796","0.034692","0.086133","0.747681"
"H","1617445716.3952837","7","29","-1","-35","48","30","0.773865","0.627319","-0.067322","0.055054","0","-0.015267","-0.007634","1.84707","10.136157","2.086328","0.14834","0.692651","0.088525","0.025122","0.056226","0.710596"
"H","1617445716.385272","7","29","-3","-38","48","29","0.773926","0.627197","-0.0672","0.055176","0.007634","-0.022901","-0.007634","1.820752","10.088305","2.109058","0.122021","0.645996","0.107666","0.005981","0.027515","0.665137"
"H","1617445716.3751273","7","29","0","-37","46","29","0.774048","0.627014","-0.067017","0.05542","0.007634","-0.022901","-0.015267","1.782471","10.02251","2.105469","0.08374","0.582593","0.100488","-0.019141","0.021533","0.595752"
"H","1617445716.365369","7","29","0","-35","48","27","0.77417","0.626892","-0.066833","0.055725","0.007634","-0.022901","-0.007634","1.764526","9.978247","2.115039","0.0646","0.53833","0.105273","-0.031104","0.008374","0.550293"
"H","1617445716.355231","7","28","-3","-36","45","26","0.774292","0.62677","-0.066772","0.055969","0","-0.015267","-0.007634","1.776489","9.981836","2.121021","0.075366","0.543115","0.107666","-0.021533","0.007178","0.557471"
"H","1617445716.3451405","7","27","-1","-35","42","26","0.774231","0.62677","-0.066711","0.056091","-0.007634","-0.007634","-0.007634","1.790845","10.002172","2.121021","0.088525","0.563452","0.108862","-0.011963","0.010767","0.5802"
"H","1617445716.33545","7","29","1","-36","47","29","0.774231","0.626831","-0.066772","0.056152","-0.007634","0","-0.007634","1.802808","10.026098","2.103076","0.099292","0.587378","0.090918","-0.004785","0.0323","0.600537"
"H","1617445716.3252945","7","29","-1","-35","43","31","0.774109","0.626892","-0.066833","0.056091","-0.007634","0","0","1.81477","10.066772","2.075562","0.111255","0.628052","0.066992","0","0.0646","0.637622"
"H","1617445716.3152733","7","29","-1","-38","48","26","0.774048","0.627014","-0.066833","0.055969","-0.015267","0.007634","0","1.830322","10.114624","2.06001","0.128003","0.674707","0.053833","0.008374","0.087329","0.683081"
"H","1617445716.305421","7","31","-3","-34","44","26","0.773987","0.627136","-0.066895","0.055786","-0.007634","0","0","1.844678","10.149317","2.048047","0.143555","0.708203","0.044263","0.019141","0.102881","0.715381"
"H","1617445716.2953105","7","31","-3","-36","44","26","0.773987","0.627136","-0.066895","0.055664","0","0","0","1.862622","10.156494","2.043262","0.162695","0.715381","0.039478","0.037085","0.108862","0.724951"
"H","1617445716.2853234","7","29","-1","-37","46","28","0.773987","0.627136","-0.066833","0.055542","0","0","0","1.867407","10.14812","2.036084","0.169873","0.707007","0.0323","0.045459","0.114844","0.716577"
"H","1617445716.275408","7","31","-1","-35","48","29","0.774109","0.627014","-0.066772","0.05542","0","0","0","1.873389","10.133764","2.045654","0.178247","0.692651","0.039478","0.056226","0.105273","0.705811"
"H","1617445716.2660103","7","29","0","-50","48","28","0.77417","0.626953","-0.066711","0.055359","0","0","0","1.881763","10.117017","2.06001","0.189014","0.675903","0.05144","0.069385","0.089722","0.693848"
"H","1617445716.255196","7","32","-1","-36","4","28","0.774231","0.626831","-0.06665","0.055237","0.007634","0","0.007634","1.896118","10.082324","2.076758","0.205762","0.641211","0.065796","0.090918","0.068188","0.666333"
"H","1617445716.2459943","7","29","-1","-38","46","28","0.774353","0.626709","-0.066589","0.055054","0.007634","0","0.007634","1.914062","10.052417","2.077954","0.226099","0.6125","0.063403","0.11604","0.065796","0.641211"
"H","1617445716.2352087","7","29","0","-34","46","26","0.774475","0.626648","-0.066467","0.054871","0","0","0.007634","1.920044","10.051221","2.07915","0.236865","0.610107","0.062207","0.128003","0.065796","0.641211"
"H","1617445716.225933","7","29","1","-35","44","27","0.774536","0.626648","-0.066345","0.054749","-0.007634","-0.007634","0.007634","1.91167","10.094287","2.081543","0.230884","0.651978","0.063403","0.114844","0.07417","0.680689"
"H","1617445716.215956","7","31","-3","-36","48","30","0.774475","0.626709","-0.066162","0.054626","-0.015267","-0.015267","0","1.882959","10.158887","2.076758","0.206958","0.715381","0.061011","0.081348","0.089722","0.736914"
"H","1617445716.2061317","7","29","0","-56","45","29","0.774414","0.626831","-0.065918","0.054626","-0.015267","-0.015267","0","1.839893","10.215113","2.063599","0.16748","0.77041","0.050244","0.033496","0.111255","0.781177"
"H","1617445716.1959672","7","31","-1","-37","48","27","0.774292","0.626953","-0.065674","0.054626","-0.015267","-0.015267","0","1.81477","10.260571","2.057617","0.145947","0.815869","0.046655","0.005981","0.123218","0.820654"
"H","1617445716.1851883","7","31","-1","-35","42","27","0.774231","0.627075","-0.065491","0.054688","-0.015267","-0.007634","0.007634","1.815967","10.297656","2.071973","0.149536","0.851758","0.063403","0.002393","0.114844","0.858936"
"H","1617445716.176213","7","28","0","-35","46","28","0.774109","0.627197","-0.065369","0.054626","-0.015267","0","0","1.819556","10.291675","2.082739","0.155518","0.84458","0.077759","0.00957","0.099292","0.855347"
"H","1617445716.165945","7","29","-1","-36","46","26","0.774109","0.627258","-0.065369","0.054565","-0.007634","0","0","1.831519","10.234253","2.087524","0.168677","0.785962","0.082544","0.0323","0.081348","0.80271"
"H","1617445716.156111","7","27","0","-36","46","26","0.774109","0.627197","-0.06543","0.054443","0","0.007634","0","1.841089","10.18042","2.095898","0.178247","0.733325","0.090918","0.050244","0.062207","0.754858"
"H","1617445716.14616","7","29","-3","-36","48","29","0.77417","0.627136","-0.065491","0.054321","0","0","-0.007634","1.838696","10.146924","2.092309","0.177051","0.699829","0.086133","0.055029","0.061011","0.721362"
"H","1617445716.1358807","7","28","-1","-38","48","28","0.77417","0.627136","-0.065552","0.05426","-0.007634","0","-0.007634","1.833911","10.140943","2.081543","0.172266","0.693848","0.075366","0.05144","0.069385","0.712988"
"H","1617445716.125902","7","31","-2","-38","46","27","0.77417","0.627136","-0.065674","0.05426","-0.007634","0","-0.015267","1.82793","10.13855","2.065991","0.163892","0.691455","0.059814","0.044263","0.084937","0.705811"
"H","1617445716.115989","7","29","-2","-36","47","26","0.774109","0.627197","-0.065796","0.054321","-0.015267","0","-0.015267","1.81477","10.143335","2.052832","0.14834","0.69624","0.047852","0.027515","0.096899","0.705811"
"H","1617445716.1060667","7","31","-3","-35","46","26","0.773987","0.627319","-0.065918","0.054382","-0.022901","0","-0.015267","1.806396","10.16128","2.048047","0.137573","0.714185","0.046655","0.014355","0.101685","0.720166"
"H","1617445716.095992","7","33","-4","-34","44","29","0.773804","0.627502","-0.066101","0.054504","-0.022901","0","-0.015267","1.801611","10.191187","2.051636","0.128003","0.744092","0.055029","0","0.099292","0.750073"
"H","1617445716.0860076","7","29","-1","-34","48","26","0.773621","0.627747","-0.066345","0.054688","-0.022901","0","-0.015267","1.799219","10.213916","2.057617","0.119629","0.765625","0.066992","-0.011963","0.092114","0.771606"
"H","1617445716.0761244","7","29","-1","-34","46","28","0.773376","0.627991","-0.066528","0.05481","-0.022901","0","-0.015267","1.802808","10.198364","2.071973","0.119629","0.750073","0.088525","-0.010767","0.066992","0.76084"
"H","1617445716.0660267","7","29","-1","-35","46","26","0.773254","0.628113","-0.066772","0.054993","-0.007634","0.007634","-0.015267","1.826733","10.151709","2.077954","0.137573","0.703418","0.098096","0.013159","0.047852","0.721362"
"H","1617445716.055907","7","28","-3","-35","44","28","0.773193","0.628113","-0.066956","0.055054","0","0.007634","-0.015267","1.860229","10.078735","2.070776","0.16748","0.631641","0.092114","0.053833","0.038281","0.655566"
"H","1617445716.046114","7","29","0","-36","47","26","0.773254","0.628052","-0.067139","0.055115","0","0","-0.015267","1.884155","10.012939","2.056421","0.187817","0.565845","0.076563","0.086133","0.040674","0.593359"
"H","1617445716.0359704","7","28","-1","-36","47","28","0.773315","0.627991","-0.067322","0.055115","0","0","-0.015267","1.900903","9.992602","2.048047","0.200977","0.546704","0.065796","0.101685","0.047852","0.574219"
"H","1617445716.0260296","7","29","1","-33","48","28","0.773315","0.627991","-0.067322","0.055176","-0.015267","-0.007634","-0.015267","1.897314","10.026098","2.049243","0.197388","0.5802","0.066992","0.093311","0.052637","0.606519"
"H","1617445716.016219","7","27","-2","-37","47","28","0.773193","0.628113","-0.067261","0.055359","-0.015267","-0.015267","-0.015267","1.865015","10.078735","2.03728","0.163892","0.632837","0.058618","0.05144","0.071777","0.649585"
"H","1617445716.006043","7","31","-1","-34","46","28","0.773071","0.628235","-0.067139","0.055603","-0.015267","-0.015267","-0.015267","1.829126","10.120605","2.024121","0.126807","0.673511","0.047852","0.008374","0.090918","0.680689"
"H","1617445715.9959855","7","28","-2","-38","42","27","0.772949","0.628357","-0.067078","0.055847","-0.015267","-0.015267","-0.007634","1.802808","10.145727","2.003784","0.098096","0.698633","0.031104","-0.022729","0.111255","0.69624"
"H","1617445715.98603","7","28","-1","-34","47","29","0.772827","0.628479","-0.067017","0.055969","-0.015267","0","-0.007634","1.808789","10.155298","1.998999","0.104077","0.708203","0.029907","-0.019141","0.114844","0.705811"
"H","1617445715.9759858","7","28","-3","-34","44","27","0.772766","0.628601","-0.067078","0.055969","-0.015267","0.007634","0","1.841089","10.176831","2.014551","0.135181","0.72854","0.047852","0.005981","0.100488","0.734522"
"H","1617445715.966227","7","31","-1","-35","47","31","0.772644","0.628723","-0.0672","0.055847","-0.015267","0.007634","0","1.867407","10.210327","2.044458","0.161499","0.762036","0.081348","0.025122","0.075366","0.778784"
"H","1617445715.9559758","7","28","-2","-38","44","26","0.772522","0.628845","-0.067261","0.055725","-0.015267","0","0","1.868603","10.240234","2.073169","0.162695","0.791943","0.113647","0.020337","0.049048","0.813477"
"H","1617445715.9459984","7","30","0","-35","47","31","0.772461","0.628967","-0.067261","0.055664","-0.007634","-0.007634","0","1.857837","10.240234","2.085132","0.153125","0.790747","0.128003","0.010767","0.034692","0.813477"
"H","1617445715.9361303","7","27","-1","-36","49","28","0.7724","0.629028","-0.067078","0.055664","-0.007634","-0.015267","0","1.824341","10.217505","2.071973","0.122021","0.766821","0.11604","-0.014355","0.040674","0.783569"
"H","1617445715.9261065","7","27","-1","-36","47","27","0.772461","0.629028","-0.066956","0.055786","0","-0.015267","0","1.815967","10.200757","2.06958","0.113647","0.750073","0.112451","-0.019141","0.04187","0.764429"
"H","1617445715.916004","7","29","-1","-36","47","26","0.772522","0.628967","-0.066833","0.055847","0","-0.007634","0","1.821948","10.178027","2.06001","0.120825","0.727344","0.100488","-0.007178","0.049048","0.741699"
"H","1617445715.906047","7","32","0","-34","44","27","0.772522","0.628906","-0.066711","0.055908","-0.007634","-0.007634","0","1.833911","10.181616","2.044458","0.133984","0.732129","0.084937","0.003589","0.0646","0.745288"
"H","1617445715.8960347","7","31","0","-36","47","26","0.772522","0.628906","-0.066711","0.055908","-0.015267","-0.007634","-0.007634","1.848267","10.216309","2.034888","0.14834","0.766821","0.075366","0.011963","0.081348","0.77998"
"H","1617445715.886063","7","31","0","-40","47","28","0.7724","0.629028","-0.066711","0.055969","-0.015267","0","-0.007634","1.849463","10.262964","2.036084","0.14834","0.81228","0.078955","0.004785","0.087329","0.824243"
"H","1617445715.8760247","7","32","0","-36","51","28","0.772278","0.629211","-0.066711","0.05603","-0.015267","-0.007634","-0.015267","1.835107","10.297656","2.03728","0.133984","0.845776","0.084937","-0.014355","0.087329","0.855347"
"H","1617445715.2670138","7","29","-1","-35","43","27","0.772644","0.628845","-0.066345","0.055725","-0.022901","-0.007634","-0.007634","1.811182","10.233057","1.99541","0.119629","0.782373","0.0323","-0.015552","0.126807","0.781177"
"H","1617445715.2573628","7","28","0","-33","48","27","0.772522","0.629028","-0.066284","0.055786","-0.015267","0","0","1.81477","10.282104","1.972681","0.123218","0.829028","0.013159","-0.019141","0.154321","0.823047"
"H","1617445715.2469635","7","28","-1","-36","44","29","0.7724","0.629089","-0.066345","0.055725","-0.007634","0.007634","0","1.845874","10.290479","1.973877","0.154321","0.838599","0.017944","0.008374","0.151929","0.838599"
"H","1617445715.2370446","7","28","1","-37","46","29","0.772461","0.629028","-0.066467","0.055542","0.007634","0.015267","0.007634","1.882959","10.24143","1.96311","0.191406","0.789551","0.005981","0.053833","0.154321","0.795532"
"H","1617445715.2272255","7","29","-1","-35","41","27","0.772644","0.628845","-0.066589","0.055237","0.007634","0.015267","0.007634","1.92124","10.185205","1.960718","0.230884","0.733325","0","0.102881","0.14834","0.746484"
"H","1617445715.2171135","7","31","0","-36","44","28","0.772766","0.628662","-0.066772","0.054932","0.007634","0.015267","0","1.942773","10.174438","1.973877","0.253613","0.723755","0.008374","0.126807","0.13877","0.742895"
"H","1617445715.2070782","7","27","-1","-38","43","26","0.772949","0.62854","-0.066833","0.054626","0.007634","0.007634","0","1.948755","10.155298","2.000195","0.263184","0.703418","0.031104","0.13877","0.112451","0.729736"
"H","1617445715.197198","7","31","-1","-36","46","29","0.773071","0.628357","-0.066833","0.054504","0","-0.007634","-0.007634","1.917651","10.127783","2.019336","0.233276","0.6771","0.045459","0.113647","0.093311","0.701025"
"H","1617445715.187189","7","28","-1","-33","44","27","0.773132","0.628235","-0.066772","0.054565","0","-0.015267","-0.007634","1.870996","10.124194","2.044458","0.186621","0.674707","0.068188","0.066992","0.070581","0.69624"
"H","1617445715.1769943","7","32","-5","-36","44","29","0.773193","0.628235","-0.066589","0.054749","-0.007634","-0.022901","-0.015267","1.817163","10.125391","2.056421","0.132788","0.675903","0.078955","0.013159","0.061011","0.690259"
"H","1617445715.1670897","7","29","1","-34","48","26","0.773132","0.628235","-0.066406","0.055115","-0.015267","-0.022901","-0.015267","1.780078","10.143335","2.06001","0.094507","0.695044","0.082544","-0.026318","0.061011","0.702222"
"H","1617445715.1574504","7","29","-1","-38","46","29","0.773071","0.628357","-0.066284","0.055481","-0.015267","-0.015267","-0.015267","1.771704","10.167261","2.065991","0.08374","0.717773","0.090918","-0.040674","0.057422","0.723755"
"H","1617445715.1470673","7","28","0","-35","46","26","0.772949","0.628479","-0.066284","0.055786","-0.007634","-0.007634","-0.015267","1.78606","10.173243","2.064795","0.094507","0.723755","0.092114","-0.0323","0.057422","0.732129"
"H","1617445715.1372","7","27","0","-38","44","28","0.772888","0.628479","-0.066467","0.055908","0","0.007634","-0.007634","1.833911","10.146924","2.06958","0.137573","0.698633","0.098096","0.013159","0.045459","0.716577"
"H","1617445715.127112","7","29","1","-35","47","28","0.772888","0.628479","-0.06665","0.055847","0","0.007634","-0.007634","1.878174","10.113428","2.055225","0.179443","0.665137","0.084937","0.059814","0.052637","0.689062"
"H","1617445715.1170084","7","31","1","-35","44","27","0.772949","0.628357","-0.066833","0.055725","0","0.007634","0","1.904492","10.10625","2.034888","0.204565","0.659155","0.062207","0.086133","0.072974","0.683081"
"H","1617445715.1070826","7","29","0","-40","47","29","0.77301","0.628357","-0.066956","0.055542","0","0.007634","-0.007634","1.903296","10.122998","2.016943","0.204565","0.674707","0.043066","0.084937","0.095703","0.693848"
"H","1617445715.097174","7","28","-1","-36","44","28","0.77301","0.628296","-0.066956","0.05542","-0.007634","0","-0.007634","1.874585","10.137354","2.004981","0.177051","0.690259","0.031104","0.055029","0.110059","0.702222"
"H","1617445715.0872777","7","32","1","-34","12","1","0.773071","0.628296","-0.066956","0.05542","-0.007634","-0.007634","-0.007634","1.833911","10.144531","1.991821","0.136377","0.69624","0.016748","0.014355","0.12561","0.697437"
"H","1617445715.077135","7","31","-1","-38","46","27","0.773071","0.628296","-0.066895","0.055481","-0.015267","-0.007634","-0.007634","1.807593","10.155298","1.996606","0.110059","0.707007","0.021533","-0.011963","0.123218","0.704614"
"H","1617445715.0670798","7","29","1","-35","46","27","0.77301","0.628357","-0.066895","0.055664","-0.015267","-0.007634","-0.015267","1.781274","10.178027","2.009766","0.081348","0.729736","0.035889","-0.044263","0.113647","0.723755"
"H","1617445715.057213","7","28","0","-35","46","29","0.772888","0.628479","-0.066895","0.055847","-0.022901","-0.007634","-0.015267","1.765723","10.210327","2.036084","0.063403","0.762036","0.065796","-0.069385","0.090918","0.758447"
"H","1617445715.047492","7","29","-3","-36","47","28","0.772705","0.628662","-0.066956","0.05603","-0.022901","-0.007634","-0.015267","1.7729","10.22229","2.063599","0.068188","0.773999","0.098096","-0.068188","0.061011","0.777588"
"H","1617445715.0372975","7","31","-3","-36","47","29","0.772583","0.628845","-0.067078","0.056213","-0.015267","0","-0.007634","1.796826","10.225879","2.107861","0.087329","0.776392","0.145947","-0.05144","0.014355","0.791943"
"H","1617445715.027121","7","28","-3","-36","44","27","0.772461","0.628906","-0.0672","0.056274","0","0","-0.007634","1.823145","10.178027","2.110254","0.111255","0.729736","0.151929","-0.020337","0","0.752466"
"H","1617445715.0170689","7","28","-1","-38","48","28","0.772522","0.628845","-0.067261","0.056274","0.015267","0","0","1.84707","10.094287","2.076758","0.133984","0.645996","0.11604","0.016748","0.016748","0.668726"
"H","1617445715.0070932","7","28","0","-35","46","30","0.772705","0.628601","-0.067261","0.056213","0.015267","0","0","1.875781","10.039258","2.038476","0.163892","0.592163","0.071777","0.057422","0.050244","0.613696"
"H","1617445714.9971929","7","32","0","-36","47","28","0.772888","0.628418","-0.067261","0.056152","0.007634","-0.007634","0","1.881763","10.03208","2.006177","0.171069","0.586182","0.034692","0.065796","0.084937","0.601733"
"H","1617445714.9872828","7","28","-2","-35","46","27","0.772949","0.628296","-0.0672","0.056091","-0.007634","-0.007634","-0.007634","1.863818","10.076343","1.984644","0.154321","0.631641","0.010767","0.043066","0.118433","0.637622"
"H","1617445714.9772851","7","28","-1","-37","47","27","0.772949","0.628296","-0.067078","0.056152","-0.015267","-0.015267","-0.007634","1.830322","10.133764","1.976269","0.122021","0.687866","0.002393","0.001196","0.137573","0.684277"
"H","1617445714.9670644","7","29","-1","-37","46","28","0.772888","0.628418","-0.067017","0.056274","-0.022901","-0.007634","-0.007634","1.802808","10.172046","1.970288","0.093311","0.726147","0","-0.0323","0.147144","0.715381"
"H","1617445714.9573328","7","29","1","-35","47","26","0.772766","0.62854","-0.067017","0.056396","-0.022901","0","-0.007634","1.807593","10.211523","1.988232","0.096899","0.764429","0.020337","-0.035889","0.135181","0.757251"
"H","1617445714.9473214","7","28","1","-35","47","31","0.772583","0.628723","-0.067139","0.056396","-0.022901","0.007634","0","1.826733","10.247412","2.022925","0.114844","0.800317","0.059814","-0.025122","0.104077","0.80271"
"H","1617445714.93732","7","32","-1","-37","44","31","0.772461","0.628906","-0.067322","0.056274","-0.015267","0.015267","0","1.868603","10.251001","2.071973","0.155518","0.80271","0.113647","0.010767","0.05144","0.823047"
"H","1617445714.9273462","7","29","0","-34","47","29","0.7724","0.629028","-0.067566","0.05603","0","0.015267","0","1.900903","10.216309","2.10188","0.186621","0.766821","0.145947","0.046655","0.011963","0.800317"
"H","1617445714.917302","7","31","0","-34","45","27","0.772461","0.628906","-0.067688","0.055786","0.015267","0","0","1.897314","10.130176","2.085132","0.184229","0.681885","0.128003","0.059814","0.011963","0.714185"
"H","1617445714.907234","7","24","4","-35","51","27","0.772644","0.628723","-0.067627","0.055603","0.015267","-0.007634","0","1.8698","10.070361","2.048047","0.160303","0.62207","0.084937","0.047852","0.043066","0.643604"
"H","1617445714.8972003","7","29","-5","-35","46","26","0.772827","0.628479","-0.067566","0.055542","0.007634","-0.007634","0","1.853052","10.057202","2.006177","0.144751","0.610107","0.038281","0.035889","0.086133","0.620874"
"H","1617445714.887363","7","33","-3","-35","45","31","0.772949","0.628418","-0.067444","0.055481","0","-0.007634","0","1.833911","10.081128","1.972681","0.128003","0.634033","0.001196","0.016748","0.128003","0.632837"
"H","1617445714.8772824","7","32","0","-36","47","28","0.772949","0.628418","-0.067322","0.055481","-0.007634","-0.007634","-0.007634","1.818359","10.11941","1.941577","0.114844","0.671118","-0.028711","0","0.165088","0.660352"
"H","1617445714.867091","7","27","-3","-36","43","26","0.772888","0.628418","-0.067322","0.055603","-0.007634","0","-0.007634","1.812378","10.112231","1.924829","0.107666","0.665137","-0.044263","-0.004785","0.178247","0.650781"
"H","1617445714.857268","7","29","-3","-34","44","27","0.772888","0.628479","-0.067383","0.055603","-0.015267","0.007634","-0.007634","1.826733","10.099072","1.923633","0.120825","0.650781","-0.044263","0.008374","0.175854","0.638818"
"H","1617445714.8472996","7","31","0","-44","48","27","0.772766","0.62854","-0.067566","0.055542","-0.022901","0.015267","-0.007634","1.8698","10.114624","1.95354","0.161499","0.667529","-0.011963","0.044263","0.147144","0.668726"
"H","1617445714.8371215","7","28","-1","-35","47","26","0.772644","0.628662","-0.067749","0.05542","-0.015267","0.015267","-0.007634","1.898511","10.137354","2.004981","0.189014","0.690259","0.04187","0.065796","0.099292","0.705811"
"H","1617445714.827256","7","28","0","-34","48","29","0.772583","0.628784","-0.067932","0.055298","-0.007634","0.007634","0","1.909277","10.120605","2.044458","0.198584","0.672314","0.08374","0.076563","0.053833","0.698633"
"H","1617445714.8171668","7","29","1","-35","48","29","0.772583","0.628845","-0.067932","0.055176","0","-0.007634","0","1.891333","10.088305","2.067188","0.181836","0.638818","0.107666","0.065796","0.023926","0.668726"
"H","1617445714.8073962","7","33","0","-34","46","26","0.772583","0.628784","-0.06781","0.055176","0","-0.015267","0","1.859033","10.059595","2.077954","0.151929","0.611304","0.117236","0.040674","0.008374","0.638818"
"H","1617445714.797282","7","28","-3","-35","46","27","0.772644","0.628723","-0.067566","0.055298","0","-0.022901","0","1.81477","10.063184","2.061206","0.110059","0.614893","0.099292","0","0.027515","0.631641"
"H","1617445714.7872772","7","31","-1","-35","47","28","0.772644","0.628723","-0.067322","0.055481","-0.007634","-0.022901","0","1.784863","10.083521","2.03728","0.081348","0.635229","0.07417","-0.029907","0.056226","0.641211"
"H","1617445714.7774143","7","27","-1","-33","43","27","0.772644","0.628784","-0.067139","0.055603","-0.007634","-0.007634","0","1.784863","10.103857","2.015747","0.082544","0.65437","0.053833","-0.031104","0.080151","0.655566"
"H","1617445714.7671602","7","29","1","-34","46","29","0.772583","0.628845","-0.067078","0.055664","-0.015267","0","0","1.813574","10.124194","2.006177","0.111255","0.674707","0.045459","-0.005981","0.092114","0.678296"
"H","1617445714.7573848","7","30","-2","-37","44","28","0.772461","0.628967","-0.067139","0.055603","-0.022901","0.007634","0","1.854248","10.142138","2.007373","0.151929","0.691455","0.050244","0.029907","0.090918","0.702222"
"H","1617445714.7471955","7","28","-3","-36","47","28","0.772278","0.629211","-0.0672","0.05542","-0.030534","0.007634","0","1.880566","10.192383","2.030102","0.179443","0.740503","0.078955","0.047852","0.071777","0.76084"
"H","1617445714.7373998","7","28","-1","-33","47","28","0.772034","0.629517","-0.067261","0.055298","-0.030534","0.007634","0","1.876978","10.233057","2.045654","0.175854","0.77998","0.101685","0.035889","0.057422","0.80271"
"H","1617445714.727443","7","31","1","-36","12","26","0.771851","0.629761","-0.067322","0.055237","-0.015267","0","0","1.863818","10.234253","2.06958","0.162695","0.778784","0.131592","0.022729","0.026318","0.805103"
"H","1617445714.717245","7","29","1","-36","44","27","0.771729","0.629944","-0.067322","0.055176","-0.007634","0","0","1.843481","10.201953","2.064795","0.143555","0.745288","0.131592","0.00957","0.020337","0.769214"
"H","1617445714.707268","7","29","0","-36","51","28","0.771729","0.629944","-0.067261","0.055115","0","0","0","1.832715","10.162476","2.058814","0.133984","0.705811","0.12561","0.007178","0.017944","0.72854"
"H","1617445714.6973808","7","29","-1","-34","46","26","0.77179","0.629883","-0.0672","0.055054","0.007634","-0.007634","0.007634","1.82793","10.125391","2.039673","0.131592","0.668726","0.104077","0.011963","0.031104","0.687866"
"H","1617445714.6873066","7","28","-1","-36","44","27","0.771851","0.629822","-0.067078","0.054871","0","-0.007634","0.007634","1.812378","10.130176","2.006177","0.119629","0.673511","0.069385","0.001196","0.066992","0.683081"
"H","1617445714.677493","7","29","-3","-36","43","26","0.771912","0.629761","-0.066956","0.054749","-0.007634","0","0.007634","1.813574","10.178027","1.977466","0.124414","0.721362","0.038281","0","0.10647","0.724951"
"H","1617445714.6674848","7","31","-2","-36","47","26","0.771912","0.629822","-0.066895","0.054565","-0.007634","0.007634","0.007634","1.829126","10.217505","1.947559","0.142358","0.759644","0.00957","0.010767","0.142358","0.758447"
"H","1617445714.6571596","7","29","0","-37","46","28","0.771851","0.629883","-0.066956","0.054321","-0.007634","0.015267","0.007634","1.8375","10.235449","1.904492","0.153125","0.777588","-0.029907","0.020337","0.184229","0.77041"
"H","1617445714.648008","7","25","-3","-37","44","28","0.771851","0.629883","-0.0672","0.054016","-0.007634","0.022901","0","1.860229","10.240234","1.872192","0.175854","0.781177","-0.062207","0.043066","0.216528","0.771606"
"H","1617445714.6373334","7","27","-2","-38","44","28","0.77179","0.629883","-0.067505","0.053711","-0.007634","0.030534","0","1.903296","10.223486","1.885352","0.218921","0.765625","-0.046655","0.088525","0.198584","0.766821"
"H","1617445714.627469","7","29","0","-38","43","29","0.77179","0.629944","-0.067871","0.053345","-0.007634","0.022901","0","1.948755","10.197168","1.929614","0.263184","0.73811","-0.001196","0.135181","0.14834","0.757251"
"H","1617445714.6180077","7","29","-1","-40","45","28","0.77179","0.629944","-0.068115","0.05304","-0.007634","0.007634","0","1.951147","10.15769","1.95354","0.265576","0.698633","0.022729","0.143555","0.11604","0.723755"
"H","1617445714.6075509","7","31","-1","-36","44","28","0.77179","0.629944","-0.068054","0.052917","-0.007634","-0.015267","-0.007634","1.905689","10.111035","1.95354","0.22251","0.651978","0.022729","0.108862","0.10647","0.671118"
"H","1617445714.5980265","7","28","-2","-38","47","28","0.771729","0.630005","-0.067932","0.053101","-0.015267","-0.022901","-0.015267","1.861426","10.121801","1.957129","0.177051","0.662744","0.027515","0.062207","0.104077","0.674707"
"H","1617445714.588235","7","28","1","-36","48","27","0.771667","0.630066","-0.067749","0.053345","-0.015267","-0.022901","-0.015267","1.825537","10.149317","1.961914","0.141162","0.690259","0.033496","0.021533","0.104077","0.69624"
"H","1617445714.578065","7","27","0","-36","48","28","0.771606","0.630188","-0.067566","0.053711","-0.015267","-0.022901","-0.015267","1.798023","10.146924","1.965503","0.112451","0.68667","0.038281","-0.005981","0.099292","0.689062"
"H","1617445714.5680392","7","32","-2","-36","50","27","0.771545","0.630188","-0.067444","0.054016","-0.007634","-0.015267","-0.015267","1.787256","10.125391","1.978662","0.099292","0.666333","0.052637","-0.015552","0.081348","0.669922"
"H","1617445714.5580437","7","28","-3","-38","43","28","0.771545","0.630188","-0.067505","0.054199","-0.007634","-0.007634","-0.007634","1.798023","10.095484","2.004981","0.107666","0.636426","0.078955","-0.003589","0.049048","0.647192"
"H","1617445714.5480282","7","27","-1","-36","46","26","0.771545","0.630188","-0.067505","0.05426","-0.007634","-0.007634","0","1.804004","10.090698","2.040869","0.112451","0.631641","0.114844","0","0.013159","0.650781"
"H","1617445714.538065","7","28","0","-35","42","26","0.771484","0.630249","-0.067383","0.05426","-0.015267","-0.007634","0","1.765723","10.114624","2.040869","0.075366","0.655566","0.11604","-0.039478","0.016748","0.667529"
"H","1617445714.5280244","7","28","1","-36","46","27","0.771362","0.630432","-0.067261","0.054321","-0.022901","-0.007634","-0.007634","1.740601","10.181616","2.06001","0.05144","0.721362","0.13877","-0.075366","0.007178","0.732129"
"H","1617445714.5181327","7","32","-3","-38","44","26","0.771179","0.630676","-0.067261","0.054443","-0.022901","-0.007634","-0.007634","1.708301","10.237842","2.065991","0.017944","0.776392","0.150732","-0.118433","0.005981","0.781177"
"H","1617445714.508256","7","29","0","-36","46","27","0.770996","0.630859","-0.067261","0.054565","-0.015267","0","-0.007634","1.687964","10.242627","2.055225","-0.002393","0.781177","0.144751","-0.13877","0.011963","0.781177"
"H","1617445714.498111","7","29","-1","-37","47","26","0.770935","0.63092","-0.067444","0.054626","-0.007634","0","-0.007634","1.705908","10.225879","2.054028","0.010767","0.764429","0.144751","-0.123218","0.008374","0.768018"
"H","1617445714.488126","7","30","-1","-35","46","29","0.770874","0.630981","-0.067566","0.054626","-0.007634","0","0","1.742993","10.19956","2.045654","0.045459","0.73811","0.13877","-0.084937","0.00957","0.746484"
"H","1617445714.478047","7","29","1","-36","43","27","0.770874","0.630981","-0.067627","0.054565","0","0","0","1.770508","10.16128","2.032495","0.072974","0.699829","0.12561","-0.050244","0.014355","0.711792"
"H","1617445714.4679368","7","29","1","-35","42","27","0.770874","0.630981","-0.067749","0.054443","0","0.007634","0","1.79563","10.143335","2.031299","0.098096","0.681885","0.124414","-0.022729","0.011963","0.698633"
"H","1617445714.4580104","7","29","-1","-36","47","27","0.770935","0.63092","-0.06781","0.05426","-0.007634","0.007634","0","1.808789","10.17085","2.030102","0.112451","0.709399","0.122021","-0.013159","0.020337","0.727344"
"H","1617445714.4480102","7","27","1","-38","44","26","0.770874","0.630981","-0.06781","0.054138","-0.015267","0","0","1.799219","10.23186","2.039673","0.104077","0.769214","0.133984","-0.0323","0.020337","0.785962"
"H","1617445714.4380033","7","32","0","-38","44","28","0.770691","0.631226","-0.06781","0.054016","-0.022901","0","0","1.774097","10.300049","2.031299","0.081348","0.836206","0.131592","-0.065796","0.034692","0.846973"
"H","1617445714.428183","7","27","-1","-37","46","26","0.770508","0.631409","-0.06781","0.053955","-0.015267","0","0.007634","1.760937","10.33833","2.02771","0.068188","0.874487","0.132788","-0.084937","0.040674","0.881665"
"H","1617445714.418074","7","29","-4","-39","44","28","0.770386","0.631592","-0.06781","0.053772","-0.015267","0.007634","0.007634","1.760937","10.352686","2.013355","0.070581","0.88645","0.122021","-0.08374","0.053833","0.891235"
"H","1617445714.40808","7","22","-1","-37","8","27","0.770325","0.631714","-0.067871","0.053589","-0.007634","0.007634","0.015267","1.769312","10.343115","1.99541","0.080151","0.875684","0.107666","-0.071777","0.065796","0.879272"
"H","1617445714.3980668","7","28","-1","-36","47","27","0.770325","0.631714","-0.067871","0.053284","0.007634","0.015267","0.015267","1.781274","10.302442","1.976269","0.095703","0.83501","0.088525","-0.049048","0.076563","0.839795"
"H","1617445714.3879974","7","28","-1","-37","45","27","0.770447","0.631592","-0.067932","0.052917","0.015267","0.015267","0.015267","1.811182","10.25459","1.964307","0.129199","0.787158","0.07417","-0.007178","0.081348","0.796728"
"H","1617445714.3779764","7","28","-3","-36","43","28","0.77063","0.631409","-0.068054","0.052429","0.015267","0.015267","0.015267","1.844678","10.219897","1.945166","0.16748","0.752466","0.050244","0.037085","0.098096","0.764429"
"H","1617445714.3681588","7","32","-1","-36","44","28","0.770813","0.631165","-0.068054","0.052002","0.015267","0.007634","0.015267","1.865015","10.205542","1.929614","0.192603","0.739307","0.028711","0.065796","0.11604","0.752466"
"H","1617445714.3581128","7","29","-1","-39","47","36","0.771057","0.630981","-0.067993","0.051636","0.007634","0","0.007634","1.862622","10.19956","1.912866","0.196191","0.732129","0.007178","0.071777","0.136377","0.741699"
"H","1617445714.3480809","7","29","-1","-35","47","26","0.77124","0.630798","-0.06781","0.051453","0.007634","-0.007634","0.007634","1.843481","10.188794","1.9021","0.181836","0.721362","-0.008374","0.059814","0.149536","0.724951"
"H","1617445714.3380473","7","27","1","-37","44","26","0.771362","0.630615","-0.067688","0.051392","0","-0.007634","0","1.825537","10.178027","1.926025","0.166284","0.711792","0.010767","0.045459","0.129199","0.716577"
"H","1617445714.3282115","7","29","-1","-36","44","26","0.771423","0.630554","-0.067505","0.051392","-0.007634","-0.015267","-0.007634","1.813574","10.18042","1.972681","0.156714","0.714185","0.055029","0.034692","0.087329","0.726147"
"H","1617445714.3181348","7","27","-3","-38","46","28","0.771423","0.630554","-0.067383","0.051453","-0.007634","-0.015267","-0.007634","1.78606","10.168457","2.003784","0.130396","0.702222","0.086133","0.00957","0.053833","0.716577"
"H","1617445714.3081658","7","27","0","-37","47","28","0.771362","0.630615","-0.067383","0.051636","-0.007634","-0.007634","-0.007634","1.769312","10.131372","2.030102","0.111255","0.665137","0.113647","-0.003589","0.020337","0.683081"
"H","1617445714.2982695","7","28","-5","-38","44","27","0.771362","0.630676","-0.067383","0.051697","0","0","-0.007634","1.780078","10.094287","2.045654","0.122021","0.626855","0.130396","0.010767","-0.003589","0.650781"
"H","1617445714.2879517","7","35","-1","-38","48","27","0.771362","0.630615","-0.067444","0.051636","0","0.007634","0","1.806396","10.047632","2.046851","0.14834","0.581396","0.130396","0.044263","-0.011963","0.611304"
"H","1617445714.278134","7","29","1","-38","45","27","0.771362","0.630615","-0.067566","0.051514","0","0.007634","0","1.842285","10.026098","2.01814","0.183032","0.559863","0.102881","0.08374","0.00957","0.590967"
"H","1617445714.2682526","7","28","0","-37","44","26","0.771423","0.630615","-0.067627","0.05127","0","0.007634","0","1.855444","10.039258","1.958325","0.198584","0.571826","0.04187","0.099292","0.070581","0.593359"
"H","1617445714.2585075","7","29","1","-37","44","28","0.771423","0.630554","-0.067688","0.051025","0","0.007634","0","1.861426","10.046435","1.897314","0.206958","0.5802","-0.017944","0.108862","0.131592","0.590967"
"H","1617445714.2482524","7","24","-1","-35","47","35","0.771484","0.630493","-0.067749","0.050842","0","0.007634","0","1.867407","10.040454","1.849463","0.214136","0.574219","-0.066992","0.119629","0.178247","0.576611"
"H","1617445714.238469","7","27","-3","-36","44","27","0.771606","0.630371","-0.067871","0.05072","0","0.007634","-0.007634","1.868603","10.02251","1.811182","0.215332","0.556274","-0.108862","0.124414","0.215332","0.551489"
"H","1617445714.228237","7","29","-3","-34","48","28","0.771667","0.630249","-0.067993","0.050598","-0.007634","0.007634","-0.007634","1.868603","10.040454","1.799219","0.214136","0.575415","-0.123218","0.120825","0.233276","0.567041"
"H","1617445714.2181678","7","29","1","-37","43","26","0.771667","0.630249","-0.068176","0.050537","-0.015267","0.007634","-0.007634","1.861426","10.095484","1.819556","0.205762","0.630444","-0.101685","0.102881","0.223706","0.623267"
"H","1617445714.2082634","7","28","-1","-36","50","29","0.771545","0.630371","-0.068298","0.050476","-0.022901","0.007634","-0.015267","1.856641","10.152905","1.862622","0.19978","0.68667","-0.055029","0.086133","0.189014","0.685474"
"H","1617445714.19822","7","29","0","-37","47","27","0.771362","0.630554","-0.068481","0.050476","-0.030534","0.007634","-0.015267","1.856641","10.194776","1.909277","0.197388","0.72854","-0.003589","0.07417","0.147144","0.735718"
"H","1617445714.188233","7","28","-1","-12","45","27","0.77124","0.630798","-0.068665","0.050476","-0.022901","0.007634","-0.015267","1.848267","10.200757","1.959522","0.185425","0.733325","0.050244","0.059814","0.094507","0.748877"
"H","1617445714.1781726","7","27","-2","-35","42","27","0.771057","0.63092","-0.068848","0.050476","-0.015267","0","-0.007634","1.8375","10.179224","1.993018","0.172266","0.711792","0.088525","0.047852","0.052637","0.733325"
"H","1617445714.1682842","7","29","0","-35","48","27","0.770935","0.631042","-0.06897","0.050476","-0.007634","0","-0.007634","1.842285","10.16128","2.022925","0.174658","0.693848","0.122021","0.05144","0.015552","0.722559"
"H","1617445714.158175","7","28","-1","-38","46","26","0.770935","0.631104","-0.069031","0.050415","-0.007634","0","0","1.843481","10.145727","2.028906","0.175854","0.6771","0.129199","0.055029","0.004785","0.708203"
"H","1617445714.1481018","7","33","0","-34","48","27","0.770874","0.631165","-0.069031","0.050354","-0.007634","0","0","1.836304","10.14812","2.022925","0.169873","0.679492","0.124414","0.049048","0.010767","0.709399"
"H","1617445714.138298","7","25","1","-39","46","27","0.770874","0.631165","-0.069092","0.050232","-0.007634","0.007634","0","1.836304","10.167261","2.015747","0.169873","0.698633","0.117236","0.046655","0.021533","0.726147"
"H","1617445714.1282666","7","32","-3","-39","48","29","0.770813","0.631226","-0.069092","0.05011","-0.007634","0.007634","0","1.833911","10.200757","2.009766","0.169873","0.730933","0.113647","0.04187","0.031104","0.756055"
"H","1617445714.1181912","7","31","-3","-15","48","28","0.770752","0.631348","-0.069153","0.049927","-0.015267","0.007634","0","1.830322","10.25459","2.003784","0.16748","0.783569","0.110059","0.031104","0.044263","0.806299"
"H","1617445714.1082714","7","31","-3","-36","43","29","0.77063","0.63147","-0.069214","0.049805","-0.015267","0","0","1.812378","10.310816","1.991821","0.149536","0.839795","0.101685","0.004785","0.063403","0.855347"
"H","1617445714.0982308","7","29","0","-36","48","31","0.770569","0.631592","-0.069214","0.049744","-0.007634","-0.007634","0","1.783667","10.325171","1.977466","0.122021","0.852954","0.089722","-0.022729","0.077759","0.861328"
"H","1617445714.0884528","7","31","-1","-35","45","29","0.770508","0.631653","-0.069153","0.049805","-0.007634","-0.007634","0","1.752563","10.300049","1.969092","0.090918","0.827832","0.082544","-0.049048","0.080151","0.830225"
"H","1617445714.0781815","7","30","-3","-36","44","28","0.770569","0.631592","-0.069153","0.049866","-0.007634","-0.007634","0","1.747778","10.2833","1.982251","0.084937","0.811084","0.094507","-0.052637","0.065796","0.815869"
"H","1617445714.0681517","7","31","-1","-36","43","27","0.770569","0.631592","-0.069153","0.049866","-0.007634","0","0","1.770508","10.295263","2.010962","0.107666","0.823047","0.123218","-0.033496","0.039478","0.837402"
"H","1617445714.058413","7","28","1","-35","46","28","0.770508","0.631653","-0.069214","0.049805","-0.015267","0","0","1.794434","10.3156","2.031299","0.131592","0.843384","0.144751","-0.014355","0.022729","0.864917"
"H","1617445714.048237","7","29","-1","-35","45","27","0.770386","0.631775","-0.069214","0.049805","-0.007634","0","0","1.8052","10.323975","2.043262","0.142358","0.851758","0.160303","-0.005981","0.008374","0.878076"
"H","1617445714.038247","7","28","1","-36","46","26","0.770325","0.631836","-0.069153","0.049744","0","-0.007634","0","1.81477","10.3156","2.031299","0.154321","0.842188","0.150732","0.007178","0.015552","0.868506"
"H","1617445714.0282636","7","29","-1","-38","43","26","0.770386","0.631836","-0.069031","0.049744","0.007634","-0.015267","0","1.812378","10.289282","2.004981","0.153125","0.815869","0.123218","0.010767","0.037085","0.837402"
"H","1617445714.018457","7","32","-1","-37","48","30","0.770508","0.631653","-0.068787","0.049805","0.015267","-0.022901","0","1.782471","10.240234","1.977466","0.126807","0.768018","0.090918","-0.003589","0.059814","0.781177"
"H","1617445714.008556","7","29","-1","-36","44","26","0.770752","0.631409","-0.068481","0.049927","0.015267","-0.022901","0","1.75376","10.197168","1.946362","0.100488","0.724951","0.052637","-0.021533","0.089722","0.727344"
"H","1617445713.9981847","7","29","-3","-34","44","27","0.770996","0.631165","-0.068176","0.050049","0.015267","-0.022901","0","1.734619","10.160083","1.917651","0.084937","0.689062","0.016748","-0.028711","0.118433","0.683081"
"H","1617445713.9885044","7","22","-1","-39","45","29","0.77124","0.630859","-0.067993","0.050171","0.007634","-0.015267","0","1.747778","10.127783","1.912866","0.099292","0.657959","0.003589","-0.00957","0.12561","0.651978"
"H","1617445713.9781775","7","29","1","-37","42","27","0.771423","0.630615","-0.067871","0.050171","0.007634","0","0","1.78606","10.10625","1.927222","0.13877","0.637622","0.011963","0.0323","0.113647","0.641211"
"H","1617445713.968248","7","29","-3","-38","46","27","0.771545","0.630493","-0.067871","0.05011","0","0","0","1.811182","10.076343","1.939185","0.165088","0.607715","0.021533","0.062207","0.098096","0.618481"
"H","1617445713.9582946","7","29","0","-36","48","26","0.771606","0.630432","-0.067932","0.050049","0","0","-0.007634","1.839893","10.039258","1.936792","0.193799","0.57063","0.016748","0.096899","0.095703","0.586182"
"H","1617445713.948314","7","30","-1","-36","46","28","0.771606","0.630432","-0.068054","0.050049","-0.007634","-0.007634","-0.007634","1.860229","10.009351","1.915259","0.211743","0.540723","-0.003589","0.119629","0.108862","0.556274"
"H","1617445713.9382603","7","27","0","-36","47","27","0.771606","0.630432","-0.068054","0.05011","-0.007634","-0.007634","-0.015267","1.866211","9.983032","1.878174","0.217725","0.514404","-0.040674","0.131592","0.139966","0.525171"
"H","1617445713.9284694","7","27","-1","-35","44","-6","0.771606","0.630371","-0.067993","0.050293","0","-0.015267","-0.015267","1.866211","9.956714","1.8375","0.216528","0.489282","-0.081348","0.136377","0.174658","0.492871"
"H","1617445713.918481","7","28","-3","-36","46","26","0.771667","0.63031","-0.067871","0.050537","0","-0.015267","-0.015267","1.860229","9.928003","1.792041","0.209351","0.461768","-0.129199","0.135181","0.216528","0.455786"
"H","1617445713.908317","7","29","1","-37","44","28","0.77179","0.630127","-0.067749","0.050781","0.007634","-0.015267","-0.007634","1.848267","9.894506","1.750171","0.196191","0.429468","-0.175854","0.129199","0.256006","0.41272"
"H","1617445713.898454","7","29","-1","-37","44","28","0.771973","0.629944","-0.067627","0.050903","0","-0.007634","0","1.849463","9.890918","1.752563","0.197388","0.425879","-0.178247","0.131592","0.258398","0.409131"
"H","1617445713.8883612","7","29","1","-38","44","26","0.772095","0.629822","-0.067505","0.050781","-0.007634","0","0.007634","1.87937","9.930395","1.809985","0.230884","0.465356","-0.124414","0.155518","0.212939","0.462964"
"H","1617445713.878167","7","27","0","-38","46","27","0.772095","0.629822","-0.067444","0.050598","-0.015267","0","0.007634","1.881763","9.977051","1.851856","0.235669","0.512012","-0.082544","0.151929","0.181836","0.516797"
"H","1617445713.8682656","7","29","0","-37","46","27","0.772034","0.629944","-0.067322","0.050354","-0.022901","0","0.007634","1.870996","10.034472","1.88894","0.229687","0.568237","-0.043066","0.135181","0.154321","0.577808"
"H","1617445713.859008","7","29","0","-37","48","29","0.771912","0.630127","-0.0672","0.050171","-0.030534","0","0.007634","1.861426","10.121801","1.926025","0.224902","0.65437","-0.002393","0.114844","0.131592","0.668726"
"H","1617445713.8482392","7","29","-3","-36","47","26","0.771667","0.630432","-0.067078","0.049988","-0.030534","-0.007634","0.007634","1.84707","10.213916","1.965503","0.214136","0.744092","0.044263","0.088525","0.102881","0.763232"
"H","1617445713.8392208","7","29","-1","-39","42","26","0.771484","0.630737","-0.066772","0.049988","-0.030534","-0.022901","0","1.800415","10.267749","1.973877","0.172266","0.795532","0.058618","0.038281","0.099292","0.808691"
"H","1617445713.8283722","7","28","1","-36","45","26","0.771301","0.63092","-0.066406","0.05011","-0.022901","-0.030534","0","1.758545","10.30603","1.990625","0.133984","0.832617","0.078955","-0.004785","0.086133","0.842188"
"H","1617445713.818419","7","28","0","-37","44","27","0.771179","0.631104","-0.06604","0.050293","-0.015267","-0.030534","0","1.726245","10.307226","2.014551","0.105273","0.832617","0.10647","-0.033496","0.059814","0.842188"
"H","1617445713.8089857","7","29","1","-36","42","27","0.771179","0.631165","-0.065613","0.050415","-0.007634","-0.022901","0.007634","1.699927","10.291675","2.045654","0.08374","0.815869","0.137573","-0.052637","0.026318","0.829028"
"H","1617445713.7991765","7","28","-8","-31","47","27","0.771179","0.631165","-0.065308","0.050537","-0.007634","-0.015267","0.007634","1.684375","10.282104","2.099487","0.071777","0.806299","0.191406","-0.0646","-0.027515","0.827832"
"H","1617445713.7890131","7","29","-3","-37","45","29","0.77124","0.631165","-0.065063","0.050476","-0.015267","0","0.007634","1.674805","10.297656","2.188013","0.065796","0.820654","0.278735","-0.076563","-0.110059","0.857739"
"H","1617445713.7789502","7","27","-1","-38","48","26","0.771118","0.631287","-0.065002","0.050293","-0.022901","0.007634","0.007634","1.664038","10.369433","2.300464","0.058618","0.891235","0.394775","-0.098096","-0.210547","0.947461"
"H","1617445713.0294251","7","28","-1","-36","44","26","0.771423","0.630127","-0.072754","0.049377","0.007634","0.015267","-0.015267","2.002588","10.140943","2.033691","0.291895","0.683081","0.120825","0.166284","0.014355","0.733325"
"H","1617445713.019412","7","27","0","-38","43","26","0.771545","0.630005","-0.072998","0.049255","0.007634","0.007634","-0.015267","1.996606","10.118213","2.021729","0.283521","0.661548","0.105273","0.161499","0.025122","0.708203"
"H","1617445713.0094852","7","27","-1","-36","43","27","0.771606","0.629944","-0.07312","0.049194","0","0","-0.007634","1.961914","10.132568","1.988232","0.247632","0.675903","0.070581","0.12561","0.062207","0.708203"
"H","1617445712.9993577","7","27","0","-36","42","28","0.771606","0.629883","-0.073181","0.049133","0","0","-0.007634","1.930811","10.166064","1.955933","0.216528","0.709399","0.037085","0.090918","0.102881","0.72854"
"H","1617445712.9902325","7","31","0","-35","44","26","0.771606","0.629883","-0.073181","0.049133","0","0","-0.007634","1.899707","10.178027","1.920044","0.185425","0.721362","0.001196","0.061011","0.141162","0.72854"
"H","1617445712.980285","7","31","-1","-37","46","27","0.771606","0.629883","-0.073242","0.049133","0","0","-0.007634","1.872192","10.163671","1.885352","0.15791","0.707007","-0.031104","0.037085","0.169873","0.703418"
"H","1617445712.9694154","7","28","-1","-35","47","26","0.771667","0.629761","-0.073364","0.049072","-0.007634","0.007634","0","1.868603","10.134961","1.87937","0.153125","0.679492","-0.039478","0.038281","0.172266","0.673511"
"H","1617445712.9601076","7","31","-1","-37","43","27","0.771729","0.629761","-0.073425","0.04895","-0.007634","0","0","1.862622","10.097876","1.887744","0.147144","0.642407","-0.0323","0.038281","0.15791","0.638818"
"H","1617445712.9501176","7","28","-4","-35","46","29","0.771729","0.6297","-0.073364","0.048889","-0.007634","-0.007634","0","1.836304","10.06438","1.891333","0.122021","0.608911","-0.029907","0.019141","0.149536","0.601733"
"H","1617445712.9401357","7","29","1","-35","46","26","0.77179","0.6297","-0.073242","0.048889","-0.007634","-0.015267","0","1.79563","10.042847","1.9021","0.08374","0.587378","-0.019141","-0.014355","0.135181","0.576611"
"H","1617445712.9301748","7","29","-1","-38","46","27","0.77179","0.6297","-0.073059","0.049011","-0.007634","-0.022901","0","1.75376","10.021314","1.906885","0.043066","0.565845","-0.015552","-0.05144","0.128003","0.550293"
"H","1617445712.920066","7","32","-1","-37","42","27","0.77179","0.6297","-0.072815","0.049133","-0.015267","-0.022901","0","1.71189","10.024902","1.920044","0.003589","0.569434","-0.002393","-0.090918","0.117236","0.549097"
"H","1617445712.9100635","7","28","-1","-34","46","26","0.771729","0.629822","-0.07251","0.049255","-0.015267","-0.022901","0.007634","1.673608","10.047632","1.928418","-0.031104","0.590967","0.005981","-0.129199","0.113647","0.565845"
"H","1617445712.9000998","7","29","0","-38","45","27","0.771667","0.629944","-0.072266","0.049316","-0.022901","-0.015267","0.007634","1.646094","10.058398","1.941577","-0.055029","0.600537","0.021533","-0.155518","0.100488","0.574219"
"H","1617445712.8901038","7","32","0","-38","47","28","0.771545","0.630127","-0.072021","0.049316","-0.022901","-0.007634","0.007634","1.646094","10.075147","1.96311","-0.05144","0.614893","0.046655","-0.155518","0.077759","0.593359"
"H","1617445712.879989","7","31","1","-35","41","28","0.771423","0.63031","-0.07196","0.049255","-0.022901","0","0.015267","1.662842","10.089502","1.981055","-0.033496","0.628052","0.069385","-0.139966","0.057422","0.613696"
"H","1617445712.8701382","7","27","0","-36","43","26","0.77124","0.630493","-0.071899","0.049072","-0.022901","0.007634","0.015267","1.704712","10.100268","2.003784","0.010767","0.637622","0.096899","-0.099292","0.0323","0.635229"
"H","1617445712.8601215","7","29","0","-38","45","38","0.771118","0.630737","-0.071899","0.048767","-0.015267","0.007634","0.015267","1.737012","10.113428","2.012158","0.046655","0.648389","0.110059","-0.066992","0.020337","0.65437"
"H","1617445712.850114","7","32","-3","-38","48","29","0.770935","0.63092","-0.071838","0.048462","-0.015267","0","0.015267","1.75376","10.11941","1.998999","0.068188","0.653174","0.102881","-0.045459","0.027515","0.661548"
"H","1617445712.840132","7","29","-1","-36","45","26","0.770752","0.631165","-0.071716","0.048279","-0.022901","-0.007634","0.007634","1.75376","10.142138","1.971484","0.072974","0.674707","0.080151","-0.043066","0.053833","0.679492"
"H","1617445712.8301897","7","29","0","-38","43","27","0.770569","0.631409","-0.071533","0.048218","-0.030534","-0.015267","0.007634","1.752563","10.205542","1.96311","0.075366","0.735718","0.077759","-0.050244","0.066992","0.73811"
"H","1617445712.8201003","7","25","1","-36","47","27","0.770325","0.631775","-0.071289","0.048279","-0.030534","-0.015267","0","1.73103","10.276123","1.955933","0.056226","0.803906","0.078955","-0.080151","0.078955","0.801514"
"H","1617445712.810237","7","29","-1","-37","44","26","0.770081","0.632019","-0.071045","0.04834","-0.022901","-0.015267","0","1.701123","10.285693","1.946362","0.029907","0.813477","0.075366","-0.107666","0.084937","0.805103"
"H","1617445712.8001077","7","27","-1","-38","43","27","0.77002","0.632141","-0.070923","0.048462","-0.007634","-0.007634","0.007634","1.707104","10.247412","1.942773","0.035889","0.773999","0.07417","-0.094507","0.077759","0.768018"
"H","1617445712.7902071","7","28","0","-37","43","26","0.77002","0.632202","-0.070862","0.04834","0","0","0.007634","1.751367","10.20315","1.958325","0.082544","0.72854","0.089722","-0.04187","0.052637","0.734522"
"H","1617445712.7801","7","27","1","-35","42","26","0.770081","0.632141","-0.070801","0.048096","0","0.007634","0.007634","1.774097","10.17085","1.967896","0.108862","0.69624","0.098096","-0.010767","0.038281","0.709399"
"H","1617445712.7701445","7","29","-3","-38","45","28","0.770081","0.632141","-0.07074","0.047852","0","0.007634","0.007634","1.780078","10.181616","1.966699","0.118433","0.705811","0.096899","-0.002393","0.040674","0.720166"
"H","1617445712.7600915","7","27","-2","-38","46","27","0.770081","0.632141","-0.070679","0.047607","-0.007634","0","0.007634","1.784863","10.206738","1.958325","0.128003","0.730933","0.088525","0.002393","0.053833","0.744092"
"H","1617445712.7501876","7","29","-1","-34","47","26","0.77002","0.632263","-0.070618","0.047363","-0.015267","0","0.007634","1.788452","10.247412","1.954736","0.135181","0.77041","0.087329","0.003589","0.062207","0.783569"
"H","1617445712.7403104","7","29","1","-35","50","28","0.769897","0.632446","-0.070496","0.047241","-0.015267","0","0.007634","1.770508","10.2833","1.923633","0.120825","0.803906","0.061011","-0.013159","0.094507","0.808691"
"H","1617445712.7302392","7","32","-1","-39","44","26","0.769775","0.632568","-0.070435","0.04718","-0.015267","-0.007634","0","1.775293","10.302442","1.92124","0.126807","0.823047","0.062207","-0.010767","0.096899","0.829028"
"H","1617445712.720157","7","29","-1","-38","43","17","0.769714","0.63269","-0.070312","0.047119","-0.015267","-0.007634","0","1.768115","10.310816","1.916455","0.122021","0.830225","0.059814","-0.015552","0.100488","0.833813"
"H","1617445712.7100935","7","30","-1","-38","46","26","0.769592","0.632812","-0.070312","0.047058","-0.015267","0.007634","0","1.782471","10.303638","1.910474","0.137573","0.823047","0.056226","0","0.101685","0.829028"
"H","1617445712.7003927","7","26","1","-38","40","28","0.769531","0.632874","-0.070374","0.046936","-0.015267","0.007634","0.007634","1.821948","10.300049","1.932007","0.178247","0.818262","0.080151","0.039478","0.076563","0.836206"
"H","1617445712.6901357","7","31","0","-36","48","27","0.76947","0.632996","-0.070496","0.046692","-0.015267","0.015267","0.007634","1.860229","10.291675","1.936792","0.217725","0.808691","0.087329","0.078955","0.066992","0.83501"
"H","1617445712.680401","7","26","-3","-38","42","27","0.769409","0.633118","-0.070618","0.046326","-0.007634","0.022901","0.007634","1.898511","10.301245","1.949951","0.258398","0.817065","0.104077","0.117236","0.05144","0.852954"
"H","1617445712.6702774","7","29","-1","-33","46","29","0.769348","0.633179","-0.070801","0.046021","-0.007634","0.015267","0","1.929614","10.309619","1.971484","0.290698","0.825439","0.128003","0.147144","0.028711","0.870898"
"H","1617445712.6602037","7","31","-1","-38","46","27","0.769287","0.63324","-0.070923","0.045654","-0.007634","0","0","1.930811","10.298853","1.973877","0.294287","0.813477","0.132788","0.151929","0.021533","0.861328"
"H","1617445712.65023","7","31","-2","-38","44","26","0.769287","0.633301","-0.070801","0.045532","-0.007634","-0.007634","0","1.887744","10.308423","1.948755","0.25481","0.821851","0.107666","0.113647","0.047852","0.857739"
"H","1617445712.6404383","7","29","-4","-38","50","27","0.769287","0.633301","-0.070557","0.045532","-0.007634","-0.015267","0","1.842285","10.345508","1.930811","0.212939","0.858936","0.089722","0.068188","0.07417","0.882861"
"H","1617445712.6301422","7","29","0","-42","47","27","0.769226","0.633362","-0.070312","0.045593","-0.007634","-0.015267","0","1.796826","10.377808","1.915259","0.169873","0.891235","0.075366","0.021533","0.094507","0.904395"
"H","1617445712.6203537","7","29","0","-37","48","26","0.769226","0.633362","-0.070129","0.045715","0","-0.015267","0","1.775293","10.371826","1.909277","0.149536","0.885254","0.069385","0.002393","0.099292","0.893628"
"H","1617445712.610346","7","29","-1","-42","44","26","0.769348","0.633301","-0.070068","0.045715","0","0","0","1.78606","10.351489","1.915259","0.161499","0.863721","0.071777","0.017944","0.093311","0.875684"
"H","1617445712.6001182","7","28","-1","-36","47","27","0.769409","0.633179","-0.070068","0.045654","0.007634","0.007634","0","1.821948","10.331152","1.932007","0.198584","0.84458","0.086133","0.056226","0.075366","0.866113"
"H","1617445712.590201","7","28","-3","-35","47","26","0.769531","0.633057","-0.070129","0.04541","0.007634","0.007634","0","1.855444","10.3156","1.936792","0.233276","0.829028","0.088525","0.093311","0.069385","0.856543"
"H","1617445712.5803764","7","32","1","-42","46","27","0.769714","0.632874","-0.07019","0.045227","0.007634","0.007634","0","1.87937","10.310816","1.939185","0.258398","0.824243","0.086133","0.119629","0.070581","0.856543"
"H","1617445712.5701406","7","32","-1","-38","47","26","0.769836","0.63269","-0.070129","0.045044","0.007634","0","0","1.875781","10.304834","1.946362","0.258398","0.819458","0.088525","0.119629","0.066992","0.851758"
"H","1617445712.560365","7","28","0","-38","43","28","0.769958","0.632568","-0.070068","0.044922","0.007634","-0.015267","0","1.861426","10.309619","1.94397","0.246436","0.824243","0.08374","0.107666","0.07417","0.85415"
"H","1617445712.550282","7","29","-2","-38","44","26","0.770142","0.632385","-0.069885","0.044983","0.007634","-0.022901","-0.007634","1.829126","10.302442","1.932007","0.216528","0.818262","0.065796","0.080151","0.090918","0.839795"
"H","1617445712.5402362","7","29","-1","-37","43","26","0.770264","0.632263","-0.069702","0.045105","0.007634","-0.022901","-0.007634","1.8052","10.266553","1.914062","0.193799","0.782373","0.044263","0.0646","0.10647","0.796728"
"H","1617445712.5304213","7","29","0","-35","45","26","0.770386","0.63208","-0.069519","0.045288","0.007634","-0.015267","-0.015267","1.796826","10.21272","1.900903","0.185425","0.729736","0.026318","0.065796","0.113647","0.740503"
"H","1617445712.520424","7","30","1","-37","46","27","0.770508","0.631897","-0.069519","0.045471","0.007634","-0.007634","-0.015267","1.802808","10.151709","1.892529","0.189014","0.669922","0.014355","0.078955","0.113647","0.681885"
"H","1617445712.5101714","7","27","1","-37","47","28","0.770691","0.631714","-0.069641","0.045654","0.007634","0","-0.015267","1.821948","10.089502","1.9021","0.204565","0.608911","0.019141","0.104077","0.096899","0.625659"
"H","1617445712.5006745","7","32","-4","-35","48","28","0.770813","0.631531","-0.069824","0.045776","0.007634","0","-0.015267","1.845874","10.038061","1.917651","0.223706","0.558667","0.029907","0.129199","0.076563","0.582593"
"H","1617445712.490176","7","29","-1","-38","45","27","0.770874","0.631409","-0.069946","0.045898","0","-0.007634","-0.022901","1.84707","10.004565","1.928418","0.221313","0.526367","0.038281","0.131592","0.062207","0.552686"
"H","1617445712.48021","7","31","-2","-38","44","26","0.770996","0.631287","-0.070007","0.046143","0","-0.015267","-0.022901","1.821948","9.975855","1.933203","0.192603","0.498853","0.039478","0.107666","0.056226","0.521582"
"H","1617445712.4702656","7","32","-2","-36","47","31","0.771057","0.631104","-0.069946","0.046509","0.007634","-0.022901","-0.022901","1.784863","9.939966","1.934399","0.151929","0.465356","0.037085","0.072974","0.052637","0.482104"
"H","1617445712.4604526","7","31","-1","-40","44","26","0.771179","0.630981","-0.069763","0.046875","0.007634","-0.030534","-0.015267","1.746582","9.905273","1.926025","0.111255","0.43186","0.025122","0.038281","0.058618","0.440234"
"H","1617445712.4502163","7","28","-2","-36","44","28","0.771362","0.630798","-0.069519","0.047241","0.007634","-0.022901","-0.015267","1.710693","9.868189","1.928418","0.075366","0.394775","0.021533","0.00957","0.056226","0.397168"
"H","1617445712.4404268","7","29","-2","-35","47","29","0.771484","0.630615","-0.069397","0.047546","0.007634","-0.015267","-0.007634","1.704712","9.844263","1.934399","0.066992","0.373242","0.022729","0.004785","0.05144","0.375635"
"H","1617445712.430402","7","28","-1","-38","46","28","0.771606","0.630432","-0.069275","0.047729","0","-0.015267","-0.007634","1.69873","9.839478","1.942773","0.061011","0.369653","0.027515","0","0.045459","0.372046"
"H","1617445712.4205697","7","30","-1","-38","44","28","0.771667","0.630371","-0.069214","0.047852","-0.007634","-0.007634","-0.007634","1.683179","9.88374","1.949951","0.044263","0.413916","0.0323","-0.023926","0.050244","0.41272"
"H","1617445712.4104338","7","32","-1","-37","48","29","0.771545","0.630493","-0.069153","0.047913","-0.022901","0","-0.007634","1.666431","9.981836","1.958325","0.027515","0.512012","0.044263","-0.057422","0.058618","0.507227"
"H","1617445712.4004524","7","29","-1","-38","43","27","0.771301","0.630798","-0.069214","0.047974","-0.038168","0","-0.007634","1.667627","10.127783","1.978662","0.027515","0.656763","0.071777","-0.081348","0.059814","0.653174"
"H","1617445712.3904686","7","27","1","-36","45","28","0.770996","0.631165","-0.069214","0.048035","-0.038168","-0.007634","-0.007634","1.660449","10.243823","1.996606","0.019141","0.77041","0.099292","-0.110059","0.055029","0.766821"
"H","1617445712.3802197","7","25","-3","-37","43","26","0.770691","0.631531","-0.069214","0.048096","-0.015267","-0.007634","0","1.64729","10.265356","1.978662","0.005981","0.790747","0.089722","-0.12561","0.068188","0.782373"
"H","1617445712.3703878","7","29","0","-39","48","26","0.77063","0.631653","-0.069214","0.048218","0","0","0","1.666431","10.213916","1.949951","0.023926","0.73811","0.063403","-0.098096","0.082544","0.729736"
"H","1617445712.3604107","7","32","-1","-38","48","29","0.770691","0.631592","-0.069275","0.048157","0.007634","0","0","1.713086","10.152905","1.92124","0.069385","0.6771","0.033496","-0.04187","0.099292","0.672314"
"H","1617445712.3502448","7","29","1","-35","46","26","0.770813","0.631409","-0.069397","0.048096","0.007634","0.007634","0","1.745386","10.11941","1.891333","0.101685","0.6448","0","-0.003589","0.12561","0.640015"
"H","1617445712.3403158","7","29","2","-36","47","26","0.770874","0.631287","-0.069519","0.047974","-0.007634","0.007634","-0.007634","1.780078","10.136157","1.892529","0.135181","0.662744","0","0.025122","0.129199","0.662744"
"H","1617445712.330443","7","28","-1","-38","44","26","0.770813","0.631348","-0.069702","0.047913","-0.030534","0.007634","-0.015267","1.79563","10.224683","1.920044","0.149536","0.75127","0.028711","0.023926","0.118433","0.756055"
"H","1617445712.3203094","7","29","-8","-36","48","28","0.770569","0.631653","-0.069946","0.047974","-0.038168","0.007634","-0.015267","1.782471","10.323975","1.936792","0.131592","0.849365","0.052637","-0.00957","0.113647","0.852954"
"H","1617445712.3105052","7","29","-1","-36","42","29","0.770203","0.632019","-0.07019","0.048096","-0.038168","0.007634","-0.015267","1.775293","10.393359","1.955933","0.119629","0.917554","0.082544","-0.034692","0.096899","0.922339"
"H","1617445712.3005326","7","28","0","-36","44","27","0.769897","0.632385","-0.070496","0.048218","-0.030534","0.007634","-0.015267","1.790845","10.417285","1.972681","0.129199","0.940283","0.107666","-0.031104","0.075366","0.95105"
"H","1617445712.2905483","7","27","0","-37","42","29","0.769714","0.632568","-0.070679","0.048218","-0.015267","0.007634","-0.007634","1.807593","10.398145","1.989429","0.142358","0.921143","0.130396","-0.015552","0.049048","0.939087"
"H","1617445712.2803895","7","30","-1","-37","45","26","0.769653","0.632629","-0.070801","0.048096","0","0","0","1.81477","10.340723","1.993018","0.149536","0.863721","0.136377","0","0.031104","0.88645"
"H","1617445712.270581","7","29","-1","-38","42","31","0.769775","0.632507","-0.070801","0.048035","0.007634","0","0","1.808789","10.294067","1.987036","0.144751","0.817065","0.126807","0.002393","0.0323","0.838599"
"H","1617445712.260443","7","28","-1","-38","44","28","0.769897","0.632324","-0.070862","0.047913","0.007634","0","0","1.811182","10.272534","1.984644","0.147144","0.796728","0.120825","0.008374","0.034692","0.818262"
"H","1617445712.2504082","7","29","-3","-38","46","26","0.770081","0.632141","-0.070862","0.047791","0.007634","0.007634","0","1.829126","10.277319","1.989429","0.166284","0.801514","0.119629","0.026318","0.037085","0.825439"
