timestamp,user_id,flex_1,flex_2,flex_3,flex_4,flex_5,Qw,Qx,Qy,Qz,GYRx,GYRy,GYRz,ACCx,ACCy,ACCz,ACCx_body,ACCy_body,ACCz_body,ACCx_world,ACCy_world,ACCz_world,Alphabet
1616135095.7142775,1,56.0,6.0,-6.0,-3.0,-5.0,0.821899,0.11731,-0.557251,-0.013306,-0.007634,-0.007634,0.0,8.858521,2.052832,3.307739,-0.087329,0.016748,-0.135181,0.088525,0.052637,-0.123218,hello
1616135095.7241187,1,56.0,5.0,-5.0,-6.0,-4.0,0.821899,0.117188,-0.557251,-0.013367,-0.015267,-0.007634,0.0,8.866895,2.040869,3.29458,-0.078955,0.005981,-0.14834,0.105273,0.043066,-0.122021,hello
1616135095.7339756,1,57.0,3.0,-4.0,-2.0,-2.0,0.821899,0.117126,-0.557312,-0.013367,-0.007634,0.0,0.0,8.863306,2.013355,3.269458,-0.08374,-0.019141,-0.173462,0.129199,0.023926,-0.141162,hello
1616135095.7443998,1,57.0,5.0,-6.0,0.0,-2.0,0.821899,0.117004,-0.557312,-0.013367,-0.007634,0.0,0.0,8.857325,1.973877,3.264673,-0.089722,-0.056226,-0.178247,0.135181,-0.008374,-0.155518,hello
1616135095.75414,1,60.0,7.0,-3.0,2.0,-1.0,0.821899,0.117004,-0.557251,-0.013306,0.0,0.0,0.0,8.850146,1.952344,3.256299,-0.095703,-0.077759,-0.187817,0.144751,-0.027515,-0.168677,hello
1616135095.764016,1,55.0,4.0,-4.0,-4.0,-1.0,0.82196,0.117004,-0.557251,-0.013245,0.0,0.0,0.0,8.845362,1.964307,3.256299,-0.101685,-0.0646,-0.189014,0.141162,-0.013159,-0.172266,hello
1616135095.7739468,1,56.0,4.0,-7.0,-2.0,-4.0,0.821899,0.117065,-0.557251,-0.013245,-0.007634,0.0,0.0,8.835791,1.987036,3.257495,-0.110059,-0.043066,-0.186621,0.133984,0.007178,-0.174658,hello
1616135095.784113,1,57.0,4.0,-4.0,-1.0,-6.0,0.821899,0.117004,-0.557312,-0.013245,-0.007634,0.0,0.0,8.84895,1.983447,3.273047,-0.098096,-0.045459,-0.169873,0.123218,0.0,-0.15791,hello
1616135095.7941935,1,57.0,5.0,-6.0,-1.0,-6.0,0.821899,0.116943,-0.557312,-0.013306,-0.007634,0.0,0.0,8.874072,1.967896,3.287402,-0.072974,-0.061011,-0.155518,0.120825,-0.020337,-0.132788,hello
1616135095.8040564,1,59.0,5.0,-1.0,0.0,-2.0,0.82196,0.116882,-0.557251,-0.013245,0.0,0.0,0.0,8.886035,1.954736,3.301758,-0.061011,-0.071777,-0.143555,0.11604,-0.034692,-0.120825,hello
1616135095.8140025,1,56.0,3.0,-6.0,-2.0,-6.0,0.82196,0.116943,-0.55719,-0.013245,0.0,0.0,-0.007634,8.887232,1.96311,3.301758,-0.058618,-0.0646,-0.143555,0.11604,-0.027515,-0.117236,hello
1616135095.8241534,1,56.0,-4.0,-5.0,-1.0,-3.0,0.822021,0.117004,-0.55719,-0.013245,0.0,0.0,-0.007634,8.877661,1.973877,3.308936,-0.068188,-0.055029,-0.137573,0.10647,-0.017944,-0.122021,hello
1616135095.8339648,1,56.0,5.0,-5.0,3.0,-1.0,0.822021,0.117004,-0.557129,-0.013245,-0.007634,0.0,-0.007634,8.877661,1.984644,3.311328,-0.068188,-0.044263,-0.136377,0.104077,-0.008374,-0.118433,hello
1616135095.844318,1,56.0,1.0,-6.0,-1.0,-3.0,0.822021,0.117004,-0.557129,-0.013306,-0.007634,0.0,-0.007634,8.875269,1.997803,3.306543,-0.069385,-0.0323,-0.141162,0.10647,0.003589,-0.119629,hello
1616135095.8540275,1,56.0,4.0,-5.0,-1.0,-6.0,0.822021,0.116943,-0.55719,-0.013367,-0.007634,0.0,-0.007634,8.871679,1.997803,3.300561,-0.07417,-0.0323,-0.145947,0.108862,0.004785,-0.12561,hello
1616135095.8642857,1,56.0,6.0,-4.0,-2.0,-5.0,0.822021,0.116882,-0.55719,-0.013428,-0.007634,0.0,-0.007634,8.870483,1.991821,3.301758,-0.075366,-0.037085,-0.144751,0.107666,0.0,-0.126807,hello
1616135095.8739667,1,59.0,5.0,-2.0,-3.0,-3.0,0.822021,0.116821,-0.55719,-0.013428,-0.007634,0.0,-0.007634,8.866895,1.983447,3.30415,-0.078955,-0.044263,-0.142358,0.105273,-0.004785,-0.130396,hello
1616135095.8839917,1,59.0,6.0,-4.0,-1.0,-3.0,0.822021,0.116821,-0.55719,-0.013428,0.0,0.0,-0.007634,8.865698,1.975073,3.312524,-0.080151,-0.052637,-0.133984,0.098096,-0.014355,-0.130396,hello
1616135095.8941772,1,57.0,4.0,-4.0,-4.0,-3.0,0.822021,0.116943,-0.55719,-0.013428,0.0,0.0,-0.007634,8.864502,1.98584,3.31731,-0.081348,-0.044263,-0.129199,0.092114,-0.007178,-0.128003,hello
1616135095.904063,1,56.0,3.0,-6.0,-3.0,-4.0,0.822021,0.117004,-0.557129,-0.013428,0.0,0.0,-0.007634,8.864502,2.001392,3.316113,-0.080151,-0.029907,-0.131592,0.093311,0.005981,-0.12561,hello
1616135095.9142368,1,59.0,3.0,-4.0,0.0,-5.0,0.82196,0.117065,-0.557129,-0.013428,0.0,0.0,-0.007634,8.865698,2.014551,3.313721,-0.078955,-0.017944,-0.132788,0.093311,0.017944,-0.122021,hello
1616135095.9239712,1,54.0,1.0,-4.0,-2.0,-3.0,0.82196,0.117065,-0.55719,-0.013489,-0.007634,0.0,-0.007634,8.866895,2.012158,3.290991,-0.077759,-0.020337,-0.154321,0.113647,0.019141,-0.129199,hello
1616135095.9340944,1,55.0,1.0,-8.0,-4.0,-4.0,0.82196,0.117004,-0.557251,-0.01355,-0.007634,0.0,-0.007634,8.870483,1.984644,3.268262,-0.075366,-0.047852,-0.177051,0.13877,-0.003589,-0.139966,hello
1616135095.9440472,1,56.0,1.0,-5.0,-4.0,-3.0,0.821899,0.117004,-0.557251,-0.013611,-0.007634,0.0,-0.007634,8.866895,1.949951,3.222803,-0.077759,-0.082544,-0.221313,0.181836,-0.028711,-0.165088,hello
1616135095.954036,1,59.0,8.0,-3.0,0.0,-1.0,0.821899,0.117004,-0.557312,-0.013611,0.0,0.0,-0.007634,8.853735,1.905689,3.16897,-0.092114,-0.126807,-0.27395,0.229687,-0.059814,-0.205762,hello
1616135095.964089,1,56.0,7.0,-7.0,-5.0,-5.0,0.821899,0.117126,-0.557312,-0.013611,0.0,0.007634,-0.015267,8.857325,1.867407,3.111548,-0.088525,-0.16748,-0.331372,0.288306,-0.089722,-0.230884,hello
1616135095.9739666,1,56.0,5.0,-6.0,-2.0,-2.0,0.821838,0.11731,-0.557312,-0.013611,0.007634,0.007634,-0.015267,8.871679,1.829126,3.045752,-0.07417,-0.208154,-0.395972,0.35769,-0.119629,-0.250024,hello
1616135095.984136,1,58.0,7.0,-2.0,-2.0,-6.0,0.821838,0.117615,-0.557251,-0.013611,0.007634,0.015267,-0.022901,8.911158,1.790845,2.973975,-0.033496,-0.251221,-0.467749,0.443823,-0.155518,-0.246436,hello
1616135095.99396,1,57.0,5.0,-5.0,0.0,-3.0,0.821899,0.117981,-0.557129,-0.013611,0.015267,0.022901,-0.030534,8.975757,1.762134,2.909375,0.0323,-0.285913,-0.533545,0.533545,-0.186621,-0.217725,hello
1616135096.0039103,1,56.0,5.0,-4.0,-3.0,-4.0,0.822021,0.118469,-0.556824,-0.013489,0.022901,0.038168,-0.030534,9.063086,1.723853,2.844775,0.122021,-0.331372,-0.60293,0.636426,-0.23208,-0.169873,hello
1616135096.0142157,1,57.0,4.0,-6.0,-4.0,-5.0,0.822144,0.11908,-0.556458,-0.013245,0.038168,0.045802,-0.030534,9.192286,1.686768,2.801709,0.256006,-0.375635,-0.649585,0.734522,-0.285913,-0.07417,hello
1616135096.0240438,1,59.0,6.0,-3.0,-2.0,-3.0,0.822449,0.119751,-0.555969,-0.012756,0.045802,0.061069,-0.022901,9.380102,1.683179,2.799316,0.447412,-0.385205,-0.660352,0.819458,-0.321802,0.092114,hello
1616135096.0339625,1,57.0,4.0,-5.0,0.0,-3.0,0.822815,0.120483,-0.555237,-0.012146,0.053435,0.076336,-0.015267,9.652857,1.683179,2.843579,0.726147,-0.391187,-0.628052,0.897217,-0.374438,0.355298,hello
1616135096.0439212,1,56.0,5.0,-6.0,-1.0,-4.0,0.823242,0.121155,-0.554443,-0.011353,0.061069,0.091603,-0.015267,9.986621,1.61499,2.891431,1.06709,-0.462964,-0.594556,1.008472,-0.501245,0.660352,hello
1616135096.053989,1,58.0,5.0,-6.0,-4.0,-4.0,0.82373,0.121826,-0.553589,-0.010315,0.076336,0.091603,-0.007634,10.365845,1.475024,2.977563,1.452295,-0.60293,-0.523975,1.111353,-0.705811,1.004883,hello
1616135096.0638835,1,58.0,4.0,-2.0,-2.0,-2.0,0.824158,0.12262,-0.552795,-0.008789,0.099237,0.091603,0.007634,10.74148,1.347021,3.097192,1.832715,-0.72854,-0.417505,1.180737,-0.900806,1.361377,hello
1616135096.0738528,1,57.0,4.0,-5.0,-1.0,-6.0,0.824463,0.123596,-0.552185,-0.006836,0.129771,0.083969,0.030534,11.167358,1.390088,3.282617,2.25979,-0.680689,-0.240454,1.185522,-0.946265,1.823145,hello
1616135096.0838742,1,55.0,4.0,-6.0,-4.0,-3.0,0.824646,0.124573,-0.551697,-0.004395,0.129771,0.068702,0.068702,11.643481,1.552783,3.502734,2.735913,-0.507227,-0.026318,1.159204,-0.881665,2.369849,hello
1616135096.0938246,1,57.0,3.0,-5.0,-2.0,-3.0,0.824768,0.125061,-0.551453,-0.001587,0.114504,0.053435,0.122137,12.178223,1.845874,3.798218,3.267066,-0.192603,0.26438,1.064697,-0.699829,3.025415,hello
1616135096.1040957,1,55.0,5.0,-4.0,-2.0,-2.0,0.825012,0.124634,-0.551208,0.001526,0.061069,0.053435,0.183206,12.717749,2.277734,4.187012,3.80061,0.278735,0.645996,0.863721,-0.375635,3.747974,hello
1616135096.1138675,1,56.0,5.0,-3.0,2.0,-5.0,0.8255,0.122803,-0.550842,0.004761,-0.015267,0.061069,0.251908,13.195068,2.731128,4.620069,4.270752,0.795532,1.062305,0.599341,0.005981,4.431055,hello
1616135096.1239743,1,58.0,5.0,-4.0,-2.0,-6.0,0.826294,0.119324,-0.550415,0.00824,-0.099237,0.068702,0.335878,13.546778,3.075659,5.047143,4.612891,1.230981,1.463062,0.309839,0.350513,4.970581,hello
1616135096.1338196,1,57.0,7.0,-4.0,-1.0,-5.0,0.827271,0.114136,-0.549927,0.012207,-0.167939,0.076336,0.419847,13.738184,3.282617,5.422778,4.79353,1.562353,1.8052,0.026318,0.650781,5.315112,hello
1616135096.143856,1,57.0,4.0,-4.0,-2.0,-5.0,0.828247,0.107666,-0.549622,0.016663,-0.206107,0.061069,0.48855,13.776464,3.31731,5.683569,4.818652,1.748975,2.031299,-0.192603,0.869702,5.440722,hello
1616135096.1537838,1,56.0,4.0,-4.0,-4.0,-6.0,0.828918,0.100464,-0.549805,0.021912,-0.198473,0.030534,0.549618,13.692724,3.173755,5.821143,4.716968,1.776489,2.14375,-0.344531,0.979761,5.377319,hello
1616135096.1637547,1,55.0,7.0,-3.0,-4.0,-6.0,0.829102,0.093323,-0.550537,0.028137,-0.145038,-0.015267,0.59542,13.519262,2.865112,5.874976,4.520776,1.652075,2.18562,-0.456982,0.96062,5.177539,hello
1616135096.1738312,1,57.0,6.0,-3.0,-2.0,-1.0,0.828552,0.086853,-0.551941,0.035706,-0.045802,-0.061069,0.625954,13.312304,2.464355,5.825928,4.2875,1.439136,2.144946,-0.507227,0.862524,4.903589,hello
1616135096.1839287,1,55.0,5.0,-6.0,0.0,-4.0,0.827332,0.081726,-0.553894,0.044617,0.076336,-0.10687,0.648855,13.033569,2.121021,5.69314,3.980054,1.280029,2.03728,-0.540723,0.814673,4.545898,hello
1616135096.193997,1,55.0,4.0,-6.0,-4.0,-5.0,0.825439,0.078125,-0.556335,0.054749,0.19084,-0.152672,0.671756,12.770386,1.918848,5.525659,3.685767,1.251318,1.91167,-0.579004,0.878076,4.206152,hello
1616135096.203853,1,56.0,4.0,-30.0,-5.0,-5.0,0.822998,0.075806,-0.559082,0.065857,0.274809,-0.175573,0.694656,12.506006,1.916455,5.328271,3.389087,1.41521,1.766919,-0.640015,1.116138,3.866406,hello
1616135096.2140002,1,57.0,5.0,-5.0,2.0,-4.0,0.82019,0.074219,-0.561951,0.077393,0.312977,-0.198473,0.709924,12.242823,2.058814,5.128491,3.095996,1.717871,1.625757,-0.736914,1.472632,3.530249,hello
1616135096.2238686,1,58.0,5.0,-2.0,-1.0,-6.0,0.817139,0.072754,-0.564819,0.088928,0.29771,-0.198473,0.732824,11.919825,2.30166,4.914355,2.74668,2.119824,1.471436,-0.870898,1.914062,3.125903,hello
1616135096.233777,1,57.0,5.0,-7.0,-3.0,-3.0,0.814026,0.070801,-0.567688,0.10022,0.251908,-0.198473,0.740458,11.564527,2.572021,4.685864,2.367456,2.55647,1.300366,-1.012061,2.377026,2.673706,hello
1616135096.243851,1,56.0,4.0,-6.0,-1.0,-3.0,0.810974,0.067993,-0.570435,0.110901,0.183206,-0.19084,0.755725,11.17334,2.777783,4.444214,1.958325,2.93689,1.112549,-1.132886,2.774194,2.171265,hello
1616135096.2537718,1,55.0,3.0,-2.0,-5.0,-5.0,0.807922,0.06427,-0.573059,0.121155,0.122137,-0.167939,0.763359,10.79292,2.799316,4.151123,1.564746,3.141455,0.868506,-1.146045,3.002686,1.653271,hello
1616135096.263856,1,57.0,7.0,-6.0,-2.0,-5.0,0.805054,0.059692,-0.575439,0.131165,0.083969,-0.137405,0.763359,10.396948,2.684473,3.841284,1.162793,3.221606,0.600537,-1.095801,3.10437,1.117334,hello
1616135096.2737324,1,57.0,4.0,-6.0,2.0,-4.0,0.802429,0.054565,-0.577332,0.140869,0.053435,-0.099237,0.763359,9.962695,2.483496,3.554175,0.730933,3.219214,0.344531,-1.028809,3.10437,0.558667,hello
1616135096.2837887,1,55.0,4.0,-6.0,-5.0,-4.0,0.799988,0.049072,-0.578735,0.150452,0.038168,-0.061069,0.755725,9.517675,2.228687,3.270654,0.297876,3.165381,0.082544,-0.931909,3.039771,0.003589,hello
1616135096.293193,1,57.0,4.0,-4.0,-4.0,-4.0,0.797791,0.043518,-0.579712,0.159912,0.038168,-0.038168,0.740458,9.012842,1.92124,2.994312,-0.187817,3.057715,-0.18064,-0.821851,2.896216,-0.588574,hello
1616135096.303751,1,59.0,5.0,-6.0,-2.0,-6.0,0.795654,0.038025,-0.580444,0.169128,0.038168,-0.030534,0.717557,8.436231,1.626953,2.76582,-0.741699,2.957227,-0.401953,-0.759644,2.715576,-1.226196,hello
1616135096.31395,1,58.0,5.0,-6.0,-6.0,-5.0,0.793396,0.03241,-0.581116,0.178223,0.030534,-0.038168,0.717557,7.858423,1.317114,2.592358,-1.290796,2.842383,-0.567041,-0.730933,2.485889,-1.830322,hello
1616135096.323394,1,57.0,4.0,-5.0,0.0,-4.0,0.790955,0.026733,-0.581848,0.187317,0.022901,-0.053435,0.717557,7.281812,1.02522,2.438037,-1.836304,2.74668,-0.711792,-0.714185,2.247827,-2.418896,hello
1616135096.333373,1,55.0,5.0,-8.0,-4.0,-6.0,0.788269,0.020935,-0.582825,0.196228,0.015267,-0.076336,0.70229,6.776978,0.79314,2.286108,-2.307642,2.710791,-0.846973,-0.695044,2.063599,-2.940479,hello
1616135096.3430152,1,57.0,5.0,-6.0,-3.0,-3.0,0.785339,0.015198,-0.584045,0.204651,-0.007634,-0.091603,0.679389,6.349902,0.594556,2.155713,-2.700024,2.702417,-0.953442,-0.679492,1.904492,-3.377124,hello
1616135096.3538334,1,59.0,5.0,-3.0,-5.0,-6.0,0.782227,0.00946,-0.585449,0.212646,-0.022901,-0.10687,0.656489,6.002978,0.352905,2.033691,-3.012256,2.647388,-1.045557,-0.630444,1.714282,-3.719263,hello
1616135096.3633876,1,59.0,4.0,-6.0,-4.0,-2.0,0.779175,0.003662,-0.586792,0.220337,-0.022901,-0.099237,0.633588,5.727832,0.007178,1.898511,-3.249121,2.484692,-1.152026,-0.507227,1.445117,-3.962109,hello
1616135096.373809,1,56.0,4.0,-5.0,-4.0,-5.0,0.776245,-0.001831,-0.587769,0.227966,0.0,-0.068702,0.610687,5.482593,-0.374438,1.76333,-3.451294,2.278931,-1.264477,-0.354102,1.147241,-4.153516,hello
1616135096.383787,1,54.0,5.0,-7.0,-2.0,-6.0,0.77356,-0.006958,-0.588196,0.235596,0.038168,-0.038168,0.580153,5.219409,-0.764429,1.616186,-3.66543,2.056421,-1.400854,-0.174658,0.833813,-4.346118,hello
1616135096.3938508,1,57.0,6.0,-3.0,0.0,-13.0,0.771301,-0.011475,-0.588013,0.243286,0.076336,0.0,0.541985,4.944263,-1.140064,1.467847,-3.889136,1.836304,-1.551587,0.011963,0.522778,-4.541113,hello
1616135096.4032454,1,54.0,4.0,-7.0,-5.0,-5.0,0.769348,-0.015259,-0.58728,0.250916,0.122137,0.030534,0.503817,4.666724,-1.467847,1.353003,-4.112842,1.649683,-1.681982,0.16748,0.235669,-4.730127,hello
1616135096.4139063,1,54.0,4.0,-3.0,-4.0,-6.0,0.767761,-0.018555,-0.585999,0.258423,0.145038,0.053435,0.473282,4.433447,-1.735815,1.306348,-4.289893,1.510913,-1.756152,0.259595,-0.004785,-4.8677,hello
1616135096.423159,1,57.0,7.0,-6.0,-5.0,-4.0,0.766418,-0.021667,-0.584351,0.265808,0.152672,0.076336,0.458015,4.231275,-1.935596,1.312329,-4.433447,1.433154,-1.784863,0.291895,-0.193799,-4.976562,hello
1616135096.4338017,1,56.0,4.0,-8.0,-4.0,-5.0,0.765259,-0.024841,-0.582397,0.27301,0.145038,0.083969,0.450382,4.063794,-2.092309,1.356592,-4.537524,1.396069,-1.782471,0.287109,-0.340942,-5.050733,hello
1616135096.443915,1,59.0,4.0,-4.0,-1.0,-4.0,0.764099,-0.028137,-0.580505,0.279907,0.122137,0.091603,0.442748,3.945361,-2.287305,1.421191,-4.59375,1.31831,-1.757349,0.287109,-0.509619,-5.05791,hello
1616135096.453106,1,56.0,3.0,-4.0,-5.0,-2.0,0.762939,-0.031616,-0.578552,0.28656,0.114504,0.083969,0.427481,3.885547,-2.52417,1.525269,-4.587769,1.197485,-1.692749,0.282324,-0.695044,-4.977759,hello
1616135096.4637887,1,58.0,4.0,-4.0,-5.0,-3.0,0.761902,-0.034912,-0.576599,0.292908,0.114504,0.083969,0.396947,3.869995,-2.863916,1.654468,-4.539917,0.966602,-1.604224,0.307446,-0.953442,-4.806689,hello
1616135096.4730425,1,56.0,1.0,-4.0,-4.0,-5.0,0.760864,-0.037903,-0.574585,0.299133,0.137405,0.083969,0.366412,3.885547,-3.267066,1.788452,-4.460962,0.666333,-1.512109,0.364868,-1.246533,-4.575806,hello
1616135096.4833202,1,57.0,1.0,-7.0,-2.0,-6.0,0.759949,-0.040283,-0.572388,0.305298,0.160305,0.083969,0.335878,3.938184,-3.606812,1.958325,-4.346118,0.417505,-1.387695,0.378027,-1.478613,-4.318604,hello
1616135096.4934185,1,57.0,5.0,-6.0,-3.0,-4.0,0.759216,-0.042053,-0.570068,0.311218,0.183206,0.076336,0.305344,4.012353,-3.861621,2.141357,-4.21333,0.240454,-1.253711,0.356494,-1.634131,-4.070971,hello
1616135096.5030918,1,58.0,5.0,-4.0,-2.0,-6.0,0.758545,-0.043274,-0.567749,0.316895,0.19084,0.068702,0.274809,4.12959,-4.031494,2.338745,-4.042261,0.137573,-1.106567,0.299072,-1.705908,-3.817358,hello
1616135096.5132153,1,57.0,4.0,-5.0,-4.0,-5.0,0.757935,-0.044189,-0.565491,0.322144,0.183206,0.053435,0.244275,4.212134,-4.117627,2.545703,-3.909473,0.108862,-0.947461,0.193799,-1.735815,-3.623559,hello
1616135096.523246,1,55.0,3.0,-4.0,-3.0,-5.0,0.757385,-0.044739,-0.56366,0.326538,0.152672,0.030534,0.175573,4.264771,-4.2229,2.780176,-3.816162,0.047852,-0.752466,0.065796,-1.815967,-3.438135,hello
1616135096.5332415,1,56.0,5.0,-4.0,0.0,-4.0,0.757019,-0.044922,-0.562378,0.329468,0.10687,0.0,0.076336,4.328174,-4.520776,3.095996,-3.725244,-0.22251,-0.46416,-0.050244,-2.07915,-3.131885,hello
1616135096.54346,1,57.0,6.0,-6.0,-1.0,-6.0,0.756958,-0.045166,-0.561646,0.330811,0.045802,-0.015267,-0.022901,4.402344,-5.033984,3.390283,-3.636719,-0.721362,-0.185425,-0.057422,-2.509815,-2.733521,hello
1616135096.5537074,1,56.0,1.0,-5.0,-4.0,-5.0,0.756958,-0.045532,-0.561462,0.331177,0.007634,-0.038168,-0.068702,4.511206,-5.642896,3.640308,-3.523071,-1.321899,0.059814,0.013159,-2.990723,-2.283716,hello
1616135096.5630057,1,57.0,5.0,-3.0,-2.0,-6.0,0.756714,-0.045837,-0.561523,0.331604,0.022901,-0.061069,-0.061069,4.672705,-6.163281,3.81377,-3.356787,-1.832715,0.234473,0.117236,-3.349609,-1.854248,hello
1616135096.5734537,1,58.0,7.0,-7.0,-5.0,-4.0,0.756104,-0.045654,-0.561646,0.332764,0.076336,-0.083969,-0.030534,4.85813,-6.404932,3.914258,-3.166577,-2.064795,0.337354,0.168677,-3.457275,-1.555176,hello
1616135096.5830388,1,55.0,3.0,-5.0,-1.0,-4.0,0.755371,-0.044495,-0.561707,0.334473,0.129771,-0.099237,-0.022901,5.020825,-6.316406,3.964502,-3.002686,-1.975073,0.387598,0.122021,-3.311328,-1.441528,hello
1616135096.5931091,1,56.0,4.0,-2.0,0.0,-1.0,0.754822,-0.042542,-0.561707,0.33606,0.152672,-0.10687,-0.045802,5.129687,-6.03169,4.006372,-2.899805,-1.702319,0.424683,-0.004785,-3.054126,-1.467847,hello
1616135096.6029525,1,56.0,4.0,-3.0,-3.0,-7.0,0.754272,-0.040283,-0.561829,0.33728,0.129771,-0.114504,-0.061069,5.135669,-5.787646,4.026709,-2.903394,-1.477417,0.44502,-0.113647,-2.886646,-1.569531,hello
1616135096.6132853,1,63.0,4.0,-6.0,-3.0,-3.0,0.753601,-0.038452,-0.562378,0.338196,0.10687,-0.137405,-0.076336,4.919141,-5.924024,3.920239,-3.131885,-1.628149,0.346924,0.021533,-3.093604,-1.732227,hello
1616135096.6231496,1,59.0,1.0,-5.0,-1.0,-3.0,0.752502,-0.037048,-0.563416,0.338989,0.091603,-0.160305,-0.099237,4.518384,-6.504224,3.651074,-3.544605,-2.214331,0.099292,0.470142,-3.686963,-1.910474,hello
1616135096.6332088,1,56.0,1.0,-4.0,-5.0,-6.0,0.750977,-0.035767,-0.565002,0.339905,0.122137,-0.19084,-0.152672,3.957324,-7.683764,3.20127,-4.120019,-3.392676,-0.31582,1.332666,-4.764819,-2.022925,hello
1616135096.643093,1,57.0,5.0,-7.0,-2.0,-3.0,0.749023,-0.03363,-0.567017,0.341064,0.21374,-0.236641,-0.251908,3.288599,-9.442309,2.525366,-4.810278,-5.157202,-0.949854,2.667725,-6.266162,-2.057617,hello
1616135096.6531727,1,59.0,4.0,-4.0,-1.0,-1.0,0.746826,-0.02948,-0.569397,0.342285,0.351145,-0.290076,-0.40458,2.621069,-11.391065,1.726245,-5.514893,-7.139453,-1.701123,4.244433,-7.870386,-2.076758,hello
1616135096.6632092,1,55.0,1.0,-5.0,-1.0,-4.0,0.745056,-0.022522,-0.571777,0.342651,0.480916,-0.305344,-0.625954,2.052832,-13.461841,0.894824,-6.145337,-9.292773,-2.485889,5.977857,-9.505713,-2.045654,hello
1616135096.6733675,1,57.0,5.0,-4.0,-5.0,-4.0,0.744324,-0.012329,-0.573853,0.341309,0.587786,-0.290076,-0.89313,1.692749,-15.089991,0.105273,-6.596338,-11.070459,-3.235962,7.543799,-10.723536,-2.142554,hello
1616135096.6829774,1,56.0,3.0,-6.0,-4.0,-3.0,0.745728,0.001038,-0.574951,0.336609,0.618321,-0.206107,-1.229008,1.48938,-16.28628,-0.489282,-6.920532,-12.507202,-3.808984,8.780762,-11.657837,-2.40813,hello
1616135096.6932423,1,56.0,4.0,-6.0,-5.0,-5.0,0.750122,0.016296,-0.574768,0.32666,0.48855,-0.076336,-1.603053,1.520483,-16.704981,-0.734522,-7.03418,-13.264453,-4.054224,9.315503,-12.119604,-2.856738,hello
1616135096.7031126,1,56.0,3.0,-7.0,-2.0,-3.0,0.758057,0.031921,-0.57312,0.309631,0.206107,0.10687,-1.946565,1.746582,-16.082911,-0.628052,-6.962402,-13.079028,-3.969287,8.935083,-11.956909,-3.531445,hello
1616135096.713143,1,57.0,-3.0,-7.0,-1.0,-4.0,0.769348,0.046204,-0.569763,0.285217,-0.129771,0.305344,-2.236641,1.87937,-14.800488,-0.41272,-6.96958,-12.31101,-3.807788,7.978052,-11.438916,-4.486084,hello
1616135096.7238252,1,57.0,3.0,-6.0,-4.0,-5.0,0.782898,0.059143,-0.56427,0.255188,-0.366412,0.473282,-2.412214,1.815967,-13.083814,-0.059814,-7.138257,-11.168554,-3.54939,6.573608,-10.660131,-5.603418,hello
1616135096.7333276,1,56.0,-1.0,-6.0,-1.0,-5.0,0.797607,0.072083,-0.55603,0.222473,-0.381679,0.603053,-2.496183,1.617383,-11.035767,0.482104,-7.388281,-9.737793,-3.155811,4.844971,-9.55835,-6.671704,hello
1616135096.7433035,1,56.0,4.0,-6.0,0.0,-3.0,0.812317,0.087708,-0.544434,0.18988,-0.175573,0.679389,-2.503817,1.14126,-8.21372,1.321899,-7.852441,-7.583276,-2.516992,2.574414,-7.712476,-7.705298,hello
1616135096.7530618,1,58.0,6.0,-4.0,-5.0,-5.0,0.825867,0.108093,-0.529907,0.159302,0.137405,0.664122,-2.396947,0.350513,-4.226489,2.508618,-8.564234,-4.320996,-1.557568,-0.376831,-4.731323,-8.478101,hello
1616135096.7632391,1,54.0,1.0,-6.0,-4.0,10.0,0.837158,0.132629,-0.514038,0.131653,0.358779,0.534351,-2.129771,-0.478516,1.327881,4.147534,-9.254492,0.477319,-0.128003,-4.10686,-0.288306,-8.302246,hello
1616135096.773038,1,54.0,1.0,-7.0,-4.0,-5.0,0.845581,0.156921,-0.49884,0.106934,0.312977,0.351145,-1.732824,-1.039575,6.174048,6.140552,-9.634912,4.617676,1.701123,-7.553369,3.416602,-6.948047,hello
1616135096.7829154,1,59.0,4.0,-6.0,-3.0,-5.0,0.85199,0.173706,-0.486389,0.085632,-0.030534,0.198473,-1.274809,-0.723755,9.734204,8.17185,-9.137256,7.649072,3.599634,-9.963892,5.920434,-4.538721,hello
1616135096.7933235,1,56.0,4.0,-5.0,-2.0,-2.0,0.857544,0.180786,-0.476929,0.066772,-0.465649,0.137405,-0.854962,0.476123,12.350489,9.774878,-7.775879,9.935181,5.073462,-11.046534,7.750757,-1.666431,hello
1616135096.8030226,1,59.0,5.0,-4.0,0.0,-4.0,0.862793,0.180176,-0.469604,0.050476,-0.755725,0.145038,-0.51145,2.174854,14.272924,10.632617,-5.94436,11.690137,5.791235,-10.875463,9.283203,1.015649,hello
1616135096.813042,1,56.0,4.0,-5.0,0.0,-5.0,0.867432,0.17572,-0.463989,0.037354,-0.824427,0.152672,-0.244275,3.817358,15.684546,10.658936,-4.198975,13.035962,5.683569,-9.849048,10.67688,2.971582,hello
1616135096.8230455,1,57.0,5.0,-6.0,-2.0,-5.0,0.87085,0.171204,-0.4599,0.028076,-0.679389,0.129771,-0.053435,5.250513,16.070948,10.16128,-2.692847,13.40083,5.08064,-8.335742,11.239136,4.099683,hello
1616135096.833042,1,57.0,5.0,-4.0,-6.0,-5.0,0.872925,0.167358,-0.457642,0.023499,-0.427481,0.091603,0.076336,6.520972,14.894995,9.421972,-1.385303,12.241626,4.275537,-6.562842,10.356275,4.440625,hello
1616135096.8429956,1,56.0,5.0,-11.0,-2.0,-5.0,0.873901,0.164856,-0.456726,0.022705,-0.198473,0.053435,0.160305,7.512695,13.028784,8.572607,-0.382812,10.407715,3.392676,-4.885644,8.825025,4.267163,hello
1616135096.8532493,1,56.0,6.0,-6.0,-2.0,-3.0,0.873962,0.163452,-0.45697,0.024353,-0.045802,0.015267,0.198473,8.21372,10.934082,7.706494,0.307446,8.351294,2.522974,-3.418994,7.084424,3.78147,hello
1616135096.8628953,1,59.0,4.0,-7.0,-4.0,-3.0,0.873535,0.16272,-0.457947,0.027283,0.038168,-0.015267,0.198473,8.719751,8.81665,6.900195,0.791943,6.274536,1.728638,-2.142554,5.317505,3.17854,hello
1616135096.8728323,1,55.0,-6.0,-7.0,-5.0,-4.0,0.872803,0.161987,-0.459351,0.030396,0.053435,-0.030534,0.167939,9.114527,6.82124,6.188403,1.159204,4.323389,1.038379,-1.026416,3.654663,2.587573,hello
1616135096.883012,1,57.0,4.0,-6.0,-4.0,-4.0,0.87207,0.161133,-0.460815,0.03302,0.038168,-0.022901,0.114504,9.466235,5.053125,5.590259,1.484595,2.597144,0.461768,-0.050244,2.177246,2.100684,hello
1616135096.8928356,1,58.0,6.0,-4.0,0.0,-4.0,0.871582,0.159973,-0.462097,0.03479,0.007634,0.0,0.053435,9.740186,3.603223,5.092603,1.737012,1.184326,-0.020337,0.759644,0.974976,1.699927,hello
1616135096.902816,1,56.0,5.0,-7.0,-7.0,-5.0,0.871338,0.15863,-0.462891,0.035522,-0.038168,0.022901,0.0,9.881348,2.560059,4.730127,1.865015,0.172266,-0.375635,1.323096,0.120825,1.370947,hello
1616135096.912885,1,55.0,2.0,-6.0,-7.0,-7.0,0.87146,0.157227,-0.463196,0.035217,-0.068702,0.038168,-0.053435,9.889722,1.859033,4.533936,1.868603,-0.50603,-0.575415,1.624561,-0.460571,1.106567,hello
1616135096.9229422,1,56.0,3.0,-7.0,-2.0,-6.0,0.871887,0.155945,-0.462952,0.034241,-0.083969,0.061069,-0.083969,9.78684,1.445117,4.508813,1.770508,-0.907983,-0.613696,1.680786,-0.824243,0.90918,hello
1616135096.9329429,1,57.0,5.0,-6.0,-1.0,-6.0,0.872498,0.154846,-0.46228,0.032959,-0.083969,0.068702,-0.091603,9.595434,1.356592,4.634424,1.589868,-0.991724,-0.50603,1.50852,-0.925928,0.794336,hello
1616135096.9430716,1,56.0,4.0,-6.0,-3.0,-3.0,0.87323,0.154114,-0.461182,0.031616,-0.068702,0.076336,-0.091603,9.358569,1.463062,4.862915,1.369751,-0.888843,-0.301465,1.198682,-0.873291,0.744092,hello
1616135096.952892,1,57.0,3.0,-4.0,-2.0,-4.0,0.874084,0.153503,-0.459839,0.030457,-0.061069,0.083969,-0.068702,9.108545,1.65686,5.136865,1.138867,-0.697437,-0.056226,0.83501,-0.746484,0.72854,hello
1616135096.9627843,1,57.0,5.0,-6.0,-6.0,-5.0,0.874939,0.15332,-0.458374,0.029724,-0.030534,0.083969,-0.053435,8.882446,1.865015,5.417993,0.931909,-0.49646,0.196191,0.478516,-0.6125,0.740503,hello
1616135096.972927,1,55.0,3.0,-6.0,-4.0,-4.0,0.875671,0.153564,-0.456848,0.029419,0.015267,0.076336,-0.038168,8.650366,2.025317,5.648877,0.720166,-0.345728,0.401953,0.166284,-0.510815,0.714185,hello
1616135096.9829648,1,59.0,7.0,-2.0,0.0,-4.0,0.876221,0.154419,-0.455566,0.02948,0.053435,0.053435,-0.030534,8.430249,2.197583,5.807983,0.516797,-0.19021,0.541919,-0.089722,-0.387598,0.661548,hello
1616135096.992834,1,59.0,3.0,-4.0,-5.0,-3.0,0.876404,0.155762,-0.454651,0.029785,0.083969,0.022901,-0.030534,8.223291,2.367456,5.900098,0.321802,-0.04187,0.626855,-0.29668,-0.256006,0.586182,hello
1616135097.0028708,1,60.0,4.0,-4.0,0.0,-4.0,0.876282,0.157593,-0.454224,0.030029,0.10687,-0.015267,-0.038168,8.065381,2.531348,5.940772,0.171069,0.090918,0.671118,-0.44502,-0.132788,0.520386,hello
1616135097.012295,1,59.0,3.0,-6.0,-7.0,-6.0,0.875854,0.159668,-0.454346,0.029968,0.10687,-0.053435,-0.053435,7.951734,2.697632,5.922827,0.057422,0.22251,0.668726,-0.535937,0.0,0.460571,hello
1616135097.0222692,1,59.0,4.0,-7.0,-6.0,-4.0,0.875183,0.161926,-0.454834,0.029602,0.114504,-0.083969,-0.068702,7.901489,2.836401,5.863013,0.004785,0.321802,0.631641,-0.557471,0.107666,0.423486,hello
1616135097.0322251,1,58.0,4.0,-6.0,-1.0,-4.0,0.874329,0.164307,-0.455688,0.029114,0.114504,-0.091603,-0.076336,7.907471,2.929712,5.794824,0.003589,0.373242,0.593359,-0.539526,0.165088,0.413916,hello
1616135097.0422857,1,56.0,7.0,-4.0,-1.0,-4.0,0.873413,0.166626,-0.456604,0.028564,0.10687,-0.099237,-0.076336,7.918237,3.080444,5.687158,0.008374,0.483301,0.517993,-0.500049,0.289502,0.407935,hello
1616135097.0520463,1,58.0,5.0,-3.0,-4.0,-5.0,0.872498,0.168884,-0.457581,0.027893,0.091603,-0.099237,-0.068702,7.969678,3.22041,5.585474,0.05144,0.581396,0.448608,-0.441431,0.397168,0.433057,hello
1616135097.0620522,1,55.0,5.0,-8.0,-2.0,-5.0,0.871643,0.170959,-0.458557,0.027283,0.083969,-0.091603,-0.068702,8.037867,3.32688,5.479004,0.111255,0.650781,0.372046,-0.362476,0.478516,0.460571,hello
1616135097.0724382,1,56.0,0.0,-14.0,-4.0,-6.0,0.870789,0.172913,-0.459351,0.026672,0.083969,-0.076336,-0.061069,8.083325,3.418994,5.372534,0.151929,0.707007,0.294287,-0.289502,0.550293,0.470142,hello
1616135097.0823965,1,57.0,4.0,-6.0,-3.0,-6.0,0.870056,0.174805,-0.460144,0.026184,0.076336,-0.068702,-0.053435,8.107251,3.49436,5.276831,0.169873,0.748877,0.224902,-0.234473,0.607715,0.462964,hello
1616135097.092064,1,57.0,4.0,-7.0,-6.0,-6.0,0.869324,0.176514,-0.460876,0.025879,0.068702,-0.068702,-0.038168,8.123999,3.574512,5.197876,0.18064,0.800317,0.171069,-0.197388,0.671118,0.460571,hello
1616135097.1020494,1,57.0,7.0,-5.0,-6.0,-6.0,0.868652,0.177795,-0.46167,0.025757,0.053435,-0.068702,-0.015267,8.131177,3.646289,5.117724,0.18064,0.851758,0.114844,-0.165088,0.736914,0.447412,hello
1616135097.1124191,1,57.0,5.0,-7.0,-5.0,-6.0,0.867981,0.17865,-0.462646,0.025757,0.030534,-0.076336,0.007634,8.149121,3.702515,5.061499,0.187817,0.896021,0.081348,-0.144751,0.787158,0.449805,hello
1616135097.121956,1,59.0,7.0,-5.0,-4.0,-6.0,0.86731,0.178955,-0.463684,0.025757,-0.007634,-0.076336,0.022901,8.202954,3.753955,5.03877,0.229687,0.945068,0.080151,-0.131592,0.827832,0.497656,hello
1616135097.1328442,1,57.0,5.0,-6.0,-1.0,-1.0,0.866882,0.17865,-0.464661,0.025696,-0.038168,-0.061069,0.030534,8.274732,3.765918,5.024414,0.289502,0.964209,0.081348,-0.102881,0.838599,0.551489,hello
1616135097.1421082,1,57.0,7.0,-5.0,0.0,-6.0,0.866577,0.177856,-0.465515,0.025635,-0.061069,-0.045802,0.038168,8.34292,3.689355,4.982544,0.345728,0.902002,0.050244,-0.033496,0.784766,0.563452,hello
1616135097.152151,1,57.0,3.0,-5.0,-4.0,-3.0,0.866455,0.176636,-0.466248,0.025574,-0.083969,-0.030534,0.045802,8.374023,3.551782,4.902392,0.367261,0.784766,-0.025122,0.062207,0.698633,0.508423,hello
1616135097.1623976,1,58.0,3.0,-6.0,-2.0,-1.0,0.866394,0.175171,-0.466858,0.025635,-0.091603,-0.022901,0.053435,8.346509,3.403442,4.812671,0.330176,0.662744,-0.112451,0.137573,0.618481,0.398364,hello
1616135097.1722045,1,57.0,6.0,-6.0,-4.0,-5.0,0.866333,0.173706,-0.467468,0.025757,-0.083969,-0.022901,0.053435,8.281909,3.253906,4.734912,0.256006,0.539526,-0.189014,0.183032,0.537134,0.263184,hello
1616135097.1821177,1,55.0,5.0,-5.0,3.0,-4.0,0.866272,0.172363,-0.46814,0.025879,-0.076336,-0.030534,0.045802,8.211329,3.1271,4.676294,0.174658,0.437842,-0.245239,0.203369,0.468945,0.139966,hello
1616135097.192135,1,58.0,3.0,-4.0,-4.0,-3.0,0.866089,0.171265,-0.468872,0.025879,-0.061069,-0.045802,0.038168,8.140747,3.044556,4.657153,0.094507,0.374438,-0.258398,0.183032,0.423486,0.049048,hello
1616135097.2020895,1,57.0,5.0,-4.0,-2.0,-4.0,0.865845,0.170532,-0.469666,0.025757,-0.045802,-0.053435,0.022901,8.090503,3.006274,4.661939,0.033496,0.349316,-0.244043,0.142358,0.401953,0.0,hello
1616135107.6899734,1,55.0,0.0,-17.0,-20.0,-12.0,0.791748,0.062378,-0.607117,-0.024475,-0.007634,0.0,0.0,9.175537,1.193897,2.435645,-0.215332,-0.0646,-0.062207,0.005981,-0.034692,-0.229687,hello
1616135107.6992824,1,56.0,0.0,-15.0,-20.0,-9.0,0.791809,0.062317,-0.607117,-0.024414,0.0,-0.007634,0.0,9.175537,1.17356,2.452393,-0.216528,-0.08374,-0.046655,-0.008374,-0.053833,-0.229687,hello
1616135107.7095344,1,55.0,0.0,-16.0,-20.0,-9.0,0.791809,0.062317,-0.607117,-0.024353,0.0,-0.007634,-0.007634,9.181519,1.148438,2.448804,-0.210547,-0.107666,-0.050244,-0.002393,-0.078955,-0.227295,hello
1616135107.7200594,1,57.0,-1.0,-12.0,-18.0,-9.0,0.791809,0.062439,-0.607117,-0.02417,0.007634,0.0,-0.007634,9.188696,1.132886,2.442822,-0.203369,-0.123218,-0.056226,0.004785,-0.094507,-0.224902,hello
1616135107.7294035,1,55.0,0.0,-16.0,-21.0,-8.0,0.791809,0.062561,-0.607056,-0.024109,0.007634,0.0,-0.007634,9.19707,1.152026,2.436841,-0.193799,-0.105273,-0.062207,0.013159,-0.077759,-0.214136,hello
1616135107.7394595,1,54.0,3.0,-14.0,-20.0,-8.0,0.79187,0.062622,-0.606995,-0.024048,0.0,0.0,-0.007634,9.200659,1.184326,2.435645,-0.19021,-0.072974,-0.065796,0.015552,-0.045459,-0.208154,hello
1616135107.7493246,1,55.0,1.0,-16.0,-19.0,-11.0,0.791931,0.062622,-0.606873,-0.02417,-0.007634,0.0,-0.007634,9.199463,1.203467,2.432056,-0.19021,-0.055029,-0.071777,0.020337,-0.027515,-0.206958,hello
1616135107.759155,1,55.0,1.0,-16.0,-17.0,-9.0,0.792053,0.062561,-0.60675,-0.024353,-0.015267,0.007634,-0.007634,9.189893,1.196289,2.420093,-0.198584,-0.063403,-0.087329,0.033496,-0.033496,-0.220117,hello
1616135107.769464,1,56.0,1.0,-17.0,-18.0,-12.0,0.792114,0.062378,-0.606689,-0.024536,-0.022901,0.007634,-0.007634,9.161181,1.156811,2.392578,-0.227295,-0.102881,-0.11604,0.055029,-0.066992,-0.259595,hello
1616135107.77926,1,57.0,3.0,-14.0,-16.0,-8.0,0.792236,0.062195,-0.606506,-0.024719,-0.015267,0.007634,-0.007634,9.13606,1.10896,2.378223,-0.251221,-0.149536,-0.135181,0.069385,-0.110059,-0.294287,hello
1616135107.789391,1,54.0,0.0,-16.0,-17.0,-9.0,0.792358,0.062134,-0.606384,-0.024719,-0.007634,0.007634,-0.007634,9.109741,1.063501,2.374634,-0.276343,-0.194995,-0.142358,0.070581,-0.150732,-0.325391,hello
1616135107.799289,1,54.0,0.0,-16.0,-22.0,-15.0,0.79248,0.062134,-0.606201,-0.024719,0.0,0.007634,-0.007634,9.095386,1.053931,2.368652,-0.289502,-0.204565,-0.151929,0.076563,-0.159106,-0.342139,hello
1616135107.8093135,1,54.0,-1.0,-15.0,-19.0,-9.0,0.792603,0.062256,-0.606079,-0.024719,0.0,0.007634,-0.015267,9.090601,1.080249,2.369849,-0.294287,-0.179443,-0.154321,0.076563,-0.132788,-0.344531,hello
1616135107.81944,1,55.0,1.0,-15.0,-17.0,-9.0,0.792664,0.062378,-0.605896,-0.02478,0.0,0.007634,-0.015267,9.110937,1.100586,2.380615,-0.271558,-0.162695,-0.145947,0.07417,-0.119629,-0.318213,hello
1616135107.8292818,1,56.0,2.0,-12.0,-20.0,-8.0,0.792847,0.0625,-0.605713,-0.024902,-0.007634,0.015267,-0.015267,9.130078,1.100586,2.3854,-0.251221,-0.166284,-0.147144,0.080151,-0.12561,-0.299072,hello
1616135107.8393986,1,59.0,1.0,-16.0,-17.0,-11.0,0.792969,0.0625,-0.605469,-0.025146,-0.015267,0.015267,-0.022901,9.13606,1.094604,2.380615,-0.242847,-0.174658,-0.156714,0.092114,-0.133984,-0.295483,hello
1616135107.8493717,1,56.0,3.0,-12.0,-16.0,-6.0,0.793152,0.0625,-0.605286,-0.025452,-0.015267,0.015267,-0.022901,9.14563,1.06709,2.372241,-0.23208,-0.205762,-0.169873,0.108862,-0.165088,-0.291895,hello
1616135107.859378,1,56.0,1.0,-15.0,-21.0,-12.0,0.793335,0.062622,-0.605042,-0.025757,-0.007634,0.015267,-0.030534,9.156397,1.040771,2.371045,-0.218921,-0.238062,-0.177051,0.119629,-0.197388,-0.285913,hello
1616135107.8693216,1,57.0,5.0,-15.0,-20.0,-11.0,0.793518,0.062805,-0.604736,-0.026001,0.0,0.022901,-0.030534,9.167163,1.033594,2.363867,-0.205762,-0.251221,-0.19021,0.136377,-0.211743,-0.278735,hello
1616135107.8793695,1,54.0,1.0,-14.0,-18.0,0.0,0.79364,0.063171,-0.604492,-0.026245,0.007634,0.022901,-0.038168,9.161181,1.013257,2.353101,-0.209351,-0.279932,-0.205762,0.150732,-0.238062,-0.290698,hello
1616135107.8892689,1,55.0,3.0,-15.0,-21.0,-7.0,0.793823,0.06366,-0.604187,-0.026489,0.015267,0.022901,-0.038168,9.158789,1.016846,2.351904,-0.208154,-0.287109,-0.212939,0.159106,-0.244043,-0.291895,hello
1616135107.8998115,1,54.0,-1.0,-15.0,-20.0,-12.0,0.794067,0.064209,-0.603882,-0.026672,0.015267,0.022901,-0.038168,9.162378,1.051538,2.362671,-0.202173,-0.263184,-0.209351,0.155518,-0.221313,-0.282324,hello
1616135107.9091847,1,55.0,1.0,-16.0,-19.0,-11.0,0.79425,0.064697,-0.603516,-0.026917,0.015267,0.022901,-0.038168,9.154004,1.056323,2.355493,-0.206958,-0.269165,-0.22251,0.16748,-0.224902,-0.291895,hello
1616135107.919506,1,55.0,0.0,-18.0,-16.0,-10.0,0.794495,0.065308,-0.603149,-0.027161,0.015267,0.022901,-0.045802,9.13606,1.009668,2.342334,-0.221313,-0.327783,-0.242847,0.184229,-0.279932,-0.319409,hello
1616135107.9292324,1,55.0,5.0,-16.0,-19.0,-10.0,0.794678,0.06604,-0.602844,-0.027161,0.038168,0.030534,-0.045802,9.130078,0.912769,2.306445,-0.223706,-0.436646,-0.284717,0.228491,-0.384009,-0.34812,hello
1616135107.9393108,1,54.0,4.0,-16.0,-18.0,-8.0,0.794861,0.067139,-0.602478,-0.026978,0.068702,0.030534,-0.053435,9.121704,0.820654,2.251416,-0.228491,-0.543115,-0.345728,0.290698,-0.483301,-0.385205,hello
1616135107.9493,1,54.0,1.0,-14.0,-20.0,-9.0,0.794983,0.068604,-0.602173,-0.02655,0.099237,0.030534,-0.061069,9.125293,0.732129,2.213135,-0.221313,-0.649585,-0.387598,0.337354,-0.584985,-0.405542,hello
1616135107.9592571,1,54.0,0.0,-16.0,-16.0,-11.0,0.795044,0.070557,-0.601807,-0.02594,0.122137,0.038168,-0.068702,9.176733,0.649585,2.173657,-0.165088,-0.754858,-0.428271,0.398364,-0.690259,-0.379224,hello
1616135107.96917,1,56.0,1.0,-16.0,-8.0,-9.0,0.795227,0.072754,-0.601379,-0.025024,0.152672,0.045802,-0.068702,9.207837,0.555078,2.142554,-0.129199,-0.873291,-0.46416,0.451001,-0.806299,-0.373242,hello
1616135107.9791656,1,54.0,0.0,-16.0,-17.0,-1.0,0.795349,0.075256,-0.600952,-0.023926,0.175573,0.045802,-0.068702,9.253296,0.455786,2.104272,-0.078955,-0.998901,-0.504834,0.514404,-0.929517,-0.35769,hello
1616135107.9893408,1,56.0,1.0,-15.0,-20.0,-8.0,0.795471,0.077942,-0.600525,-0.022522,0.19084,0.053435,-0.068702,9.305933,0.325391,2.076758,-0.021533,-1.154419,-0.534741,0.573022,-1.083838,-0.337354,hello
1616135107.9993477,1,54.0,1.0,-13.0,-17.0,-11.0,0.795654,0.08075,-0.599976,-0.020935,0.21374,0.053435,-0.076336,9.394458,0.163892,2.052832,0.070581,-1.34104,-0.563452,0.6448,-1.272852,-0.288306,hello
1616135108.0093038,1,58.0,-1.0,-16.0,-20.0,-9.0,0.795776,0.083862,-0.599487,-0.019165,0.229008,0.061069,-0.076336,9.522461,0.034692,2.031299,0.203369,-1.497754,-0.586182,0.722559,-1.436743,-0.197388,hello
1616135108.019113,1,56.0,0.0,-15.0,-17.0,-13.0,0.795959,0.087097,-0.598755,-0.017395,0.236641,0.068702,-0.091603,9.70669,0.022729,2.091113,0.394775,-1.539624,-0.532349,0.73811,-1.503735,-0.011963,hello
1616135108.0292718,1,54.0,1.0,-14.0,-19.0,-5.0,0.796326,0.090454,-0.597778,-0.01593,0.21374,0.083969,-0.099237,9.962695,0.156714,2.223901,0.660352,-1.441528,-0.410327,0.698633,-1.453491,0.281128,hello
1616135108.039394,1,56.0,-1.0,-16.0,-18.0,-7.0,0.796936,0.093506,-0.596558,-0.014954,0.175573,0.099237,-0.099237,10.276123,0.361279,2.384204,0.984546,-1.274048,-0.267969,0.649585,-1.348218,0.647192,hello
1616135108.049431,1,55.0,1.0,-15.0,-18.0,-12.0,0.797729,0.095947,-0.595154,-0.014404,0.122137,0.10687,-0.091603,10.673291,0.640015,2.591162,1.393677,-1.027612,-0.084937,0.5802,-1.186719,1.120923,hello
1616135108.0593884,1,55.0,1.0,-16.0,-16.0,-9.0,0.798645,0.097534,-0.593628,-0.014038,0.068702,0.114504,-0.061069,11.0896,0.964209,2.82085,1.823145,-0.724951,0.113647,0.49646,-0.978564,1.629346,hello
1616135108.0693195,1,58.0,5.0,-14.0,-20.0,-12.0,0.799683,0.097961,-0.592163,-0.013855,0.0,0.10687,-0.015267,11.495142,1.307544,3.019433,2.239453,-0.387598,0.279932,0.437842,-0.72854,2.125806,hello
1616135108.0792503,1,54.0,1.0,-15.0,-17.0,-11.0,0.800659,0.097229,-0.591003,-0.013672,-0.053435,0.091603,0.038168,11.916235,1.603027,3.20127,2.666528,-0.080151,0.43186,0.399561,-0.503638,2.624658,hello
1616135108.0891757,1,55.0,4.0,-14.0,-16.0,-8.0,0.801575,0.095459,-0.590088,-0.013184,-0.091603,0.076336,0.091603,12.361255,1.807593,3.36875,3.11394,0.154321,0.571826,0.387598,-0.343335,3.1271,hello
1616135108.0993109,1,55.0,5.0,-14.0,-20.0,-7.0,0.802307,0.093018,-0.589478,-0.012207,-0.091603,0.061069,0.145038,12.801489,1.952344,3.525464,3.552979,0.34812,0.705811,0.381616,-0.211743,3.611597,hello
1616135108.1091502,1,54.0,1.0,-14.0,-16.0,-9.0,0.802856,0.090393,-0.589111,-0.010437,-0.068702,0.045802,0.183206,13.175928,2.088721,3.653467,3.923828,0.545508,0.815869,0.375635,-0.055029,4.025513,hello
1616135108.119266,1,55.0,-1.0,-16.0,-21.0,-9.0,0.803284,0.087891,-0.588989,-0.008057,-0.038168,0.030534,0.229008,13.457056,2.339942,3.798218,4.196582,0.862524,0.948657,0.30625,0.234473,4.370044,hello
1616135108.1290858,1,56.0,4.0,-16.0,-18.0,-11.0,0.803467,0.085449,-0.589172,-0.005066,-0.022901,0.007634,0.274809,13.668798,2.694043,3.92981,4.398755,1.2896,1.075464,0.205762,0.649585,4.65835,hello
1616135108.1391337,1,55.0,1.0,-14.0,-20.0,-32.0,0.803406,0.082764,-0.589661,-0.001709,-0.030534,-0.022901,0.328244,13.827906,3.076855,4.032691,4.544702,1.75376,1.180737,0.098096,1.11853,4.884448,hello
1616135108.1491609,1,55.0,1.0,-15.0,-19.0,-8.0,0.80304,0.079346,-0.590637,0.002319,-0.045802,-0.053435,0.396947,13.982226,3.413013,4.094897,4.681079,2.190405,1.254907,0.010767,1.577905,5.078247,hello
1616135108.1591475,1,55.0,5.0,-13.0,-14.0,-11.0,0.802368,0.075134,-0.592041,0.007019,-0.061069,-0.076336,0.473282,14.125781,3.625952,4.09729,4.804297,2.525366,1.277637,-0.028711,1.958325,5.219409,hello
1616135108.1692116,1,55.0,1.0,-14.0,-17.0,-9.0,0.801514,0.070251,-0.59375,0.012634,-0.053435,-0.083969,0.541985,14.207129,3.721655,4.032691,4.861719,2.764624,1.238159,-0.029907,2.270557,5.25769,hello
1616135108.1790483,1,54.0,1.0,-13.0,-20.0,-9.0,0.800415,0.065002,-0.595581,0.019104,-0.030534,-0.091603,0.59542,14.185596,3.725244,3.925025,4.817456,2.927319,1.1604,-0.022729,2.526562,5.170362,hello
1616135108.189167,1,57.0,1.0,-13.0,-16.0,-7.0,0.799133,0.059753,-0.597595,0.02655,0.0,-0.099237,0.648855,14.073145,3.672607,3.795825,4.681079,3.046948,1.064697,-0.028711,2.749072,4.976562,hello
1616135108.1992629,1,56.0,4.0,-12.0,-12.0,-9.0,0.797668,0.054443,-0.599609,0.034851,0.030534,-0.10687,0.70229,13.862597,3.721655,3.679785,4.450195,3.279028,0.984546,-0.094507,3.081641,4.691846,hello
1616135108.209139,1,54.0,1.0,-12.0,-18.0,-10.0,0.796082,0.048706,-0.601624,0.043762,0.015267,-0.114504,0.763359,13.506104,3.828125,3.543408,4.076953,3.584082,0.884058,-0.192603,3.482398,4.251611,hello
1616135108.219011,1,54.0,4.0,-12.0,-20.0,-11.0,0.794189,0.042236,-0.603882,0.052917,-0.015267,-0.137405,0.816794,12.985718,3.942969,3.369946,3.541016,3.910669,0.752466,-0.307446,3.892725,3.624756,hello
1616135108.2290678,1,54.0,1.0,-16.0,-18.0,-8.0,0.791992,0.034912,-0.606384,0.062073,-0.068702,-0.167939,0.854962,12.418676,4.025513,3.22998,2.963208,4.220508,0.660352,-0.462964,4.256396,2.947656,hello
1616135108.2392683,1,54.0,4.0,-12.0,-20.0,-38.0,0.789429,0.026794,-0.609131,0.071167,-0.10687,-0.19084,0.885496,11.863599,3.965698,3.117529,2.400952,4.399951,0.60293,-0.619678,4.462158,2.276538,hello
1616135108.249014,1,57.0,4.0,-12.0,-16.0,-9.0,0.786621,0.018005,-0.611877,0.080322,-0.122137,-0.198473,0.900763,11.304932,3.722852,3.025415,1.842285,4.408325,0.569434,-0.76084,4.46814,1.612598,hello
1616135108.258572,1,55.0,3.0,-12.0,-17.0,-9.0,0.783752,0.008972,-0.614441,0.089844,-0.114504,-0.19084,0.916031,10.719946,3.325684,2.929712,1.264477,4.269556,0.531152,-0.869702,4.297071,0.937891,hello
1616135108.26899,1,55.0,3.0,-16.0,-16.0,-8.0,0.780823,0.0,-0.616638,0.099976,-0.068702,-0.175573,0.923664,10.093091,2.80769,2.82085,0.655566,4.015943,0.47373,-0.939087,3.978858,0.248828,hello
1616135108.2784617,1,56.0,1.0,-12.0,-16.0,-6.0,0.778015,-0.008484,-0.618347,0.11084,-0.007634,-0.152672,0.923664,9.417188,2.238257,2.728735,0.005981,3.710889,0.423486,-1.007275,3.567334,-0.452197,hello
1616135108.2890947,1,57.0,1.0,-14.0,-18.0,-9.0,0.77533,-0.016174,-0.619385,0.122437,0.068702,-0.122137,0.908397,8.667114,1.708301,2.643799,-0.705811,3.439331,0.367261,-1.080249,3.139062,-1.197485,hello
1616135108.2990484,1,56.0,1.0,-14.0,-18.0,-12.0,0.772827,-0.023132,-0.619751,0.13446,0.114504,-0.091603,0.900763,7.853638,1.422388,2.629443,-1.472632,3.405835,0.367261,-1.251318,2.88186,-2.004981,hello
1616135108.3084452,1,54.0,3.0,-13.0,-18.0,-8.0,0.770569,-0.029785,-0.619629,0.14624,0.10687,-0.076336,0.89313,6.999487,1.307544,2.629443,-2.272949,3.532642,0.372046,-1.453491,2.727539,-2.866309,hello
1616135108.3190026,1,54.0,1.0,-14.0,-20.0,-8.0,0.768188,-0.036987,-0.619385,0.157593,0.053435,-0.068702,0.885496,6.162085,1.181934,2.610303,-3.049341,3.651074,0.356494,-1.617383,2.531348,-3.703711,hello
1616135108.3286338,1,57.0,4.0,-12.0,-16.0,-9.0,0.765808,-0.044922,-0.61908,0.168213,-0.007634,-0.061069,0.870229,5.391675,0.936694,2.522974,-3.751563,3.651074,0.27395,-1.664038,2.215527,-4.448999,hello
1616135108.3384705,1,55.0,5.0,-15.0,-14.0,-8.0,0.763306,-0.053406,-0.618652,0.178223,-0.045802,-0.045802,0.839695,4.708594,0.498853,2.392578,-4.359277,3.458472,0.149536,-1.601831,1.723853,-5.043555,hello
1616135108.3484435,1,54.0,4.0,-15.0,-20.0,-9.0,0.760986,-0.062012,-0.617859,0.187805,-0.053435,-0.015267,0.801527,4.165479,-0.142358,2.22749,-4.821045,3.056519,-0.014355,-1.42478,1.070679,-5.421582,hello
1616135108.3591816,1,54.0,3.0,-14.0,-16.0,-8.0,0.758911,-0.070312,-0.616516,0.197388,-0.007634,0.022901,0.755725,3.703711,-0.919946,2.034888,-5.194287,2.511011,-0.217725,-1.165186,0.313428,-5.645288,hello
1616135108.3690145,1,55.0,1.0,-14.0,-14.0,-9.0,0.75708,-0.077759,-0.614624,0.207336,0.068702,0.053435,0.717557,3.300561,-1.685571,1.793237,-5.50293,1.965503,-0.483301,-0.83501,-0.413916,-5.787646,hello
1616135108.3792117,1,54.0,3.0,-15.0,-16.0,-8.0,0.755493,-0.083862,-0.612244,0.217651,0.160305,0.068702,0.664122,3.024219,-2.3854,1.559961,-5.683569,1.467847,-0.754858,-0.489282,-1.038379,-5.805591,hello
1616135108.3891518,1,55.0,5.0,-14.0,-13.0,-9.0,0.754028,-0.088501,-0.609558,0.228088,0.244275,0.076336,0.610687,2.883057,-2.962012,1.335059,-5.729028,1.070679,-1.027612,-0.141162,-1.496558,-5.723047,hello
1616135108.399165,1,56.0,4.0,-15.0,-14.0,-10.0,0.752808,-0.091675,-0.606689,0.238342,0.29771,0.068702,0.549618,2.891431,-3.240747,1.207056,-5.630933,0.945068,-1.213037,0.080151,-1.641309,-5.599829,hello
1616135108.409198,1,54.0,3.0,-15.0,-18.0,-9.0,0.75177,-0.093994,-0.603821,0.247803,0.290076,0.068702,0.496183,3.021826,-3.337646,1.178345,-5.417993,0.979761,-1.301563,0.186621,-1.585083,-5.426367,hello
1616135108.4190402,1,54.0,1.0,-15.0,-16.0,-9.0,0.750916,-0.09613,-0.601074,0.256165,0.244275,0.076336,0.458015,3.22998,-3.348413,1.248926,-5.133276,1.083838,-1.288403,0.184229,-1.435547,-5.203857,hello
1616135108.4290814,1,54.0,3.0,-14.0,-21.0,-11.0,0.750122,-0.098755,-0.59845,0.263367,0.160305,0.083969,0.427481,3.478809,-3.380713,1.375732,-4.809082,1.1604,-1.211841,0.131592,-1.288403,-4.925122,hello
1616135108.438575,1,56.0,2.0,-13.0,-21.0,-9.0,0.74939,-0.102112,-0.596069,0.269531,0.091603,0.091603,0.40458,3.764722,-3.499146,1.530054,-4.450195,1.148438,-1.100586,0.077759,-1.196289,-4.571021,hello
1616135108.448495,1,56.0,3.0,-11.0,-18.0,-7.0,0.748657,-0.106018,-0.593933,0.274841,0.038168,0.091603,0.381679,4.042261,-3.704907,1.674805,-4.100879,1.049145,-0.990527,0.050244,-1.169971,-4.185815,hello
1616135108.4591076,1,55.0,5.0,-13.0,-13.0,-9.0,0.747864,-0.110046,-0.591919,0.279663,0.015267,0.083969,0.358779,4.293481,-4.007568,1.796826,-3.779077,0.849365,-0.898413,0.065796,-1.227393,-3.780273,hello
1616135108.4684827,1,61.0,5.0,-14.0,-20.0,-9.0,0.74707,-0.113708,-0.590149,0.284119,0.022901,0.068702,0.305344,4.432251,-4.448999,1.892529,-3.575708,0.501245,-0.827832,0.129199,-1.452295,-3.404639,hello
1616135108.4787006,1,54.0,1.0,-14.0,-15.0,-9.0,0.74646,-0.116272,-0.588623,0.28772,0.053435,0.045802,0.183206,4.567431,-5.063891,2.074365,-3.387891,-0.043066,-0.668726,0.165088,-1.842285,-2.915356,hello
1616135108.4885015,1,55.0,4.0,-14.0,-20.0,-7.0,0.746582,-0.117493,-0.587219,0.289795,0.061069,0.061069,0.015267,4.599731,-5.920434,2.25022,-3.325684,-0.864917,-0.520386,0.272754,-2.507422,-2.390186,hello
1616135108.498571,1,54.0,5.0,-14.0,-17.0,-11.0,0.747314,-0.118042,-0.585754,0.290649,0.061069,0.068702,-0.076336,4.574609,-6.721948,2.424878,-3.331665,-1.655664,-0.376831,0.362476,-3.174951,-1.939185,hello
1616135108.5086186,1,57.0,5.0,-14.0,-13.0,-8.0,0.747986,-0.11853,-0.584412,0.291443,0.053435,0.045802,-0.061069,4.486084,-7.152612,2.587573,-3.403442,-2.075562,-0.242847,0.345728,-3.579297,-1.734619,hello
1616135108.51838,1,57.0,1.0,-12.0,-12.0,-7.0,0.747986,-0.119263,-0.583557,0.292725,0.038168,-0.007634,0.0,4.382007,-7.070068,2.711987,-3.488379,-1.972681,-0.133984,0.200977,-3.56853,-1.813574,hello
1616135108.5283678,1,56.0,0.0,-14.0,-18.0,-7.0,0.747437,-0.120056,-0.583496,0.294006,0.0,-0.061069,0.030534,4.410718,-6.692041,2.794531,-3.445312,-1.570728,-0.049048,0.011963,-3.241943,-1.954736,hello
1616135108.5384698,1,55.0,7.0,-12.0,-15.0,-9.0,0.746521,-0.120544,-0.584167,0.294861,-0.022901,-0.099237,0.015267,4.602124,-6.26377,2.863916,-3.247925,-1.123315,0.035889,-0.163892,-2.78855,-2.001392,hello
1616135108.5483627,1,54.0,4.0,-13.0,-16.0,-10.0,0.745483,-0.120605,-0.585205,0.295288,-0.022901,-0.114504,0.0,4.884448,-5.86062,2.917749,-2.967993,-0.710596,0.114844,-0.312231,-2.310034,-1.971484,hello
1616135108.559079,1,54.0,5.0,-14.0,-19.0,-6.0,0.744507,-0.1203,-0.586365,0.295532,-0.015267,-0.122137,-0.015267,5.187109,-5.541211,2.920142,-2.671314,-0.388794,0.142358,-0.385205,-1.885352,-1.897314,hello
1616135108.5683303,1,56.0,3.0,-12.0,-20.0,-12.0,0.74353,-0.11969,-0.587646,0.295715,0.0,-0.129771,-0.022901,5.437134,-5.365356,2.878272,-2.432056,-0.214136,0.128003,-0.382812,-1.603027,-1.804004,hello
1616135108.578453,1,55.0,3.0,-14.0,-18.0,-9.0,0.742432,-0.11908,-0.588989,0.296021,0.007634,-0.137405,-0.030534,5.542407,-5.487378,2.775391,-2.336353,-0.336157,0.052637,-0.25481,-1.630542,-1.686768,hello
1616135108.588264,1,55.0,5.0,-15.0,-12.0,-7.0,0.740967,-0.11853,-0.590576,0.296875,0.038168,-0.160305,-0.030534,5.479004,-6.00896,2.546899,-2.40813,-0.850561,-0.141162,0.08374,-2.048047,-1.528857,hello
1616135108.5985928,1,54.0,1.0,-13.0,-16.0,-11.0,0.738953,-0.11792,-0.592407,0.298462,0.083969,-0.19084,-0.030534,5.317505,-6.956421,2.190405,-2.572021,-1.782471,-0.458179,0.661548,-2.826831,-1.252515,hello
1616135108.608444,1,55.0,6.0,-12.0,-15.0,-8.0,0.736328,-0.116943,-0.594543,0.300964,0.160305,-0.229008,-0.053435,5.053125,-8.362061,1.678394,-2.836401,-3.166577,-0.923535,1.519287,-3.986035,-0.849365,hello
1616135108.618201,1,55.0,5.0,-12.0,-16.0,-9.0,0.733154,-0.115051,-0.597107,0.304382,0.259542,-0.282443,-0.114504,4.714575,-10.126587,1.045557,-3.17854,-4.910767,-1.506128,2.617481,-5.432349,-0.33855,hello
1616135108.628251,1,56.0,5.0,-14.0,-12.0,-9.0,0.729736,-0.111694,-0.600037,0.308167,0.351145,-0.320611,-0.229008,4.275537,-12.123194,0.305054,-3.631934,-6.900195,-2.192798,3.922632,-7.083228,0.186621,hello
1616135108.6385946,1,55.0,7.0,-14.0,-12.0,-10.0,0.726624,-0.106506,-0.603271,0.311035,0.412214,-0.328244,-0.419847,3.875977,-13.982226,-0.344531,-4.066186,-8.786743,-2.78855,5.151221,-8.632421,0.666333,hello
1616135108.6483796,1,54.0,4.0,-14.0,-14.0,-11.0,0.724915,-0.099731,-0.606445,0.311035,0.358779,-0.267176,-0.671756,3.59126,-15.442896,-0.759644,-4.416699,-10.32876,-3.155811,6.065186,-9.91604,1.008472,hello
1616135108.6582725,1,55.0,3.0,-14.0,-20.0,-9.0,0.725586,-0.092224,-0.609192,0.306335,0.206107,-0.129771,-0.969466,3.405835,-16.439404,-1.040771,-4.703809,-11.470019,-3.398657,6.676489,-10.926905,1.105371,hello
1616135108.668556,1,59.0,3.0,-12.0,-18.0,-6.0,0.729492,-0.084839,-0.611206,0.295044,-0.053435,0.083969,-1.320611,3.451294,-16.743261,-1.189111,-4.797119,-11.995191,-3.525464,6.861914,-11.460449,0.931909,hello
1616135108.678427,1,55.0,0.0,-11.0,-14.0,-10.0,0.737122,-0.078125,-0.611816,0.276001,-0.358779,0.366412,-1.664122,3.677392,-16.606884,-1.268066,-4.738501,-12.167456,-3.6104,6.730322,-11.741577,0.576611,hello
1616135108.688348,1,56.0,4.0,-14.0,-17.0,-9.0,0.748352,-0.072083,-0.609924,0.250366,-0.541985,0.671756,-1.969466,3.765918,-16.233643,-1.307544,-4.82583,-12.183008,-3.713281,6.386987,-12.026294,-0.107666,hello
1616135108.6985838,1,56.0,5.0,-10.0,-17.0,-6.0,0.762573,-0.064697,-0.604492,0.221008,-0.51145,0.908397,-2.19084,3.328076,-15.319677,-1.119727,-5.426367,-11.733203,-3.675,5.599829,-12.121997,-1.512109,hello
1616135108.70868,1,55.0,6.0,-12.0,-17.0,-23.0,0.778442,-0.053955,-0.595581,0.190796,-0.320611,1.015267,-2.282443,2.434448,-13.408008,-0.512012,-6.450391,-10.357471,-3.301758,4.135571,-11.400635,-3.563745,hello
1616135108.718283,1,55.0,5.0,-12.0,-13.0,-7.0,0.794556,-0.038818,-0.584106,0.161316,-0.10687,1.007634,-2.259542,1.483398,-10.008154,0.683081,-7.489966,-7.555762,-2.399756,1.861426,-9.095386,-5.723047,hello
1616135108.7282262,1,58.0,5.0,-12.0,-14.0,7.0,0.810181,-0.019592,-0.570618,0.132568,0.045802,0.954198,-2.152672,0.72854,-5.300757,2.485889,-8.280713,-3.506323,-0.923535,-1.062305,-5.232568,-7.292578,hello
1616135108.7382386,1,54.0,4.0,-11.0,-17.0,-7.0,0.824402,0.001221,-0.55603,0.10553,0.091603,0.847328,-1.885496,0.203369,0.057422,4.713379,-8.783154,1.186719,0.972583,-4.2552,-0.471338,-7.820142,hello
1616135108.748143,1,57.0,6.0,-11.0,-17.0,-9.0,0.836304,0.020264,-0.541748,0.081787,0.015267,0.679389,-1.442748,-0.08374,5.22898,7.115527,-8.996094,5.764917,3.075659,-7.286597,4.271948,-7.229175,hello
1616135108.7582324,1,54.0,4.0,-15.0,-20.0,-7.0,0.84552,0.033752,-0.529175,0.062744,-0.160305,0.480916,-0.954198,0.019141,9.040357,9.360962,-8.791529,9.131274,5.071069,-9.60979,7.792627,-5.769702,hello
1616135108.768196,1,56.0,4.0,-13.0,-17.0,-6.0,0.852234,0.040833,-0.519348,0.047791,-0.358779,0.29771,-0.549618,0.746484,11.840869,11.009448,-7.966089,11.644678,6.52815,-10.827612,10.462744,-3.86521,hello
1616135108.778219,1,56.0,5.0,-13.0,-16.0,-8.0,0.856873,0.044067,-0.512329,0.036072,-0.419847,0.167939,-0.274809,2.016943,13.898486,11.838476,-6.617871,13.520459,7.220801,-10.888623,12.509595,-1.908081,hello
1616135108.7882824,1,56.0,7.0,-12.0,-16.0,-8.0,0.859863,0.046021,-0.50769,0.027283,-0.374046,0.076336,-0.099237,3.512305,14.988306,11.82771,-5.067481,14.483472,7.120313,-10.002172,13.637695,-0.271558,hello
1616135108.7984178,1,57.0,4.0,-14.0,-14.0,-11.0,0.861023,0.047058,-0.505859,0.022156,-0.244275,-0.030534,0.038168,4.944263,14.377002,11.021411,-3.612793,13.801587,6.280518,-8.401538,13.110132,0.691455,hello
1616135108.8083222,1,56.0,8.0,-17.0,-18.0,-7.0,0.860657,0.047607,-0.50647,0.020691,-0.091603,-0.129771,0.129771,6.278125,12.624438,9.792822,-2.283716,12.026294,5.065088,-6.523364,11.467627,1.180737,hello
1616135108.8184206,1,56.0,11.0,-12.0,-18.0,-6.0,0.859192,0.04834,-0.50885,0.021973,0.045802,-0.175573,0.167939,7.464844,10.406519,8.423071,-1.124512,9.810766,3.743188,-4.65835,9.372925,1.396069,hello
1616135108.8282309,1,54.0,4.0,-12.0,-16.0,-10.0,0.8573,0.0495,-0.511841,0.024353,0.114504,-0.175573,0.145038,8.408716,8.188599,7.06648,-0.215332,7.600024,2.448804,-2.947656,7.286597,1.418799,hello
1616135108.8382597,1,55.0,5.0,-18.0,-16.0,-6.0,0.855347,0.050476,-0.514893,0.026672,0.114504,-0.145038,0.099237,9.115723,6.085523,5.827124,0.456982,5.507715,1.272852,-1.440332,5.323486,1.319507,hello
1616135108.8482134,1,56.0,5.0,-8.0,-17.0,-7.0,0.853638,0.050964,-0.517578,0.02832,0.076336,-0.10687,0.045802,9.654053,4.158301,4.780371,0.965405,3.592456,0.281128,-0.163892,3.530249,1.191504,hello
1616135108.8581705,1,55.0,1.0,-12.0,-16.0,-8.0,0.852356,0.050781,-0.519592,0.029114,0.022901,-0.045802,-0.015267,10.085913,2.513403,3.947754,1.375732,1.960718,-0.508423,0.878076,2.001392,1.101782,hello
1616135108.8681338,1,54.0,4.0,-11.0,-17.0,-12.0,0.851685,0.050293,-0.520813,0.028931,-0.022901,0.015267,-0.076336,10.374219,1.230981,3.362769,1.650879,0.68667,-1.070679,1.629346,0.800317,1.022827,hello
1616135108.8781164,1,56.0,1.0,-4.0,-18.0,-7.0,0.851624,0.049622,-0.520996,0.027588,-0.068702,0.076336,-0.129771,10.502222,0.397168,3.055322,1.778882,-0.14834,-1.374536,2.040869,0.0,0.953442,hello
1616135108.8882406,1,55.0,1.0,-15.0,-55.0,-8.0,0.852173,0.048889,-0.520325,0.025146,-0.114504,0.122137,-0.167939,10.420874,-0.023926,2.9656,1.705908,-0.583789,-1.47981,2.142554,-0.43186,0.811084,hello
1616135108.8981864,1,55.0,5.0,-10.0,-12.0,-7.0,0.853149,0.048096,-0.518982,0.021973,-0.145038,0.137405,-0.183206,10.186401,-0.12561,3.098389,1.486987,-0.705811,-1.376929,1.961914,-0.575415,0.648389,hello
1616135108.9083238,1,55.0,5.0,-10.0,-18.0,-13.0,0.854248,0.047241,-0.517334,0.018555,-0.160305,0.129771,-0.175573,9.917236,-0.004785,3.427368,1.238159,-0.606519,-1.082642,1.577905,-0.515601,0.559863,hello
1616135108.9183586,1,55.0,5.0,-11.0,-16.0,-8.0,0.855469,0.046387,-0.515503,0.015198,-0.152672,0.122137,-0.152672,9.634912,0.251221,3.846069,0.977368,-0.372046,-0.702222,1.102978,-0.324194,0.513208,hello
1616135108.9281862,1,55.0,4.0,-12.0,-20.0,-24.0,0.856689,0.045654,-0.513672,0.012329,-0.137405,0.10687,-0.122137,9.372925,0.564648,4.293481,0.735718,-0.077759,-0.293091,0.610107,-0.069385,0.50603,hello
1616135108.9382966,1,55.0,5.0,-14.0,-17.0,-7.0,0.857788,0.044922,-0.511902,0.01001,-0.122137,0.091603,-0.076336,9.119311,0.898413,4.71936,0.503638,0.242847,0.094507,0.141162,0.218921,0.502441,hello
1616135108.947341,1,54.0,4.0,-15.0,-16.0,-12.0,0.858765,0.044312,-0.510376,0.008301,-0.099237,0.068702,-0.045802,8.912354,1.146045,5.066284,0.313428,0.482104,0.409131,-0.236865,0.435449,0.501245,hello
1616135108.9580472,1,54.0,3.0,-12.0,-19.0,-9.0,0.859497,0.04364,-0.509216,0.007019,-0.091603,0.038168,-0.022901,8.741284,1.36377,5.329468,0.156714,0.698633,0.648389,-0.531152,0.636426,0.494067,hello
1616135108.9683032,1,54.0,6.0,-13.0,-9.0,-8.0,0.859985,0.042908,-0.508484,0.006104,-0.083969,0.007634,-0.007634,8.627637,1.446314,5.456275,0.05144,0.783569,0.759644,-0.680689,0.717773,0.461768,hello
1616135108.97743,1,55.0,3.0,-11.0,-17.0,-9.0,0.860168,0.042297,-0.508179,0.005554,-0.053435,-0.015267,0.007634,8.592944,1.338647,5.481397,0.020337,0.680689,0.777588,-0.704614,0.616089,0.435449,hello
1616135108.9876957,1,56.0,5.0,-13.0,-14.0,-9.0,0.860168,0.041931,-0.50824,0.005493,-0.015267,-0.022901,0.007634,8.559448,1.129297,5.390479,-0.013159,0.476123,0.687866,-0.631641,0.421094,0.349316,hello
1616135108.9980986,1,55.0,5.0,-14.0,-16.0,-7.0,0.859985,0.042175,-0.508545,0.005798,0.038168,-0.030534,0.0,8.563037,0.919946,5.233765,-0.013159,0.266772,0.537134,-0.489282,0.223706,0.263184,hello
1616135109.008185,1,56.0,7.0,-11.0,-12.0,-8.0,0.85968,0.04303,-0.508972,0.006348,0.068702,-0.030534,-0.007634,8.576197,0.764429,5.047143,-0.004785,0.101685,0.360083,-0.321802,0.071777,0.174658,hello
1616135109.018047,1,54.0,3.0,-12.0,-14.0,-8.0,0.859314,0.044312,-0.509399,0.006958,0.091603,-0.030534,-0.022901,8.585767,0.733325,4.860522,0.0,0.056226,0.185425,-0.165088,0.039478,0.092114,hello
1616135109.0280907,1,55.0,7.0,-11.0,-15.0,-9.0,0.859009,0.045654,-0.509888,0.007324,0.068702,-0.030534,-0.022901,8.633618,0.815869,4.70979,0.04187,0.119629,0.045459,-0.026318,0.113647,0.065796,hello
1616135109.0374787,1,54.0,4.0,-14.0,-18.0,-9.0,0.858765,0.046509,-0.510193,0.007446,0.030534,-0.015267,-0.015267,8.724536,0.936694,4.624854,0.129199,0.227295,-0.029907,0.07417,0.223706,0.114844,hello
1616135109.0475805,1,57.0,1.0,-10.0,-16.0,-11.0,0.858704,0.046631,-0.510254,0.007202,-0.030534,0.007634,-0.007634,8.798706,1.041968,4.562646,0.203369,0.328979,-0.090918,0.156714,0.327783,0.15791,hello
1616135109.0582235,1,55.0,4.0,-14.0,-16.0,-8.0,0.858887,0.046021,-0.51001,0.006714,-0.068702,0.022901,0.007634,8.833399,1.082642,4.498047,0.24165,0.374438,-0.161499,0.234473,0.378027,0.161499,hello
1616135109.0673993,1,55.0,5.0,-12.0,-20.0,-10.0,0.859131,0.044861,-0.509705,0.006104,-0.091603,0.030534,0.007634,8.864502,1.07666,4.475317,0.275146,0.381616,-0.192603,0.278735,0.385205,0.175854,hello
1616135109.0774925,1,54.0,4.0,-11.0,-16.0,-9.0,0.859436,0.043579,-0.509338,0.005554,-0.099237,0.030534,0.007634,8.858521,1.035986,4.466943,0.27395,0.356494,-0.210547,0.29668,0.362476,0.163892,hello
1616135109.0873237,1,55.0,6.0,-13.0,-16.0,-10.0,0.859741,0.042297,-0.508972,0.004944,-0.091603,0.030534,0.007634,8.833399,1.020435,4.482495,0.252417,0.356494,-0.204565,0.281128,0.361279,0.147144,hello
1616135109.098135,1,54.0,4.0,-12.0,-16.0,-8.0,0.859924,0.041199,-0.508667,0.004395,-0.083969,0.022901,0.007634,8.799902,1.02522,4.539917,0.22251,0.374438,-0.154321,0.223706,0.376831,0.144751,hello
1616135109.1074142,1,56.0,7.0,-12.0,-7.0,-6.0,0.860168,0.040283,-0.508423,0.003967,-0.068702,0.015267,0.007634,8.75205,1.062305,4.622461,0.177051,0.42229,-0.078955,0.133984,0.419897,0.143555,hello
1616135109.117291,1,54.0,8.0,-12.0,-18.0,-8.0,0.860291,0.039612,-0.508179,0.003662,-0.053435,0.007634,0.015267,8.687451,1.131689,4.699023,0.114844,0.500049,-0.007178,0.038281,0.494067,0.129199,hello
1616135109.1274607,1,56.0,5.0,-12.0,-14.0,-6.0,0.860413,0.039124,-0.508057,0.00354,-0.038168,0.0,0.022901,8.612085,1.208252,4.766016,0.040674,0.582593,0.055029,-0.055029,0.575415,0.098096,hello
1616135109.1374726,1,57.0,6.0,-14.0,-17.0,-8.0,0.860413,0.038818,-0.508057,0.003601,-0.022901,-0.015267,0.030534,8.553467,1.227393,4.819849,-0.016748,0.607715,0.108862,-0.130396,0.598145,0.075366,hello
1616135109.1474588,1,54.0,4.0,-13.0,-17.0,-6.0,0.860352,0.038635,-0.50824,0.003906,-0.007634,-0.022901,0.038168,8.499634,1.241748,4.842578,-0.072974,0.628052,0.133984,-0.18064,0.618481,0.039478,hello
1616135109.1573286,1,54.0,3.0,-12.0,-15.0,-8.0,0.860107,0.038513,-0.508606,0.004395,0.007634,-0.038168,0.038168,8.454175,1.184326,4.818652,-0.123218,0.577808,0.117236,-0.187817,0.57063,-0.015552,hello
1616135109.16759,1,56.0,4.0,-12.0,-14.0,-8.0,0.859741,0.038513,-0.509155,0.005066,0.015267,-0.045802,0.038168,8.432642,1.064697,4.773193,-0.150732,0.465356,0.08374,-0.16748,0.461768,-0.063403,hello
1616135109.1773555,1,56.0,4.0,-12.0,-16.0,-8.0,0.859436,0.038574,-0.509766,0.005798,0.030534,-0.045802,0.030534,8.423071,0.946265,4.733716,-0.16748,0.354102,0.055029,-0.145947,0.352905,-0.098096,hello
1616135111.7644246,1,57.0,5.0,-11.0,-14.0,-6.0,0.7901,0.101318,-0.604492,0.00708,0.0,0.0,0.0,9.224585,1.48938,2.393775,-0.149536,0.003589,-0.04187,0.0,0.026318,-0.151929,hello
1616135111.7744613,1,57.0,7.0,-12.0,-14.0,-7.0,0.7901,0.101318,-0.604431,0.007263,0.007634,0.0,0.007634,9.220996,1.473828,2.388989,-0.153125,-0.008374,-0.047852,0.004785,0.016748,-0.159106,hello
1616135111.7843883,1,56.0,7.0,-12.0,-16.0,-9.0,0.7901,0.101318,-0.604431,0.007446,0.007634,0.0,0.0,9.223389,1.469043,2.390186,-0.150732,-0.010767,-0.046655,0.004785,0.013159,-0.156714,hello
1616135111.7943175,1,54.0,4.0,-10.0,-16.0,-5.0,0.7901,0.101379,-0.604431,0.007629,0.0,0.0,0.0,9.22937,1.464258,2.394971,-0.145947,-0.014355,-0.04187,0.002393,0.008374,-0.151929,hello
1616135111.804427,1,56.0,5.0,-10.0,-12.0,-8.0,0.790161,0.101379,-0.604431,0.007751,0.0,0.0,0.0,9.24851,1.448706,2.403345,-0.126807,-0.028711,-0.034692,0.002393,-0.007178,-0.133984,hello
1616135111.8143375,1,55.0,5.0,-8.0,-9.0,-7.0,0.790161,0.101379,-0.60437,0.007874,0.0,0.0,0.0,9.24851,1.437939,2.391382,-0.126807,-0.038281,-0.046655,0.014355,-0.015552,-0.137573,hello
1616135111.8243246,1,56.0,6.0,-10.0,-13.0,-6.0,0.790161,0.101318,-0.60437,0.007996,0.0,0.0,0.0,9.247314,1.430762,2.380615,-0.128003,-0.043066,-0.057422,0.025122,-0.017944,-0.142358,hello
1616135111.834376,1,55.0,7.0,-12.0,-13.0,-8.0,0.790161,0.101257,-0.604431,0.008057,-0.007634,0.0,0.0,9.265259,1.414014,2.378223,-0.111255,-0.058618,-0.059814,0.034692,-0.034692,-0.129199,hello
1616135111.8442247,1,56.0,10.0,-14.0,-16.0,-7.0,0.790161,0.101257,-0.604431,0.008118,0.0,0.0,0.0,9.282007,1.387695,2.36626,-0.094507,-0.08374,-0.071777,0.053833,-0.058618,-0.120825,hello
1616135111.854483,1,56.0,4.0,-16.0,-13.0,-6.0,0.790161,0.101257,-0.60437,0.008301,0.007634,0.0,0.0,9.307129,1.374536,2.361475,-0.068188,-0.094507,-0.077759,0.068188,-0.071777,-0.098096,hello
1616135111.864409,1,57.0,6.0,-12.0,-14.0,-7.0,0.790222,0.101379,-0.604309,0.008484,0.007634,0.007634,0.0,9.328662,1.398462,2.361475,-0.047852,-0.070581,-0.078955,0.071777,-0.050244,-0.075366,hello
1616135111.8743796,1,57.0,7.0,-10.0,-13.0,-6.0,0.790283,0.101501,-0.604187,0.008728,0.007634,0.007634,0.0,9.356176,1.427173,2.355493,-0.019141,-0.040674,-0.087329,0.082544,-0.022729,-0.045459,hello
1616135111.884199,1,55.0,5.0,-12.0,-10.0,-7.0,0.790344,0.101562,-0.604126,0.008972,0.007634,0.007634,0.007634,9.399243,1.440332,2.341138,0.022729,-0.026318,-0.102881,0.107666,-0.00957,-0.007178,hello
1616135111.8942971,1,57.0,5.0,-8.0,-14.0,-8.0,0.790344,0.101501,-0.604126,0.009277,0.007634,0.007634,0.015267,9.457861,1.449902,2.347119,0.080151,-0.011963,-0.096899,0.114844,-0.003589,0.050244,hello
1616135111.9042988,1,56.0,4.0,-12.0,-14.0,-6.0,0.790344,0.10144,-0.604065,0.009705,0.007634,0.007634,0.022901,9.515284,1.452295,2.354297,0.137573,-0.003589,-0.090918,0.123218,-0.002393,0.107666,hello
1616135111.9141788,1,54.0,7.0,-10.0,30.0,-7.0,0.790405,0.101257,-0.604065,0.010193,0.007634,0.0,0.030534,9.597827,1.449902,2.381812,0.218921,0.001196,-0.0646,0.119629,-0.010767,0.192603,hello
1616135111.924471,1,57.0,5.0,-11.0,-13.0,-6.0,0.790405,0.100952,-0.604065,0.010742,0.0,0.007634,0.038168,9.694727,1.441528,2.424878,0.314624,0.003589,-0.022729,0.105273,-0.025122,0.295483,hello
1616135111.9342866,1,55.0,13.0,-11.0,-16.0,-7.0,0.790527,0.100464,-0.604065,0.011414,0.0,0.007634,0.045802,9.798803,1.439136,2.466748,0.416309,0.016748,0.015552,0.094507,-0.028711,0.404346,hello
1616135111.9441943,1,56.0,8.0,-12.0,-11.0,-6.0,0.790588,0.099792,-0.604004,0.012207,-0.007634,0.007634,0.061069,9.898096,1.428369,2.507422,0.514404,0.026318,0.052637,0.084937,-0.034692,0.508423,hello
1616135111.9542267,1,55.0,4.0,-10.0,-10.0,-9.0,0.790649,0.098877,-0.604065,0.013,-0.015267,0.0,0.068702,10.020117,1.403247,2.551685,0.632837,0.023926,0.094507,0.076563,-0.055029,0.632837,hello
1616135111.9645538,1,56.0,6.0,-10.0,-14.0,-6.0,0.790649,0.097717,-0.604248,0.013977,-0.022901,-0.007634,0.083969,10.176831,1.357788,2.59834,0.785962,0.008374,0.141162,0.075366,-0.090918,0.789551,hello
1616135111.974368,1,48.0,5.0,-10.0,-13.0,-9.0,0.790649,0.096436,-0.604431,0.015076,-0.022901,-0.007634,0.099237,10.379004,1.29917,2.655762,0.98335,-0.015552,0.198584,0.076563,-0.139966,0.989331,hello
1616135111.9842126,1,57.0,6.0,-11.0,-12.0,-7.0,0.790527,0.095032,-0.604797,0.016418,-0.015267,-0.015267,0.114504,10.619458,1.240552,2.725147,1.217822,-0.037085,0.270361,0.072974,-0.19021,1.230981,hello
1616135111.9943545,1,56.0,1.0,-11.0,-17.0,-8.0,0.790344,0.093445,-0.605225,0.018066,-0.015267,-0.022901,0.137405,10.881445,1.208252,2.822046,1.472632,-0.023926,0.372046,0.040674,-0.210547,1.503735,hello
1616135112.0046692,1,56.0,4.0,-11.0,-17.0,-6.0,0.790161,0.091614,-0.605713,0.019958,-0.022901,-0.030534,0.160305,11.117114,1.181934,2.930908,1.699927,0.0,0.485693,-0.010767,-0.216528,1.75376,hello
1616135112.014195,1,55.0,6.0,-12.0,-16.0,-6.0,0.789856,0.089417,-0.606262,0.022156,-0.030534,-0.038168,0.19084,11.31809,1.18313,3.045752,1.892529,0.061011,0.606519,-0.087329,-0.18064,1.977466,hello
1616135112.0244057,1,54.0,6.0,-11.0,-11.0,-6.0,0.789551,0.086731,-0.606995,0.024597,-0.045802,-0.045802,0.221374,11.476001,1.204663,3.166577,2.039673,0.154321,0.735718,-0.189014,-0.105273,2.161694,hello
1616135112.0341296,1,56.0,5.0,-12.0,-17.0,-5.0,0.789062,0.083557,-0.607971,0.027161,-0.068702,-0.061069,0.259542,11.598022,1.205859,3.233569,2.149731,0.236865,0.814673,-0.25481,-0.026318,2.295679,hello
1616135112.0444446,1,55.0,5.0,-8.0,-13.0,-7.0,0.788391,0.079712,-0.609253,0.029846,-0.091603,-0.083969,0.290076,11.693726,1.1927,3.250317,2.232275,0.317017,0.849365,-0.285913,0.062207,2.391382,hello
1616135112.0542564,1,57.0,9.0,-10.0,-16.0,-9.0,0.787415,0.075439,-0.610901,0.032654,-0.114504,-0.10687,0.312977,11.775073,1.144849,3.213233,2.298071,0.37085,0.838599,-0.277539,0.13877,2.453589,hello
1616135112.0642908,1,56.0,5.0,-11.0,-13.0,-6.0,0.786255,0.07074,-0.612854,0.035645,-0.122137,-0.129771,0.335878,11.857617,1.03479,3.14624,2.362671,0.372046,0.805103,-0.242847,0.169873,2.506226,hello
1616135112.0742998,1,57.0,6.0,-11.0,-12.0,-6.0,0.784851,0.065796,-0.61499,0.03894,-0.114504,-0.137405,0.358779,11.927002,0.878076,3.037378,2.415308,0.334961,0.734522,-0.171069,0.171069,2.534936,hello
1616135112.0841706,1,60.0,7.0,-11.0,-16.0,-7.0,0.783264,0.060791,-0.617249,0.042603,-0.099237,-0.145038,0.381679,11.968872,0.734522,2.902197,2.441626,0.31582,0.641211,-0.088525,0.196191,2.53374,hello
1616135112.0942454,1,56.0,6.0,-14.0,-17.0,-7.0,0.781555,0.055786,-0.619568,0.046692,-0.083969,-0.145038,0.396947,11.959302,0.613696,2.735913,2.416504,0.325391,0.520386,0.002393,0.25481,2.479907,hello
1616135112.1040845,1,56.0,12.0,-11.0,-12.0,-8.0,0.779724,0.050964,-0.621887,0.051025,-0.068702,-0.145038,0.412214,11.904272,0.550293,2.574414,2.348315,0.392383,0.405542,0.071777,0.367261,2.3854,hello
1616135112.1142757,1,56.0,5.0,-8.0,-16.0,-7.0,0.777893,0.046143,-0.624207,0.055542,-0.068702,-0.145038,0.427481,11.824121,0.559863,2.423682,2.256201,0.534741,0.301465,0.114844,0.551489,2.268164,hello
1616135112.1237607,1,56.0,9.0,-12.0,-14.0,-6.0,0.776123,0.041138,-0.626404,0.060059,-0.083969,-0.129771,0.442748,11.739184,0.604126,2.30166,2.161694,0.715381,0.224902,0.128003,0.765625,2.150928,hello
1616135112.134118,1,58.0,5.0,-9.0,-13.0,-6.0,0.774414,0.035706,-0.628296,0.064514,-0.10687,-0.114504,0.458015,11.615967,0.626855,2.188013,2.033691,0.879272,0.150732,0.137573,0.96062,1.996606,hello
1616135112.144096,1,55.0,5.0,-12.0,-12.0,-6.0,0.772888,0.029846,-0.630005,0.06897,-0.129771,-0.091603,0.480916,11.452075,0.596948,2.06001,1.867407,0.995313,0.057422,0.16748,1.104175,1.796826,hello
1616135112.1536171,1,57.0,7.0,-8.0,-10.0,-8.0,0.771423,0.023499,-0.631653,0.073425,-0.145038,-0.083969,0.496183,11.217603,0.479712,1.891333,1.632935,1.032398,-0.077759,0.239258,1.166382,1.522876,hello
1616135112.164096,1,57.0,4.0,-11.0,-13.0,-6.0,0.769775,0.016907,-0.63324,0.078186,-0.137405,-0.091603,0.51145,10.984326,0.256006,1.702319,1.403247,0.97019,-0.23208,0.34812,1.124512,1.254907,hello
1616135112.17429,1,57.0,1.0,-10.0,-11.0,-9.0,0.768005,0.010498,-0.634888,0.083496,-0.099237,-0.091603,0.519084,10.786939,-0.038281,1.506128,1.211841,0.842188,-0.391187,0.478516,1.016846,1.032398,hello
1616135112.1841843,1,55.0,7.0,-13.0,-14.0,-8.0,0.766113,0.0047,-0.636475,0.089355,-0.038168,-0.099237,0.51145,10.65415,-0.369653,1.326685,1.088623,0.673511,-0.532349,0.611304,0.868506,0.888843,hello
1616135112.1943274,1,57.0,7.0,-8.0,-16.0,-6.0,0.764099,-0.000183,-0.637939,0.095886,0.038168,-0.091603,0.503817,10.587158,-0.740503,1.154419,1.032398,0.460571,-0.668726,0.757251,0.684277,0.825439,hello
1616135112.2041178,1,56.0,5.0,-8.0,-12.0,-7.0,0.762146,-0.004028,-0.639099,0.103088,0.122137,-0.076336,0.48855,10.534521,-1.082642,0.971387,0.995313,0.267969,-0.821851,0.921143,0.526367,0.781177,hello
1616135112.2143822,1,55.0,7.0,-7.0,-13.0,-7.0,0.760315,-0.006714,-0.639954,0.110901,0.206107,-0.053435,0.465649,10.468725,-1.39248,0.785962,0.946265,0.098096,-0.985742,1.092212,0.392383,0.726147,hello
1616135112.2236774,1,57.0,7.0,-11.0,-10.0,-6.0,0.758789,-0.008423,-0.64032,0.119141,0.259542,-0.030534,0.450382,10.408911,-1.607813,0.656763,0.904395,0.011963,-1.105371,1.210644,0.33855,0.675903,hello
1616135112.2341626,1,57.0,4.0,-11.0,-13.0,-7.0,0.757568,-0.009583,-0.640137,0.12738,0.282443,0.007634,0.427481,10.307226,-1.716675,0.571826,0.825439,0.022729,-1.193897,1.278833,0.368457,0.579004,hello
1616135112.243618,1,55.0,5.0,-11.0,-16.0,-12.0,0.756714,-0.010559,-0.639526,0.135071,0.259542,0.038168,0.40458,10.162476,-1.709497,0.534741,0.704614,0.139966,-1.245337,1.283618,0.483301,0.427075,hello
1616135112.2534227,1,55.0,7.0,-9.0,-13.0,-6.0,0.756226,-0.011902,-0.638672,0.141846,0.198473,0.068702,0.374046,9.963892,-1.609009,0.519189,0.529956,0.342139,-1.282422,1.250122,0.659155,0.205762,hello
1616135112.2634249,1,56.0,9.0,-10.0,-16.0,-6.0,0.756042,-0.013977,-0.637573,0.147278,0.10687,0.091603,0.351145,9.721045,-1.469043,0.537134,0.313428,0.577808,-1.290796,1.175952,0.842188,-0.059814,hello
1616135112.2742631,1,56.0,5.0,-10.0,-14.0,-6.0,0.756226,-0.016907,-0.636353,0.151428,0.015267,0.114504,0.328244,9.396851,-1.394873,0.534741,0.014355,0.744092,-1.323096,1.126904,0.934302,-0.398364,hello
1616135112.2835302,1,56.0,5.0,-10.0,-12.0,-6.0,0.75647,-0.020813,-0.635071,0.154785,-0.053435,0.129771,0.328244,9.015234,-1.369751,0.563452,-0.337354,0.864917,-1.321899,1.049145,0.952246,-0.772803,hello
1616135112.29415,1,55.0,6.0,-12.0,-16.0,-8.0,0.756775,-0.025513,-0.633789,0.157776,-0.099237,0.129771,0.343511,8.600122,-1.338647,0.625659,-0.721362,0.998901,-1.287207,0.931909,0.959424,-1.174756,hello
1616135112.3043172,1,57.0,8.0,-10.0,-11.0,-6.0,0.75708,-0.030579,-0.632446,0.160767,-0.114504,0.129771,0.351145,8.156299,-1.264477,0.697437,-1.131689,1.181934,-1.242944,0.791943,0.994116,-1.613794,hello
1616135112.3135028,1,55.0,5.0,-12.0,-12.0,-6.0,0.757385,-0.035461,-0.631042,0.163818,-0.091603,0.129771,0.358779,7.693335,-1.104175,0.829028,-1.559961,1.44751,-1.140064,0.574219,1.082642,-2.07915,hello
1616135112.3235545,1,55.0,8.0,-10.0,-12.0,-7.0,0.757874,-0.039856,-0.629395,0.166992,-0.068702,0.129771,0.351145,7.244727,-0.864917,1.05752,-1.973877,1.78606,-0.946265,0.252417,1.223804,-2.532544,hello
1616135112.3334413,1,57.0,7.0,-10.0,-14.0,-6.0,0.758606,-0.043762,-0.627319,0.170471,-0.030534,0.145038,0.351145,6.873877,-0.662744,1.366162,-2.306445,2.083935,-0.681885,-0.122021,1.33147,-2.886646,hello
1616135112.3442066,1,55.0,7.0,-11.0,-10.0,-6.0,0.759766,-0.04718,-0.624573,0.1745,0.030534,0.175573,0.358779,6.546094,-0.495264,1.684375,-2.592358,2.342334,-0.425879,-0.483301,1.410425,-3.186914,hello
1616135112.3543196,1,56.0,7.0,-11.0,-13.0,-10.0,0.761353,-0.049805,-0.621094,0.17926,0.099237,0.21374,0.366412,6.248218,-0.297876,2.013355,-2.844775,2.627051,-0.177051,-0.850561,1.518091,-3.463257,hello
1616135112.3641694,1,55.0,6.0,-10.0,-13.0,-7.0,0.763245,-0.051819,-0.616943,0.184692,0.145038,0.236641,0.374046,5.935987,-0.025122,2.317212,-3.105567,2.982349,0.029907,-1.208252,1.683179,-3.773096,hello
1616135112.3736455,1,55.0,7.0,-11.0,-17.0,-7.0,0.765198,-0.053589,-0.612549,0.190552,0.167939,0.236641,0.396947,5.580688,0.247632,2.567236,-3.405835,3.338843,0.178247,-1.526465,1.832715,-4.131982,hello
1616135112.3832796,1,57.0,8.0,-10.0,-13.0,-8.0,0.766907,-0.05542,-0.608337,0.196716,0.160305,0.206107,0.419847,5.262475,0.478516,2.783765,-3.667822,3.657056,0.29668,-1.808789,1.951147,-4.452588,hello
1616135112.3935096,1,52.0,8.0,-10.0,-13.0,-8.0,0.768066,-0.057617,-0.604553,0.202942,0.137405,0.167939,0.435115,5.004077,0.448608,2.924927,-3.867603,3.720459,0.354102,-1.958325,1.857837,-4.649976,hello
1616135112.4037015,1,56.0,5.0,-10.0,-13.0,-6.0,0.768616,-0.060364,-0.601379,0.209473,0.129771,0.129771,0.450382,4.838989,0.120825,2.962012,-3.972876,3.499146,0.321802,-1.928418,1.546802,-4.691846,hello
1616135112.4134817,1,54.0,6.0,-11.0,-13.0,-6.0,0.768555,-0.063354,-0.598755,0.216187,0.129771,0.091603,0.450382,4.768408,-0.399561,2.922534,-3.982446,3.091211,0.228491,-1.76333,1.113745,-4.59375,hello
1616135112.430086,1,55.0,4.0,-11.0,-10.0,-9.0,0.768127,-0.066223,-0.596497,0.223083,0.145038,0.068702,0.435115,4.750464,-1.079053,2.804101,-3.93938,2.525366,0.063403,-1.469043,0.579004,-4.404737,hello
1616135112.4357083,1,54.0,5.0,-12.0,-13.0,-8.0,0.767456,-0.068726,-0.594421,0.230042,0.167939,0.053435,0.40458,4.800708,-1.809985,2.674902,-3.830518,1.903296,-0.10647,-1.132886,0.035889,-4.124804,hello
1616135112.4434388,1,57.0,7.0,-11.0,-17.0,-6.0,0.766724,-0.07074,-0.592407,0.236877,0.19084,0.053435,0.366412,4.902392,-2.507422,2.582788,-3.671411,1.305151,-0.239258,-0.820654,-0.45459,-3.788647,hello
1616135112.453274,1,54.0,7.0,-11.0,-16.0,-7.0,0.766113,-0.072266,-0.590332,0.24353,0.21374,0.053435,0.328244,5.00647,-3.112744,2.515796,-3.512305,0.789551,-0.350513,-0.544312,-0.860132,-3.469238,hello
1616135112.4632068,1,56.0,5.0,-8.0,-14.0,-6.0,0.765625,-0.073425,-0.588196,0.249878,0.221374,0.053435,0.29771,5.114136,-3.645093,2.494263,-3.352002,0.337354,-0.418701,-0.320605,-1.203467,-3.157007,hello
1616135112.4732392,1,56.0,9.0,-10.0,-14.0,-9.0,0.765137,-0.074219,-0.586121,0.255859,0.221374,0.053435,0.267176,5.237353,-4.069776,2.542114,-3.179736,-0.016748,-0.415112,-0.184229,-1.458276,-2.84956,hello
1616135112.4834242,1,54.0,5.0,-11.0,-10.0,-7.0,0.764832,-0.074768,-0.584045,0.261414,0.21374,0.045802,0.236641,5.368945,-4.342529,2.654565,-3.002686,-0.228491,-0.349316,-0.145947,-1.589868,-2.57561,hello
1616135112.4935648,1,56.0,6.0,-11.0,-16.0,-9.0,0.764587,-0.075073,-0.582153,0.266235,0.183206,0.038168,0.198473,5.508911,-4.475317,2.822046,-2.823242,-0.312231,-0.224902,-0.19978,-1.616186,-2.337549,hello
1616135112.503508,1,54.0,7.0,-12.0,-13.0,-6.0,0.764404,-0.075439,-0.580505,0.270203,0.137405,0.030534,0.167939,5.644092,-4.569824,3.002686,-2.653369,-0.364868,-0.080151,-0.283521,-1.619775,-2.115039,hello
1616135112.5135577,1,57.0,6.0,-10.0,-12.0,-7.0,0.76416,-0.075928,-0.579224,0.273438,0.10687,0.015267,0.129771,5.763721,-4.676294,3.166577,-2.503833,-0.434253,0.055029,-0.356494,-1.641309,-1.906885,hello
1616135112.523476,1,55.0,5.0,-12.0,-14.0,-8.0,0.763916,-0.076477,-0.578247,0.276062,0.076336,-0.007634,0.099237,5.855835,-4.782763,3.320899,-2.387793,-0.508423,0.189014,-0.43186,-1.680786,-1.726245,hello
1616135112.533775,1,56.0,8.0,-10.0,-10.0,-6.0,0.763489,-0.076965,-0.577698,0.278198,0.053435,-0.030534,0.076336,5.958716,-4.898804,3.430957,-2.265771,-0.596948,0.288306,-0.467749,-1.719067,-1.546802,hello
1616135112.543527,1,54.0,7.0,-11.0,-14.0,-6.0,0.762939,-0.077148,-0.577515,0.279968,0.053435,-0.053435,0.053435,6.086719,-5.030396,3.506323,-2.125806,-0.707007,0.360083,-0.467749,-1.758545,-1.353003,hello
1616135112.553495,1,55.0,7.0,-11.0,-11.0,-6.0,0.762268,-0.076843,-0.577698,0.281494,0.068702,-0.076336,0.015267,6.253003,-5.148828,3.579297,-1.95354,-0.81228,0.436646,-0.466553,-1.776489,-1.136475,hello
1616135112.5636458,1,56.0,9.0,-10.0,-16.0,-6.0,0.761719,-0.075928,-0.578064,0.282654,0.076336,-0.091603,-0.022901,6.477905,-5.22898,3.669019,-1.73103,-0.892432,0.531152,-0.482104,-1.748975,-0.884058,hello
1616135112.573504,1,56.0,6.0,-10.0,-10.0,-6.0,0.76123,-0.074524,-0.57843,0.283508,0.083969,-0.091603,-0.045802,6.718359,-5.22539,3.738403,-1.497754,-0.898413,0.604126,-0.501245,-1.648486,-0.665137,hello
1616135112.5836356,1,57.0,27.0,-10.0,-13.0,-7.0,0.760864,-0.072876,-0.578857,0.284119,0.076336,-0.091603,-0.053435,6.940869,-5.068677,3.769507,-1.284814,-0.757251,0.640015,-0.543115,-1.429565,-0.540723,hello
1616135112.5934646,1,57.0,7.0,-11.0,-13.0,-6.0,0.760498,-0.071289,-0.579346,0.284302,0.053435,-0.083969,-0.061069,7.107153,-4.82583,3.752759,-1.130493,-0.534741,0.631641,-0.583789,-1.163989,-0.514404,hello
1616135112.603521,1,55.0,8.0,-10.0,-10.0,-8.0,0.760193,-0.070007,-0.580078,0.284058,0.015267,-0.091603,-0.061069,7.241138,-4.591357,3.671411,-1.012061,-0.318213,0.562256,-0.574219,-0.907983,-0.534741,hello
1616135112.613419,1,55.0,5.0,-9.0,-9.0,-50.0,0.759705,-0.069092,-0.581055,0.283508,-0.007634,-0.091603,-0.061069,7.358374,-4.45498,3.538623,-0.90918,-0.197388,0.449805,-0.494067,-0.72854,-0.539526,hello
1616135112.623515,1,55.0,5.0,-11.0,-14.0,-7.0,0.759155,-0.068542,-0.582153,0.282837,-0.022901,-0.083969,-0.053435,7.451684,-4.389184,3.413013,-0.830225,-0.141162,0.34812,-0.405542,-0.617285,-0.531152,hello
1616135112.633432,1,56.0,5.0,-8.0,-10.0,-6.0,0.758606,-0.068237,-0.583252,0.282227,-0.038168,-0.076336,-0.045802,7.482788,-4.390381,3.292187,-0.811084,-0.14834,0.251221,-0.309839,-0.590967,-0.544312,hello
1616135112.643366,1,55.0,7.0,-12.0,-9.0,-8.0,0.757996,-0.068237,-0.58429,0.281738,-0.038168,-0.076336,-0.030534,7.452881,-4.481299,3.162988,-0.850561,-0.240454,0.144751,-0.184229,-0.662744,-0.571826,hello
1616135112.6535952,1,57.0,5.0,-11.0,-16.0,-8.0,0.757263,-0.068542,-0.585327,0.281372,-0.045802,-0.076336,-0.022901,7.318896,-4.70979,3.040967,-0.990527,-0.46416,0.047852,-0.038281,-0.898413,-0.623267,hello
1616135112.663453,1,56.0,7.0,-10.0,-14.0,-9.0,0.756348,-0.069153,-0.586487,0.281433,-0.038168,-0.091603,-0.015267,6.985132,-5.224195,2.883057,-1.326685,-0.963013,-0.081348,0.202173,-1.454687,-0.730933,hello
1616135112.6733277,1,57.0,8.0,-8.0,-12.0,-7.0,0.754822,-0.07019,-0.58783,0.28241,0.0,-0.122137,0.0,6.407324,-6.238647,2.597144,-1.899707,-1.946362,-0.332568,0.692651,-2.507422,-0.856543,hello
1616135112.6832752,1,57.0,5.0,-11.0,-13.0,-7.0,0.752319,-0.071472,-0.589722,0.284851,0.061069,-0.19084,0.022901,5.736206,-7.790235,2.182031,-2.560059,-3.44292,-0.701025,1.471436,-4.001587,-0.845776,hello
1616135112.693468,1,55.0,7.0,-11.0,-11.0,-7.0,0.748474,-0.072632,-0.59259,0.288635,0.122137,-0.290076,0.022901,5.098584,-9.718653,1.620972,-3.183325,-5.299561,-1.191504,2.522974,-5.731421,-0.642407,hello
1616135112.7031906,1,59.0,7.0,-11.0,-11.0,-6.0,0.743408,-0.073425,-0.596863,0.292664,0.122137,-0.389313,-0.045802,4.578198,-11.858813,1.024023,-3.696533,-7.364356,-1.686768,3.698926,-7.54978,-0.210547,hello
1616135112.7134092,1,56.0,7.0,-11.0,-10.0,-6.0,0.737915,-0.074158,-0.602539,0.294861,0.022901,-0.442748,-0.21374,4.120019,-13.911646,0.460571,-4.165479,-9.356176,-2.115039,4.791138,-9.29038,0.270361,hello
1616135112.7235005,1,57.0,5.0,-10.0,-16.0,-8.0,0.732971,-0.074707,-0.609497,0.292664,-0.167939,-0.427481,-0.480916,3.703711,-15.420166,-0.202173,-4.623657,-10.850342,-2.610303,5.717065,-10.629028,0.488086,hello
1616135112.733368,1,57.0,4.0,-10.0,-13.0,-8.0,0.730469,-0.074646,-0.61676,0.28363,-0.412214,-0.282443,-0.908397,3.615185,-16.529125,-0.757251,-4.799512,-12.031079,-2.991919,6.323584,-11.670996,0.716577,hello
1616135112.7435074,1,55.0,7.0,-11.0,-9.0,-7.0,0.732727,-0.07312,-0.622192,0.265747,-0.625954,0.061069,-1.465649,4.000391,-17.3438,-1.112549,-4.554273,-13.05271,-3.219214,6.57002,-12.537109,1.046753,hello
1616135112.7533798,1,55.0,7.0,-11.0,-17.0,-9.0,0.741211,-0.068726,-0.62323,0.239624,-0.671756,0.503817,-2.022901,4.331763,-17.941944,-1.130493,-4.398755,-14.015722,-3.223999,6.385791,-13.577881,1.006079,hello
1616135112.7632594,1,57.0,7.0,-35.0,-17.0,-8.0,0.754944,-0.06073,-0.618652,0.208862,-0.564885,0.870229,-2.396947,3.996802,-17.823511,-0.5479,-4.908374,-14.391357,-2.772998,5.394067,-14.483472,-0.05144,hello
1616135112.773405,1,56.0,7.0,-11.0,-17.0,-23.0,0.771729,-0.048218,-0.609314,0.17572,-0.427481,1.022901,-2.541985,2.944067,-14.963183,0.856543,-6.105859,-12.135157,-1.620972,2.934497,-13.11731,-2.546899,hello
1616135112.783553,1,55.0,5.0,-10.0,-13.0,-8.0,0.789062,-0.031555,-0.597107,0.140991,-0.366412,0.969466,-2.465649,1.549194,-9.534424,3.148633,-7.597632,-7.395459,0.355298,-0.848169,-9.104956,-5.376123,hello
1616135112.7935066,1,57.0,9.0,-12.0,-13.0,-8.0,0.804199,-0.013306,-0.584534,0.10675,-0.396947,0.717557,-2.129771,0.328979,-2.463159,6.071167,-8.856128,-1.030005,2.971582,-5.243335,-2.971582,-7.210034,hello
1616135112.8032572,1,56.0,5.0,-10.0,-12.0,-7.0,0.815247,0.002319,-0.574036,0.07605,-0.48855,0.374046,-1.59542,-0.209351,3.387891,8.95542,-9.384888,4.206152,5.614184,-8.875269,2.506226,-7.22439,hello
1616135112.8134522,1,59.0,7.0,-12.0,-14.0,-7.0,0.822144,0.012573,-0.566772,0.051941,-0.51145,0.083969,-1.053435,0.143555,7.687354,11.161377,-9.002075,8.060596,7.659839,-11.101562,6.763818,-5.971875,hello
1616135112.823466,1,56.0,7.0,-11.0,-16.0,-9.0,0.825806,0.020386,-0.562561,0.033997,-0.374046,-0.10687,-0.671756,1.275244,10.846753,12.437818,-7.842871,10.891016,8.847754,-11.929395,9.959106,-4.10686,hello
1616135112.83332,1,55.0,5.0,-11.0,-11.0,-9.0,0.827026,0.028503,-0.561035,0.021545,-0.137405,-0.229008,-0.427481,2.98833,13.167554,12.675879,-6.117822,12.941455,9.060694,-11.532227,12.239233,-2.044458,hello
1616135112.8434737,1,55.0,6.0,-12.0,-13.0,-17.0,0.826294,0.037048,-0.561829,0.013672,0.022901,-0.305344,-0.206107,4.876074,14.873462,12.084912,-4.232471,14.423657,8.498438,-10.367041,13.807569,-0.162695,hello
1616135112.8533878,1,54.0,4.0,-10.0,-17.0,-9.0,0.824158,0.044189,-0.564514,0.009216,0.053435,-0.351145,0.022901,6.51499,15.737183,10.725927,-2.611499,15.124682,7.210034,-8.633618,14.551661,1.098193,hello
1616135112.863302,1,54.0,6.0,-11.0,-17.0,-9.0,0.820862,0.047852,-0.569092,0.008362,0.030534,-0.381679,0.221374,7.771094,14.758618,8.705396,-1.39248,14.081518,5.297168,-6.395361,13.605395,1.510913,hello
1616135112.873308,1,56.0,8.0,-10.0,-16.0,-8.0,0.816711,0.047974,-0.574951,0.010437,0.007634,-0.381679,0.335878,8.683863,12.466528,6.358276,-0.52876,11.815747,3.081641,-3.922632,11.499927,1.315918,hello
1616135112.8834562,1,55.0,8.0,-7.0,-16.0,-23.0,0.812134,0.045959,-0.581421,0.014709,0.030534,-0.351145,0.381679,9.317896,9.433935,4.024316,0.049048,8.869287,0.891235,-1.509717,8.743677,0.840991,hello
1616135112.8931782,1,54.0,7.0,-10.0,-13.0,-6.0,0.8078,0.043091,-0.587524,0.020203,0.068702,-0.274809,0.351145,9.906469,6.224292,2.006177,0.586182,5.774487,-0.990527,0.637622,5.829516,0.519189,hello
1616135112.9032211,1,56.0,6.0,-11.0,-11.0,-6.0,0.804138,0.039978,-0.592468,0.025757,0.068702,-0.160305,0.282443,10.424463,3.391479,0.507227,1.065894,3.060107,-2.380615,2.307642,3.264673,0.418701,hello
1616135112.9133816,1,55.0,7.0,-12.0,-13.0,-10.0,0.801819,0.037048,-0.595642,0.029968,0.022901,-0.030534,0.175573,10.771387,1.184326,-0.472534,1.387695,0.95105,-3.290991,3.448901,1.264477,0.404346,hello
1616135112.9231384,1,55.0,4.0,-11.0,-12.0,-6.0,0.801025,0.034546,-0.596802,0.032104,-0.038168,0.091603,0.045802,10.871875,-0.367261,-0.964209,1.47981,-0.533545,-3.759937,4.057813,-0.163892,0.336157,hello
1616135112.9333882,1,54.0,6.0,-9.0,-40.0,-8.0,0.801636,0.032593,-0.596069,0.03186,-0.091603,0.206107,-0.083969,10.752246,-1.291992,-0.995313,1.366162,-1.430762,-3.810181,4.153516,-1.063501,0.192603,hello
1616135112.9432511,1,54.0,7.0,-10.0,-13.0,-7.0,0.803467,0.031128,-0.593811,0.029724,-0.145038,0.274809,-0.160305,10.423266,-1.638916,-0.636426,1.052734,-1.782471,-3.506323,3.798218,-1.464258,-0.045459,hello
1616135112.9533274,1,41.0,6.0,-10.0,-16.0,-6.0,0.80603,0.029907,-0.590515,0.026489,-0.183206,0.290076,-0.175573,9.859815,-1.472632,0.020337,0.514404,-1.63772,-2.927319,3.063696,-1.394873,-0.417505,hello
1616135112.9634006,1,55.0,5.0,-9.0,-14.0,-9.0,0.808716,0.028625,-0.587097,0.022949,-0.198473,0.251908,-0.152672,9.170752,-0.955835,0.846973,-0.147144,-1.144849,-2.180835,2.103076,-0.982153,-0.83501,hello
1616135112.973175,1,55.0,7.0,-10.0,-10.0,-7.0,0.811096,0.027405,-0.583984,0.019592,-0.183206,0.183206,-0.10687,8.548681,-0.355298,1.697534,-0.745288,-0.565845,-1.403247,1.126904,-0.468945,-1.162793,hello
1616135112.983191,1,54.0,6.0,-10.0,-12.0,-8.0,0.812927,0.026611,-0.581543,0.01709,-0.137405,0.114504,-0.068702,8.12998,0.194995,2.503833,-1.144849,-0.033496,-0.653174,0.248828,0.010767,-1.294385,hello
1616135112.9932792,1,60.0,8.0,-10.0,-18.0,-8.0,0.814209,0.026428,-0.579712,0.015625,-0.061069,0.061069,-0.030534,7.949341,0.642407,3.1594,-1.309937,0.397168,-0.039478,-0.41272,0.405542,-1.240552,hello
1616135113.0033362,1,56.0,10.0,-10.0,-8.0,-7.0,0.815063,0.026917,-0.578491,0.015137,0.0,0.022901,0.0,7.936182,0.98335,3.611597,-1.312329,0.724951,0.385205,-0.836206,0.708203,-1.092212,hello
1616135113.012435,1,56.0,7.0,-10.0,-13.0,-6.0,0.815491,0.027588,-0.57782,0.015381,0.038168,-0.007634,0.030534,8.067774,1.216626,3.862817,-1.175952,0.949854,0.62207,-1.028809,0.916357,-0.87688,hello
1616135113.0231893,1,54.0,7.0,-8.0,-18.0,-9.0,0.815674,0.028381,-0.577515,0.01593,0.045802,-0.015267,0.030534,8.273535,1.332666,3.933398,-0.967798,1.058716,0.68667,-1.030005,1.018042,-0.655566,hello
1616135113.0332203,1,56.0,6.0,-10.0,-14.0,-7.0,0.815735,0.029053,-0.577393,0.016418,0.038168,-0.007634,0.022901,8.480494,1.294385,3.84248,-0.759644,1.015649,0.593359,-0.872095,0.978564,-0.490479,hello
1616135113.0424454,1,56.0,7.0,-11.0,-12.0,-6.0,0.815735,0.029358,-0.577393,0.016846,0.022901,-0.007634,0.015267,8.669507,1.080249,3.623559,-0.57063,0.800317,0.374438,-0.590967,0.776392,-0.391187,hello
1616135113.0532005,1,57.0,8.0,-8.0,-12.0,-6.0,0.815613,0.029236,-0.577576,0.017212,0.0,0.0,0.015267,8.857325,0.79314,3.349609,-0.385205,0.520386,0.104077,-0.257202,0.513208,-0.313428,hello
1616135113.0628068,1,57.0,6.0,-10.0,-16.0,-6.0,0.815552,0.028992,-0.577698,0.017395,-0.007634,0.007634,0.0,9.042749,0.439038,3.048145,-0.200977,0.172266,-0.193799,0.104077,0.185425,-0.248828,hello
1616135113.0723584,1,54.0,7.0,-11.0,-16.0,-8.0,0.815552,0.028687,-0.577759,0.017395,-0.022901,0.022901,-0.022901,9.199463,0.171069,2.871094,-0.045459,-0.089722,-0.369653,0.337354,-0.063403,-0.16748,hello
1616135113.083422,1,54.0,8.0,-10.0,-12.0,-6.0,0.815674,0.028259,-0.577576,0.016907,-0.045802,0.038168,-0.030534,9.311914,0.043066,2.761035,0.068188,-0.216528,-0.484497,0.491675,-0.184229,-0.101685,hello
1616135113.092346,1,55.0,7.0,-10.0,-9.0,-6.0,0.815979,0.027588,-0.577209,0.015991,-0.076336,0.053435,-0.045802,9.424365,-0.045459,2.722754,0.184229,-0.305054,-0.531152,0.577808,-0.271558,-0.010767,hello
1616135113.1033597,1,57.0,5.0,-8.0,-11.0,-6.0,0.816467,0.026794,-0.576538,0.014771,-0.083969,0.068702,-0.061069,9.512891,-0.119629,2.743091,0.278735,-0.38042,-0.526367,0.608911,-0.349316,0.076563,hello
1616135113.1125853,1,54.0,5.0,-10.0,-11.0,-6.0,0.817139,0.026245,-0.575684,0.013367,-0.076336,0.076336,-0.076336,9.539209,-0.11604,2.811279,0.312231,-0.385205,-0.478516,0.574219,-0.358887,0.122021,hello
1616135113.1226354,1,55.0,7.0,-11.0,-14.0,-7.0,0.817871,0.026001,-0.574707,0.011841,-0.061069,0.076336,-0.083969,9.511694,-0.038281,2.92373,0.291895,-0.320605,-0.388794,0.479712,-0.300269,0.132788,hello
1616135113.1324785,1,56.0,7.0,-7.0,-13.0,-6.0,0.818481,0.026001,-0.573792,0.010315,-0.061069,0.061069,-0.083969,9.441113,0.13877,3.036182,0.230884,-0.161499,-0.29668,0.363672,-0.147144,0.110059,hello
1616135113.1425793,1,55.0,6.0,-12.0,-13.0,-6.0,0.81897,0.026062,-0.57312,0.00885,-0.061069,0.038168,-0.068702,9.359766,0.376831,3.197681,0.155518,0.057422,-0.149536,0.19021,0.062207,0.095703,hello
1616135113.1523528,1,54.0,4.0,-11.0,-13.0,-7.0,0.819336,0.026123,-0.572693,0.007446,-0.053435,0.015267,-0.053435,9.301147,0.576611,3.33645,0.099292,0.240454,-0.021533,0.043066,0.239258,0.093311,hello
1616135113.1626668,1,56.0,6.0,-24.0,-10.0,-8.0,0.819519,0.026184,-0.572388,0.006348,-0.038168,0.0,-0.045802,9.249707,0.695044,3.436939,0.05144,0.344531,0.071777,-0.063403,0.33855,0.084937,hello
1616135113.172374,1,56.0,-6.0,-11.0,-12.0,-6.0,0.819641,0.026428,-0.572266,0.005554,-0.015267,-0.007634,-0.038168,9.1875,0.814673,3.521875,-0.008374,0.452197,0.153125,-0.163892,0.443823,0.061011,hello
1616135113.1826327,1,54.0,5.0,-8.0,-8.0,-6.0,0.819641,0.026978,-0.572205,0.004944,0.0,-0.015267,-0.030534,9.100171,0.954639,3.579297,-0.094507,0.576611,0.210547,-0.252417,0.567041,0.004785,hello
1616135113.192402,1,55.0,3.0,-10.0,-8.0,-6.0,0.819519,0.027588,-0.572327,0.004456,0.0,-0.030534,-0.022901,9.031982,1.092212,3.597241,-0.162695,0.698633,0.23208,-0.300269,0.689062,-0.044263,hello
1616135113.2025006,1,56.0,8.0,-10.0,-10.0,-6.0,0.819336,0.028198,-0.572632,0.004028,0.007634,-0.038168,-0.022901,9.003271,1.162793,3.574512,-0.193799,0.754858,0.216528,-0.299072,0.746484,-0.075366,hello
1616135113.2123446,1,55.0,7.0,-10.0,-12.0,-6.0,0.81897,0.028748,-0.573059,0.003784,0.007634,-0.038168,-0.015267,9.010449,1.144849,3.521875,-0.19021,0.724951,0.174658,-0.257202,0.71897,-0.087329,hello
1616135113.222482,1,56.0,7.0,-11.0,-10.0,-9.0,0.818604,0.029297,-0.573547,0.003784,0.022901,-0.038168,-0.007634,9.027197,1.085034,3.421387,-0.177051,0.656763,0.086133,-0.16748,0.655566,-0.107666,hello
1616135113.232298,1,55.0,5.0,-10.0,-12.0,-6.0,0.818237,0.029846,-0.574097,0.004028,0.030534,-0.038168,0.0,9.048731,1.013257,3.298169,-0.160303,0.579004,-0.023926,-0.055029,0.582593,-0.132788,hello
1616135113.2426302,1,55.0,7.0,-8.0,-8.0,-7.0,0.81781,0.030334,-0.574707,0.004395,0.038168,-0.038168,0.007634,9.065478,0.913965,3.177344,-0.14834,0.476123,-0.130396,0.05144,0.485693,-0.161499,hello
1616135113.2526307,1,54.0,7.0,-8.0,-10.0,-6.0,0.817383,0.030762,-0.575256,0.004944,0.038168,-0.038168,0.015267,9.10376,0.830225,3.084033,-0.114844,0.392383,-0.210547,0.141162,0.405542,-0.160303,hello
1616135116.9383774,1,53.0,7.0,-8.0,-7.0,-6.0,0.795715,0.188843,-0.575378,-0.008789,-0.015267,0.0,0.0,8.921924,3.074463,2.530151,-0.019141,0.029907,-0.081348,0.062207,0.055029,-0.028711,hello
1616135116.948497,1,54.0,6.0,-7.0,-9.0,-6.0,0.795776,0.18866,-0.575317,-0.00885,-0.015267,0.0,0.0,8.939868,3.063696,2.539722,0.0,0.020337,-0.07417,0.063403,0.039478,-0.013159,hello
1616135116.957903,1,55.0,7.0,-7.0,-10.0,-7.0,0.795898,0.188477,-0.575256,-0.008972,-0.015267,0.007634,-0.007634,8.948242,3.048145,2.554077,0.007178,0.005981,-0.063403,0.058618,0.021533,-0.008374,hello
1616135116.9682434,1,54.0,5.0,-7.0,-13.0,-6.0,0.795959,0.188354,-0.575195,-0.009094,-0.015267,0.007634,-0.007634,8.943457,3.043359,2.552881,0.002393,0.001196,-0.065796,0.061011,0.019141,-0.014355,hello
1616135116.9784417,1,54.0,5.0,-8.0,-10.0,-6.0,0.796082,0.188171,-0.575073,-0.009216,-0.015267,0.0,-0.007634,8.938672,3.031396,2.561255,0.0,-0.008374,-0.062207,0.058618,0.00957,-0.019141,hello
1616135116.9881754,1,56.0,7.0,-7.0,-10.0,-6.0,0.796143,0.188049,-0.575073,-0.009399,-0.015267,0.0,-0.007634,8.943457,3.008667,2.552881,0.003589,-0.031104,-0.071777,0.072974,-0.008374,-0.025122,hello
1616135116.9976788,1,55.0,7.0,-10.0,-8.0,-7.0,0.796143,0.187927,-0.575073,-0.009583,-0.015267,-0.007634,-0.007634,8.957812,2.999097,2.544507,0.019141,-0.040674,-0.080151,0.087329,-0.017944,-0.015552,hello
1616135117.0083258,1,59.0,7.0,-6.0,-9.0,-6.0,0.796143,0.187866,-0.575134,-0.009705,-0.015267,-0.007634,-0.007634,8.978149,2.993115,2.549292,0.038281,-0.046655,-0.075366,0.090918,-0.029907,0.0,hello
1616135117.0176508,1,55.0,9.0,-8.0,-11.0,-6.0,0.796082,0.187805,-0.575134,-0.009827,-0.007634,-0.007634,-0.007634,9.010449,3.001489,2.550488,0.071777,-0.039478,-0.072974,0.098096,-0.0323,0.033496,hello
1616135117.0283155,1,54.0,6.0,-12.0,-10.0,-7.0,0.796082,0.187805,-0.575195,-0.009888,-0.007634,0.0,-0.007634,9.045141,3.003882,2.549292,0.10647,-0.037085,-0.07417,0.111255,-0.037085,0.0646,hello
1616135117.0384402,1,54.0,8.0,-10.0,-13.0,-5.0,0.796082,0.187866,-0.575134,-0.009827,0.0,0.0,-0.007634,9.096582,3.01106,2.537329,0.15791,-0.029907,-0.086133,0.137573,-0.039478,0.111255,hello
1616135117.0478556,1,55.0,9.0,-9.0,-10.0,-6.0,0.796082,0.187988,-0.575134,-0.009644,0.007634,0.0,0.0,9.151611,3.031396,2.521777,0.212939,-0.00957,-0.101685,0.166284,-0.028711,0.163892,hello
1616135117.0574107,1,54.0,7.0,-8.0,-10.0,-6.0,0.796082,0.18811,-0.575134,-0.00946,0.007634,0.0,0.0,9.242529,3.069678,2.515796,0.302661,0.027515,-0.10647,0.193799,-0.013159,0.256006,hello
1616135117.0676818,1,54.0,7.0,-11.0,-10.0,-6.0,0.796021,0.188171,-0.575195,-0.009277,0.0,0.0,0.007634,9.362158,3.118726,2.519385,0.421094,0.077759,-0.101685,0.220117,0.003589,0.38042,hello
1616135117.0775054,1,56.0,8.0,-8.0,-13.0,-7.0,0.796021,0.188049,-0.575256,-0.008972,0.0,0.007634,0.015267,9.504517,3.152222,2.522974,0.562256,0.11604,-0.096899,0.25481,0.005981,0.522778,hello
1616135117.0876615,1,57.0,5.0,-10.0,-10.0,-6.0,0.796021,0.187805,-0.575317,-0.008606,-0.007634,0.007634,0.022901,9.658838,3.172559,2.525366,0.714185,0.144751,-0.095703,0.299072,-0.001196,0.669922,hello
1616135117.097514,1,56.0,5.0,-7.0,-10.0,-6.0,0.796021,0.187378,-0.575439,-0.008118,-0.007634,0.007634,0.038168,9.845459,3.195288,2.525366,0.897217,0.179443,-0.095703,0.354102,-0.00957,0.848169,hello
1616135117.1076255,1,54.0,8.0,-11.0,-12.0,-6.0,0.795959,0.18689,-0.575684,-0.007385,-0.007634,0.0,0.053435,10.058398,3.208447,2.521777,1.104175,0.209351,-0.096899,0.417505,-0.027515,1.046753,hello
1616135117.118413,1,55.0,8.0,-10.0,-12.0,-6.0,0.795898,0.186218,-0.57605,-0.006348,0.0,0.0,0.076336,10.32876,3.235962,2.513403,1.364966,0.258398,-0.102881,0.500049,-0.035889,1.29917,hello
1616135117.1274405,1,55.0,7.0,-10.0,-12.0,-6.0,0.795715,0.185425,-0.576538,-0.004883,0.007634,0.0,0.099237,10.679273,3.276636,2.530151,1.704712,0.328979,-0.080151,0.576611,-0.047852,1.63772,hello
1616135117.1375911,1,54.0,6.0,-7.0,-10.0,-6.0,0.795593,0.184509,-0.577026,-0.00293,0.022901,0.007634,0.129771,11.096777,3.322095,2.567236,2.109058,0.411523,-0.038281,0.653174,-0.063403,2.045654,hello
1616135117.1478148,1,54.0,11.0,-10.0,-12.0,-7.0,0.795532,0.18335,-0.577515,-0.000366,0.030534,0.022901,0.167939,11.574097,3.427368,2.64978,2.569629,0.563452,0.045459,0.693848,-0.0323,2.537329,hello
1616135117.157408,1,56.0,9.0,-8.0,-10.0,-6.0,0.795593,0.181824,-0.577881,0.002502,0.015267,0.030534,0.206107,12.033472,3.639111,2.790942,3.012256,0.831421,0.184229,0.651978,0.100488,3.058911,hello
1616135117.1676111,1,55.0,7.0,-6.0,-8.0,-6.0,0.795837,0.179565,-0.578247,0.005615,-0.022901,0.030534,0.251908,12.427051,3.911865,2.973975,3.386694,1.17356,0.358887,0.537134,0.319409,3.546997,hello
1616135117.1775217,1,56.0,5.0,-10.0,-11.0,-6.0,0.796143,0.17627,-0.578796,0.00885,-0.076336,0.022901,0.312977,12.7656,4.158301,3.171362,3.702515,1.507324,0.545508,0.391187,0.550293,3.976465,hello
1616135117.1875002,1,31.0,7.0,-8.0,-10.0,-6.0,0.796448,0.171753,-0.579651,0.012329,-0.122137,0.007634,0.381679,13.034765,4.322192,3.334058,3.944165,1.780078,0.697437,0.261987,0.765625,4.306641,hello
1616135117.197426,1,57.0,9.0,-7.0,-9.0,-6.0,0.796631,0.166199,-0.580933,0.016235,-0.152672,-0.015267,0.442748,13.180713,4.379614,3.44292,4.056616,1.969092,0.797925,0.150732,0.953442,4.475317,hello
1616135117.2074196,1,55.0,8.0,-8.0,-11.0,-9.0,0.79657,0.159912,-0.582642,0.020691,-0.160305,-0.038168,0.496183,13.239331,4.341333,3.51709,4.076953,2.080347,0.870898,0.045459,1.102978,4.525561,hello
1616135117.2174869,1,56.0,9.0,-9.0,-11.0,-6.0,0.796204,0.153259,-0.584717,0.025818,-0.145038,-0.068702,0.549618,13.215405,4.216919,3.548193,4.012353,2.121021,0.90918,-0.043066,1.214233,4.465747,hello
1616135117.227697,1,57.0,7.0,-8.0,-8.0,-6.0,0.79541,0.146667,-0.587219,0.031738,-0.10687,-0.091603,0.587786,13.096972,4.060205,3.519482,3.850854,2.137769,0.898413,-0.119629,1.329077,4.292285,hello
1616135117.237476,1,56.0,9.0,-7.0,-10.0,-6.0,0.794189,0.140259,-0.589966,0.038391,-0.076336,-0.114504,0.625954,12.941455,3.938184,3.460864,3.652271,2.198779,0.868506,-0.203369,1.490576,4.081738,hello
1616135117.2475336,1,55.0,9.0,-10.0,-10.0,-6.0,0.792664,0.133911,-0.593018,0.045593,-0.053435,-0.129771,0.656489,12.72732,3.852051,3.361572,3.393872,2.300464,0.805103,-0.285913,1.699927,3.805396,hello
1616135117.2574046,1,54.0,1.0,-6.0,-12.0,-7.0,0.790833,0.127625,-0.59613,0.053162,-0.038168,-0.145038,0.679389,12.462939,3.744385,3.202466,3.088818,2.386597,0.687866,-0.326587,1.9021,3.460864,hello
1616135117.26747,1,54.0,9.0,-10.0,-9.0,-6.0,0.788757,0.121399,-0.599487,0.060974,-0.030534,-0.152672,0.694656,12.163867,3.609204,2.984741,2.750268,2.448804,0.516797,-0.319409,2.085132,3.061304,hello
1616135117.277457,1,55.0,5.0,-9.0,-12.0,-9.0,0.786438,0.115173,-0.602905,0.068787,-0.022901,-0.160305,0.687023,11.844458,3.414209,2.74668,2.394971,2.451196,0.331372,-0.282324,2.201172,2.63064,hello
1616135117.2874584,1,54.0,7.0,-10.0,-10.0,-7.0,0.783997,0.109009,-0.606323,0.076599,-0.015267,-0.160305,0.687023,11.517871,3.107959,2.490674,2.036084,2.342334,0.128003,-0.194995,2.199975,2.183228,hello
1616135117.2975807,1,55.0,7.0,-7.0,-7.0,-6.0,0.781433,0.102783,-0.609619,0.084656,-0.007634,-0.152672,0.687023,11.194873,2.708398,2.247827,1.686768,2.144946,-0.061011,-0.086133,2.095898,1.74419,hello
1616135117.3073132,1,55.0,7.0,-7.0,-14.0,-9.0,0.778931,0.096619,-0.61261,0.092957,0.007634,-0.129771,0.687023,10.869482,2.306445,2.054028,1.339844,1.946362,-0.206958,-0.007178,1.965503,1.325488,hello
1616135117.3176577,1,54.0,5.0,-10.0,-10.0,-6.0,0.77655,0.090576,-0.615234,0.10144,0.022901,-0.10687,0.687023,10.521362,1.870996,1.8698,0.976172,1.715479,-0.350513,0.08374,1.789648,0.898413,hello
1616135117.3274205,1,57.0,8.0,-7.0,-9.0,-6.0,0.774292,0.084595,-0.617432,0.110107,0.045802,-0.083969,0.679389,10.11941,1.391284,1.660449,0.565845,1.439136,-0.527563,0.218921,1.561157,0.425879,hello
1616135117.3373218,1,56.0,6.0,-14.0,-9.0,-6.0,0.772034,0.078857,-0.619324,0.118958,0.068702,-0.068702,0.664122,9.7031,0.904395,1.446314,0.147144,1.154419,-0.712988,0.373242,1.311133,-0.043066,hello
1616135117.3476098,1,56.0,7.0,-10.0,-12.0,-8.0,0.769836,0.073547,-0.620911,0.12793,0.091603,-0.053435,0.648855,9.256885,0.440234,1.226196,-0.295483,0.88645,-0.910376,0.539526,1.063501,-0.526367,hello
1616135117.3574352,1,55.0,6.0,-6.0,-9.0,-6.0,0.767639,0.068542,-0.622253,0.137085,0.122137,-0.038168,0.633588,8.787939,-0.010767,1.056323,-0.758447,0.629248,-1.061108,0.66394,0.796728,-1.008472,hello
1616135117.367386,1,54.0,7.0,-8.0,-7.0,-6.0,0.765625,0.063843,-0.62323,0.146179,0.129771,-0.022901,0.618321,8.329761,-0.242847,1.001294,-1.204663,0.583789,-1.105371,0.638818,0.689062,-1.458276,hello
1616135117.3773088,1,54.0,7.0,-7.0,-12.0,-6.0,0.763794,0.059143,-0.623779,0.154968,0.10687,-0.007634,0.618321,7.858423,-0.271558,1.008472,-1.659253,0.736914,-1.095801,0.50603,0.735718,-1.922436,hello
1616135117.3876622,1,54.0,8.0,-7.0,-8.0,-6.0,0.762329,0.054016,-0.624023,0.162964,0.045802,0.015267,0.603053,7.365552,-0.111255,1.089819,-2.130591,1.074268,-1.020435,0.25481,0.916357,-2.414111,hello
1616135117.3973937,1,54.0,8.0,-8.0,-1.0,-4.0,0.761292,0.047974,-0.623962,0.169739,-0.061069,0.045802,0.59542,6.858325,0.094507,1.225,-2.611499,1.453491,-0.898413,-0.050244,1.09939,-2.918945,hello
1616135117.4075007,1,57.0,8.0,-7.0,-7.0,-7.0,0.76062,0.040527,-0.623779,0.175232,-0.167939,0.068702,0.580153,6.376221,-0.015552,1.295581,-3.061304,1.52168,-0.845776,-0.181836,0.998901,-3.371143,hello
1616135117.417475,1,57.0,7.0,-6.0,-11.0,-6.0,0.760071,0.031921,-0.623474,0.180359,-0.21374,0.099237,0.572519,5.940772,-0.584985,1.265674,-3.459668,1.142456,-0.894824,-0.0646,0.498853,-3.71687,hello
1616135117.4274092,1,55.0,8.0,-8.0,-7.0,-6.0,0.759583,0.02301,-0.622803,0.185913,-0.175573,0.122137,0.564885,5.614184,-1.418799,1.204663,-3.740796,0.507227,-0.980957,0.181836,-0.215332,-3.889136,hello
1616135117.4374409,1,55.0,7.0,-8.0,-7.0,-6.0,0.759155,0.014954,-0.621643,0.192444,-0.068702,0.145038,0.541985,5.32229,-2.26936,1.15083,-3.983643,-0.145947,-1.070679,0.439038,-0.943872,-3.993213,hello
1616135117.447534,1,55.0,8.0,-11.0,-10.0,-5.0,0.758789,0.008667,-0.619751,0.199951,0.068702,0.160305,0.503817,5.079443,-2.940479,1.161597,-4.17146,-0.640015,-1.107764,0.605322,-1.520483,-4.043457,hello
1616135117.4573398,1,56.0,9.0,-7.0,-11.0,-6.0,0.758728,0.004639,-0.617249,0.208191,0.206107,0.160305,0.442748,4.901196,-3.258691,1.27644,-4.295874,-0.808691,-1.055127,0.595752,-1.792041,-4.080542,hello
1616135117.4674296,1,56.0,8.0,-8.0,-7.0,-6.0,0.759033,0.002747,-0.614075,0.216248,0.282443,0.167939,0.381679,4.815063,-3.042163,1.555176,-4.331763,-0.479712,-0.852954,0.293091,-1.611401,-4.127197,hello
1616135117.4774475,1,55.0,8.0,-11.0,-7.0,-6.0,0.759827,0.002136,-0.610596,0.223206,0.259542,0.167939,0.312977,4.813867,-2.435645,1.933203,-4.288696,0.203369,-0.558667,-0.214136,-1.105371,-4.179834,hello
1616135117.4874303,1,55.0,7.0,-7.0,-12.0,-6.0,0.761047,0.001465,-0.607178,0.228333,0.160305,0.167939,0.267176,4.871289,-1.610205,2.347119,-4.191797,1.085034,-0.226099,-0.833813,-0.413916,-4.233667,hello
1616135117.497334,1,55.0,9.0,-10.0,-10.0,-6.0,0.762512,-0.000305,-0.604126,0.231506,0.007634,0.175573,0.244275,5.01604,-0.916357,2.725147,-4.011157,1.829126,0.077759,-1.369751,0.192603,-4.185815,hello
1616135117.5075245,1,55.0,6.0,-10.0,-11.0,-9.0,0.763977,-0.003662,-0.601562,0.233337,-0.114504,0.175573,0.251908,5.213428,-0.58977,2.984741,-3.776685,2.215527,0.277539,-1.667627,0.533545,-4.021924,hello
1616135117.517423,1,57.0,7.0,-7.0,-8.0,-7.0,0.765259,-0.008362,-0.599304,0.234802,-0.175573,0.175573,0.267176,5.422778,-0.631641,3.162988,-3.52666,2.251416,0.403149,-1.762134,0.590967,-3.769507,hello
1616135117.527454,1,56.0,8.0,-6.0,-10.0,-6.0,0.766418,-0.01355,-0.597046,0.236572,-0.160305,0.183206,0.282443,5.622559,-0.968994,3.255103,-3.282617,2.002588,0.44502,-1.678394,0.417505,-3.46206,hello
1616135117.5374775,1,55.0,6.0,-7.0,-54.0,-33.0,0.767334,-0.018372,-0.594604,0.239319,-0.083969,0.183206,0.290076,5.73501,-1.455884,3.26228,-3.121118,1.609009,0.398364,-1.478613,0.10647,-3.207251,hello
1616135117.5474794,1,55.0,10.0,-8.0,-8.0,-6.0,0.767944,-0.022217,-0.592163,0.243103,0.007634,0.152672,0.290076,5.788843,-1.885352,3.265869,-3.018237,1.270459,0.34812,-1.305151,-0.174658,-3.017041,hello
1616135117.5573566,1,56.0,7.0,-10.0,-9.0,-7.0,0.768311,-0.024841,-0.589722,0.24762,0.091603,0.114504,0.282443,5.804395,-2.223901,3.261084,-2.954834,1.012061,0.288306,-1.156811,-0.397168,-2.887842,hello
1616135117.567468,1,56.0,7.0,-8.0,-12.0,-7.0,0.768188,-0.026367,-0.587646,0.252625,0.145038,0.068702,0.274809,5.828321,-2.453589,3.277832,-2.887842,0.852954,0.259595,-1.065894,-0.533545,-2.776587,hello
1616135117.5773954,1,56.0,8.0,-10.0,-8.0,-6.0,0.7677,-0.0271,-0.586121,0.257568,0.160305,0.015267,0.251908,5.904883,-2.588769,3.313721,-2.776587,0.777588,0.260791,-1.020435,-0.5802,-2.644995,hello
1616135117.587484,1,54.0,7.0,-8.0,-10.0,-6.0,0.766846,-0.027405,-0.585266,0.262024,0.145038,-0.030534,0.221374,6.056811,-2.624658,3.363965,-2.59834,0.791943,0.291895,-1.020435,-0.522778,-2.478711,hello
1616135117.5973155,1,55.0,7.0,-6.0,-8.0,-6.0,0.765808,-0.027771,-0.584961,0.265686,0.091603,-0.061069,0.19084,6.266162,-2.667725,3.408227,-2.368652,0.794336,0.328979,-1.009668,-0.447412,-2.263379,hello
1616135117.6074536,1,56.0,7.0,-7.0,-13.0,-7.0,0.764709,-0.028564,-0.585022,0.268494,0.038168,-0.061069,0.167939,6.51499,-2.811279,3.450098,-2.103076,0.695044,0.374438,-0.963013,-0.441431,-1.979858,hello
1616135117.6173167,1,56.0,7.0,-10.0,-12.0,-6.0,0.763794,-0.029785,-0.585205,0.27063,0.0,-0.045802,0.145038,6.71477,-3.056519,3.458472,-1.887744,0.492871,0.387598,-0.856543,-0.531152,-1.713086,hello
1616135117.627453,1,55.0,8.0,-8.0,-12.0,-6.0,0.763062,-0.03125,-0.585327,0.2724,-0.015267,-0.030534,0.114504,6.828418,-3.355591,3.434546,-1.758545,0.236865,0.367261,-0.716577,-0.692651,-1.512109,hello
1616135117.6372898,1,55.0,8.0,-8.0,-9.0,-6.0,0.762573,-0.032715,-0.585266,0.27356,-0.030534,-0.015267,0.068702,6.860718,-3.731225,3.403442,-1.710693,-0.104077,0.337354,-0.550293,-0.958228,-1.351807,hello
1616135117.647511,1,55.0,6.0,-10.0,-8.0,-6.0,0.762329,-0.034058,-0.585266,0.273987,-0.053435,-0.007634,0.015267,6.842773,-4.147534,3.379517,-1.719067,-0.495264,0.31582,-0.382812,-1.290796,-1.217822,hello
1616135117.6573544,1,55.0,9.0,-10.0,-8.0,-6.0,0.762268,-0.035461,-0.585449,0.273682,-0.083969,-0.007634,-0.030534,6.817651,-4.548291,3.343628,-1.738208,-0.87688,0.285913,-0.216528,-1.616186,-1.09939,hello
1616135117.6674862,1,57.0,7.0,-7.0,-9.0,-6.0,0.762268,-0.037048,-0.585815,0.272766,-0.10687,-0.007634,-0.061069,6.770996,-4.98374,3.246728,-1.782471,-1.297974,0.19978,0.005981,-1.971484,-1.004883,hello
1616135117.6774662,1,55.0,9.0,-10.0,-10.0,-6.0,0.761963,-0.038818,-0.586426,0.271912,-0.099237,-0.022901,-0.053435,6.694434,-5.47063,3.069678,-1.856641,-1.764526,0.039478,0.308643,-2.361475,-0.940283,hello
1616135117.6873252,1,55.0,9.0,-7.0,-13.0,-6.0,0.761414,-0.040405,-0.587219,0.271606,-0.068702,-0.045802,-0.038168,6.644189,-5.807983,2.896216,-1.903296,-2.077954,-0.112451,0.553882,-2.612695,-0.903198,hello
1616135117.6973388,1,54.0,7.0,-10.0,-12.0,-6.0,0.760742,-0.041504,-0.588013,0.271606,-0.038168,-0.053435,-0.038168,6.61189,-5.985034,2.816064,-1.934399,-2.235864,-0.172266,0.660352,-2.747876,-0.884058,hello
1616135117.7074788,1,55.0,7.0,-11.0,-9.0,-6.0,0.760254,-0.04248,-0.588684,0.271484,-0.045802,-0.045802,-0.053435,6.469531,-6.253003,2.813672,-2.075562,-2.487085,-0.15791,0.715381,-3.031396,-0.902002,hello
1616135117.7172322,1,55.0,9.0,-8.0,-10.0,-6.0,0.759705,-0.043945,-0.589355,0.27124,-0.068702,-0.045802,-0.068702,6.141748,-6.876269,2.786157,-2.399756,-3.087622,-0.16748,0.88645,-3.691748,-0.948657,hello
1616135117.727489,1,54.0,8.0,-10.0,-12.0,-9.0,0.759033,-0.046021,-0.59021,0.270813,-0.099237,-0.061069,-0.10687,5.762525,-7.766309,2.752661,-2.772998,-3.947754,-0.177051,1.136475,-4.597339,-0.929517,hello
1616135117.737419,1,55.0,5.0,-7.0,-9.0,-6.0,0.758179,-0.048462,-0.591614,0.269836,-0.129771,-0.083969,-0.167939,5.194287,-9.092993,2.528955,-3.340039,-5.243335,-0.364868,1.665234,-5.922827,-0.957031,hello
1616135117.747443,1,55.0,9.0,-4.0,-8.0,-6.0,0.756653,-0.051025,-0.593994,0.26825,-0.145038,-0.145038,-0.274809,4.606909,-10.910156,2.038476,-3.933398,-7.029395,-0.79314,2.569629,-7.62395,-0.873291,hello
1616135117.7574842,1,56.0,8.0,-8.0,-9.0,-6.0,0.754639,-0.052856,-0.597717,0.26532,-0.145038,-0.21374,-0.435115,4.24563,-12.818237,1.455884,-4.3198,-8.927905,-1.286011,3.581689,-9.317896,-0.590967,hello
1616135117.7673378,1,57.0,8.0,-6.0,-9.0,-8.0,0.752808,-0.05304,-0.602295,0.260132,-0.152672,-0.236641,-0.664122,4.043457,-14.593531,0.811084,-4.572217,-10.739087,-1.823145,4.586572,-10.881445,-0.287109,hello
1616135117.7773702,1,57.0,8.0,-7.0,-9.0,-8.0,0.752014,-0.051025,-0.607056,0.251648,-0.175573,-0.198473,-0.954198,3.956128,-15.893896,0.196191,-4.739697,-12.14712,-2.329175,5.384497,-12.099268,-0.161499,hello
1616135117.7873633,1,55.0,8.0,-8.0,-9.0,-6.0,0.753235,-0.046509,-0.611084,0.23877,-0.221374,-0.083969,-1.282443,4.031494,-16.426245,-0.256006,-4.771997,-12.879248,-2.694043,5.775683,-12.744067,-0.295483,hello
1616135117.7973516,1,53.0,7.0,-7.0,-10.0,-6.0,0.757263,-0.039001,-0.613464,0.220581,-0.267176,0.083969,-1.633588,4.282715,-15.972852,-0.435449,-4.653564,-12.741674,-2.828027,5.624951,-12.641187,-0.732129,hello
1616135117.807339,1,54.0,5.0,-7.0,-7.0,-7.0,0.764465,-0.028137,-0.613037,0.197449,-0.267176,0.282443,-1.938931,4.385596,-14.723926,-0.285913,-4.69065,-11.929395,-2.703613,4.953833,-12.019116,-1.610205,hello
1616135117.8174613,1,55.0,8.0,-10.0,-8.0,-7.0,0.773682,-0.014404,-0.609741,0.171509,-0.21374,0.427481,-2.099237,4.19419,-12.795507,0.124414,-5.002881,-10.527344,-2.384204,3.880762,-10.873072,-2.868701,hello
1616135117.8272765,1,54.0,7.0,-11.0,-11.0,-7.0,0.783569,0.001404,-0.604126,0.144836,-0.145038,0.480916,-2.091603,3.925025,-10.103857,0.869702,-5.356982,-8.409912,-1.775293,2.380615,-8.948242,-4.099683,hello
1616135117.8372805,1,55.0,10.0,-4.0,-9.0,-6.0,0.793274,0.018616,-0.596863,0.118652,-0.091603,0.496183,-1.984733,3.713281,-6.591553,1.945166,-5.609399,-5.492163,-0.864917,0.515601,-6.116626,-4.968188,hello
1616135117.8464878,1,56.0,-1.0,-12.0,-8.0,-7.0,0.802368,0.036194,-0.588379,0.093018,-0.10687,0.465649,-1.801527,3.460864,-2.228687,3.302954,-5.857031,-1.725049,0.313428,-1.662842,-2.367456,-5.384497,hello
1616135117.8566935,1,54.0,8.0,-10.0,-9.0,-6.0,0.810303,0.052124,-0.579712,0.068054,-0.236641,0.381679,-1.526718,3.261084,2.399756,4.780371,-6.014941,2.344727,1.619775,-3.826929,1.745386,-5.157202,hello
1616135117.8667138,1,56.0,9.0,-7.0,-10.0,-6.0,0.81665,0.063965,-0.571838,0.044678,-0.412214,0.274809,-1.19084,3.296973,6.494653,6.116626,-5.912061,5.970679,2.805298,-5.498145,5.462256,-4.288696,hello
1616135117.8767428,1,55.0,5.0,-10.0,-7.0,-6.0,0.821411,0.071655,-0.565308,0.023621,-0.526718,0.167939,-0.900763,3.580493,9.752149,7.229175,-5.553174,8.859716,3.793433,-6.568823,8.444605,-3.039771,hello
1616135117.8867471,1,55.0,9.0,-8.0,-10.0,-6.0,0.824951,0.076843,-0.559875,0.00531,-0.519084,0.091603,-0.687023,4.13916,11.991602,8.000781,-4.920337,10.807276,4.459765,-6.975562,10.466333,-1.631738,hello
1616135117.897261,1,54.0,7.0,-10.0,-8.0,-6.0,0.827454,0.081726,-0.555481,-0.009644,-0.374046,0.053435,-0.557252,4.919141,13.128077,8.364453,-4.073364,11.697314,4.74209,-6.800903,11.38269,-0.277539,hello
1616135117.9072654,1,55.0,8.0,-11.0,-14.0,-6.0,0.828796,0.087097,-0.552307,-0.020935,-0.19084,0.015267,-0.442748,5.703906,13.525244,8.252002,-3.231177,11.882739,4.579394,-6.196777,11.558545,0.759644,hello
1616135117.9173195,1,55.0,10.0,-7.0,-9.0,-6.0,0.829163,0.09314,-0.550415,-0.029053,-0.045802,-0.030534,-0.328244,6.525757,13.561132,7.817749,-2.36626,11.733203,4.124804,-5.353394,11.359961,1.593457,hello
1616135117.926535,1,39.0,6.0,-8.0,-10.0,-6.0,0.828735,0.098816,-0.549683,-0.03479,0.015267,-0.053435,-0.229008,7.455274,13.192676,7.230371,-1.40564,11.211621,3.544605,-4.377222,10.753443,2.326782,hello
1616135117.936512,1,54.0,8.0,-9.0,-8.0,-6.0,0.828064,0.10321,-0.549744,-0.038757,0.007634,-0.061069,-0.137405,8.340528,12.410303,6.494653,-0.502441,10.316797,2.825635,-3.300561,9.792822,2.806494,hello
1616135117.946514,1,54.0,5.0,-13.0,-12.0,-7.0,0.827271,0.105774,-0.550171,-0.041565,-0.045802,-0.045802,-0.068702,9.069067,11.353979,5.718262,0.234473,9.189893,2.06958,-2.247827,8.640796,3.009863,hello
1616135117.956601,1,55.0,5.0,-8.0,-9.0,-6.0,0.826721,0.106567,-0.550659,-0.043823,-0.099237,-0.022901,-0.030534,9.605005,10.053614,4.953833,0.772803,7.853638,1.319507,-1.264477,7.328467,2.947656,hello
1616135117.9666245,1,55.0,8.0,-8.0,-11.0,-6.0,0.826416,0.10614,-0.551025,-0.045654,-0.122137,0.0,-0.015267,9.931592,8.586963,4.201367,1.100586,6.373828,0.573022,-0.363672,5.919238,2.642602,hello
1616135117.9766998,1,56.0,7.0,-10.0,-8.0,-6.0,0.826233,0.10498,-0.551453,-0.046936,-0.129771,0.015267,0.0,10.090698,7.132276,3.554175,1.256104,4.923926,-0.068188,0.360083,4.559058,2.215527,hello
1616135117.9867525,1,55.0,10.0,-8.0,-13.0,-7.0,0.82605,0.103394,-0.551941,-0.047852,-0.129771,0.007634,0.015267,10.112231,5.915649,3.046948,1.272852,3.722852,-0.571826,0.887646,3.446509,1.769312,hello
1616135117.9964802,1,54.0,5.0,-7.0,-10.0,-6.0,0.825806,0.101685,-0.552551,-0.048523,-0.129771,0.0,0.022901,10.050024,5.014844,2.719165,1.202271,2.842383,-0.893628,1.195093,2.64021,1.385303,hello
1616135118.006769,1,57.0,7.0,-7.0,-10.0,-6.0,0.825684,0.099915,-0.55304,-0.049255,-0.129771,0.0,0.022901,9.980639,4.350904,2.557666,1.126904,2.199975,-1.051538,1.337451,2.044458,1.112549,hello
1616135118.0164876,1,56.0,7.0,-6.0,-10.0,-7.0,0.825684,0.098328,-0.553284,-0.049927,-0.122137,0.015267,0.015267,9.929199,3.848462,2.512207,1.070679,1.715479,-1.098193,1.378125,1.586279,0.935498,hello
1616135118.026646,1,56.0,9.0,-10.0,-9.0,-6.0,0.825867,0.096924,-0.553162,-0.050659,-0.10687,0.038168,0.007634,9.871778,3.476416,2.555274,1.013257,1.357788,-1.062305,1.336255,1.241748,0.815869,hello
1616135118.036518,1,54.0,7.0,-7.0,-12.0,-6.0,0.826294,0.095581,-0.552673,-0.05127,-0.10687,0.061069,0.015267,9.759326,3.241943,2.60791,0.904395,1.137671,-1.02522,1.269263,1.041968,0.680689,hello
1616135118.046531,1,55.0,6.0,-12.0,-9.0,-7.0,0.826904,0.094177,-0.552002,-0.051697,-0.10687,0.068702,0.030534,9.61936,3.034985,2.660547,0.768018,0.948657,-0.99292,1.193897,0.878076,0.525171,hello
1616135118.0563755,1,55.0,8.0,-7.0,-8.0,-7.0,0.827576,0.092651,-0.55127,-0.051758,-0.091603,0.076336,0.053435,9.468628,2.78855,2.70481,0.619678,0.726147,-0.97019,1.122119,0.68667,0.34812,hello
1616135118.0665314,1,55.0,6.0,-10.0,-8.0,-7.0,0.828308,0.091125,-0.550354,-0.051331,-0.068702,0.083969,0.068702,9.341822,2.548096,2.819653,0.497656,0.514404,-0.879272,0.995313,0.492871,0.223706,hello
1616135118.076485,1,60.0,8.0,-8.0,-13.0,-6.0,0.829224,0.089661,-0.549377,-0.050476,-0.061069,0.091603,0.091603,9.205444,2.387793,2.989526,0.364868,0.386401,-0.736914,0.814673,0.38042,0.126807,hello
1616135118.0864732,1,56.0,9.0,-10.0,-9.0,-6.0,0.830139,0.088074,-0.548279,-0.049438,-0.061069,0.083969,0.10687,9.049927,2.281323,3.148633,0.214136,0.317017,-0.606519,0.636426,0.327783,0.023926,hello
1616135118.096395,1,55.0,9.0,-10.0,-12.0,-7.0,0.830994,0.086426,-0.547363,-0.048401,-0.068702,0.068702,0.10687,8.900391,2.168872,3.279028,0.066992,0.24165,-0.501245,0.482104,0.270361,-0.084937,hello
1616135118.1065404,1,56.0,7.0,-6.0,-10.0,-6.0,0.831665,0.084717,-0.546692,-0.047546,-0.068702,0.045802,0.091603,8.795117,2.006177,3.389087,-0.037085,0.114844,-0.411523,0.360083,0.155518,-0.169873,hello
1616135118.116578,1,55.0,9.0,-10.0,-10.0,-6.0,0.832153,0.08313,-0.546265,-0.046875,-0.061069,0.030534,0.068702,8.734106,1.813574,3.488379,-0.098096,-0.043066,-0.326587,0.260791,0.002393,-0.223706,hello
1616135118.1265604,1,54.0,7.0,-12.0,-7.0,-6.0,0.83252,0.081787,-0.545959,-0.046387,-0.045802,0.022901,0.045802,8.711377,1.619775,3.54939,-0.122021,-0.210547,-0.276343,0.206958,-0.162695,-0.257202,hello
1616135118.1364322,1,54.0,8.0,-8.0,-9.0,-6.0,0.832825,0.081055,-0.545654,-0.046082,-0.022901,0.022901,0.015267,8.716162,1.45708,3.602026,-0.117236,-0.35769,-0.233276,0.169873,-0.312231,-0.263184,hello
1616135118.1463535,1,55.0,5.0,-11.0,-10.0,-5.0,0.833008,0.080872,-0.545349,-0.045837,0.007634,0.022901,-0.007634,8.688647,1.416406,3.630737,-0.142358,-0.393579,-0.210547,0.139966,-0.344531,-0.283521,hello
1616135118.1565862,1,55.0,7.0,-10.0,-7.0,-7.0,0.833191,0.081177,-0.545105,-0.045654,0.022901,0.015267,-0.015267,8.669507,1.520483,3.669019,-0.159106,-0.291895,-0.177051,0.101685,-0.245239,-0.266772,hello
1616135118.1666338,1,54.0,8.0,-6.0,-13.0,-6.0,0.833313,0.081726,-0.5448,-0.045593,0.022901,0.015267,-0.015267,8.685059,1.695142,3.722852,-0.139966,-0.12561,-0.128003,0.062207,-0.088525,-0.198584,hello
1616135118.1764495,1,56.0,9.0,-11.0,-10.0,-6.0,0.833435,0.082275,-0.544556,-0.045471,0.022901,0.015267,-0.007634,8.716162,1.887744,3.764722,-0.105273,0.057422,-0.089722,0.038281,0.081348,-0.118433,hello
1616135118.186587,1,55.0,7.0,-10.0,-10.0,-6.0,0.833557,0.082703,-0.54425,-0.045349,0.015267,0.015267,0.007634,8.749659,2.077954,3.786255,-0.068188,0.242847,-0.072974,0.034692,0.256006,-0.044263,hello
1616135118.196439,1,54.0,9.0,-6.0,-12.0,-6.0,0.833679,0.083008,-0.544067,-0.045105,0.007634,0.015267,0.022901,8.78435,2.258594,3.804199,-0.0323,0.421094,-0.057422,0.0323,0.423486,0.026318,hello
1616135118.206492,1,54.0,8.0,-8.0,-9.0,-6.0,0.833801,0.083008,-0.543945,-0.044739,-0.007634,0.007634,0.038168,8.817846,2.369849,3.788647,0.001196,0.535937,-0.076563,0.061011,0.532349,0.070581,hello
1616135118.2163444,1,54.0,9.0,-7.0,-7.0,-6.0,0.833862,0.082642,-0.543945,-0.044312,-0.015267,0.007634,0.053435,8.853735,2.40813,3.773096,0.034692,0.584985,-0.093311,0.089722,0.576611,0.102881,hello
1616135118.226469,1,56.0,8.0,-6.0,-7.0,-6.0,0.833984,0.082031,-0.543884,-0.043762,-0.022901,0.007634,0.061069,8.852539,2.399756,3.740796,0.0323,0.592163,-0.129199,0.120825,0.587378,0.086133,hello
1616135118.2364008,1,54.0,8.0,-10.0,-7.0,-39.0,0.834045,0.08136,-0.543945,-0.043274,-0.030534,0.0,0.053435,8.836987,2.337549,3.718066,0.013159,0.545508,-0.151929,0.135181,0.546704,0.05144,hello
1616135118.2462964,1,55.0,7.0,-5.0,-11.0,-6.0,0.834106,0.080566,-0.544006,-0.042786,-0.030534,0.0,0.053435,8.80708,2.215527,3.701318,-0.017944,0.441431,-0.169873,0.139966,0.451001,-0.002393,hello
1616135118.256386,1,54.0,8.0,-10.0,-8.0,-4.0,0.834106,0.079834,-0.544128,-0.042236,-0.022901,-0.007634,0.045802,8.764013,2.074365,3.692944,-0.0646,0.318213,-0.178247,0.131592,0.33855,-0.070581,hello
1616135118.2664254,1,54.0,8.0,-7.0,-8.0,-8.0,0.834045,0.079346,-0.544312,-0.041626,0.0,-0.015267,0.038168,8.725733,1.941577,3.696533,-0.10647,0.19978,-0.172266,0.110059,0.227295,-0.128003,hello
1616135118.276251,1,56.0,8.0,-7.0,-12.0,-6.0,0.833984,0.079163,-0.544556,-0.040955,0.022901,-0.015267,0.030534,8.676684,1.820752,3.704907,-0.160303,0.088525,-0.159106,0.078955,0.12561,-0.191406,hello
1616135118.286497,1,54.0,8.0,-8.0,-10.0,-7.0,0.833801,0.079346,-0.5448,-0.0401,0.038168,-0.015267,0.030534,8.632421,1.760937,3.718066,-0.208154,0.035889,-0.139966,0.043066,0.078955,-0.235669,hello
1616135118.2964816,1,54.0,9.0,-8.0,-10.0,-6.0,0.833618,0.079773,-0.545105,-0.039185,0.053435,-0.022901,0.030534,8.585767,1.756152,3.72644,-0.258398,0.033496,-0.124414,0.008374,0.082544,-0.275146,hello
1616135118.3064702,1,54.0,7.0,-10.0,-10.0,-6.0,0.833374,0.080444,-0.545532,-0.038208,0.068702,-0.030534,0.030534,8.560644,1.78606,3.737207,-0.289502,0.063403,-0.102881,-0.022729,0.114844,-0.289502,hello
1616135118.3166292,1,54.0,5.0,-10.0,-9.0,-8.0,0.833008,0.081116,-0.545959,-0.037231,0.061069,-0.030534,0.030534,8.564234,1.845874,3.74917,-0.289502,0.122021,-0.078955,-0.046655,0.171069,-0.270361,hello
1616135118.326525,1,55.0,6.0,-7.0,-7.0,-6.0,0.832764,0.081604,-0.546387,-0.036438,0.045802,-0.030534,0.038168,8.590551,1.929614,3.779077,-0.269165,0.206958,-0.038281,-0.077759,0.247632,-0.221313,hello
1616135118.3363397,1,56.0,8.0,-10.0,-52.0,-8.0,0.83252,0.081665,-0.546753,-0.035706,0.015267,-0.030534,0.045802,8.6396,1.991821,3.80061,-0.223706,0.276343,-0.008374,-0.089722,0.305054,-0.156714,hello
1616135118.3463776,1,55.0,6.0,-10.0,-38.0,-6.0,0.832336,0.08136,-0.547119,-0.035095,-0.007634,-0.022901,0.053435,8.694629,1.998999,3.793433,-0.174658,0.294287,-0.008374,-0.070581,0.31582,-0.110059,hello
1616135118.3564205,1,55.0,8.0,-8.0,-9.0,-6.0,0.832275,0.080688,-0.547302,-0.034546,-0.022901,-0.015267,0.053435,8.718554,1.951147,3.776685,-0.154321,0.263184,-0.023926,-0.046655,0.283521,-0.102881,hello
1616135118.3664937,1,54.0,8.0,-8.0,-9.0,-6.0,0.832275,0.079956,-0.547485,-0.034058,-0.022901,-0.007634,0.053435,8.717359,1.873389,3.759937,-0.159106,0.203369,-0.039478,-0.0323,0.226099,-0.124414,hello
1616135118.3763978,1,54.0,8.0,-8.0,-8.0,-6.0,0.832275,0.079224,-0.547607,-0.033386,-0.022901,-0.007634,0.053435,8.706592,1.801611,3.762329,-0.173462,0.150732,-0.035889,-0.040674,0.175854,-0.144751,hello
1616135118.386593,1,55.0,9.0,-6.0,-8.0,-6.0,0.832336,0.078491,-0.547668,-0.032715,-0.015267,-0.007634,0.061069,8.699414,1.756152,3.777881,-0.184229,0.124414,-0.021533,-0.057422,0.149536,-0.154321,hello
1616135118.396345,1,54.0,8.0,-8.0,-8.0,-6.0,0.832397,0.077881,-0.547729,-0.031982,-0.007634,-0.007634,0.061069,8.694629,1.722656,3.805396,-0.192603,0.107666,0.003589,-0.082544,0.131592,-0.155518,hello
1616135118.4064617,1,55.0,5.0,-7.0,-13.0,-6.0,0.832397,0.077332,-0.547852,-0.031189,-0.007634,-0.007634,0.061069,8.674292,1.709497,3.837695,-0.216528,0.112451,0.037085,-0.123218,0.136377,-0.162695,hello
1616135118.4165409,1,55.0,13.0,-11.0,-7.0,-6.0,0.832397,0.076782,-0.547974,-0.030334,0.0,-0.015267,0.061069,8.627637,1.71189,3.868799,-0.266772,0.132788,0.069385,-0.173462,0.160303,-0.193799,hello
