timestamp,user_id,flex_1,flex_2,flex_3,flex_4,flex_5,Qw,Qx,Qy,Qz,GYRx,GYRy,GYRz,ACCx,ACCy,ACCz,ACCx_body,ACCy_body,ACCz_body,ACCx_world,ACCy_world,ACCz_world,Alphabet
1616136758.3627405,1,19.0,32.0,58.0,59.0,35.0,0.59729,0.738647,-0.287537,0.122314,-0.007634,0.0,0.0,5.492163,8.280713,-2.871094,0.354102,0.321802,-0.356494,0.159106,0.200977,0.53833,hungry
1616136758.3728368,1,20.0,32.0,54.0,57.0,38.0,0.597229,0.738647,-0.287537,0.122375,-0.007634,0.0,0.0,5.495752,8.277124,-2.874683,0.35769,0.319409,-0.358887,0.162695,0.203369,0.53833,hungry
1616136758.3828475,1,19.0,32.0,58.0,57.0,35.0,0.597229,0.738647,-0.287598,0.122437,-0.007634,0.0,0.0,5.494555,8.27832,-2.880664,0.355298,0.321802,-0.364868,0.160303,0.209351,0.540723,hungry
1616136758.3920105,1,20.0,34.0,57.0,56.0,39.0,0.597229,0.738647,-0.287598,0.122437,-0.007634,0.0,-0.007634,5.492163,8.274732,-2.893823,0.352905,0.318213,-0.378027,0.162695,0.22251,0.539526,hungry
1616136758.4022644,1,20.0,31.0,56.0,57.0,33.0,0.597168,0.738586,-0.287598,0.122498,-0.007634,0.0,-0.007634,5.487378,8.263965,-2.890234,0.346924,0.308643,-0.374438,0.162695,0.22251,0.527563,hungry
1616136758.4129062,1,17.0,32.0,57.0,57.0,32.0,0.597168,0.738586,-0.287659,0.122559,-0.007634,0.0,-0.007634,5.487378,8.25559,-2.892627,0.345728,0.301465,-0.376831,0.166284,0.226099,0.521582,hungry
1616136758.422824,1,20.0,31.0,56.0,58.0,38.0,0.597168,0.738647,-0.287659,0.12262,-0.007634,0.0,-0.007634,5.477808,8.257983,-2.886646,0.334961,0.302661,-0.37085,0.156714,0.22251,0.515601,hungry
1616136758.4322555,1,21.0,32.0,57.0,58.0,40.0,0.597107,0.738647,-0.287598,0.12262,-0.007634,0.0,-0.007634,5.464648,8.267553,-2.875879,0.322998,0.313428,-0.358887,0.13877,0.212939,0.515601,hungry
1616136758.4422677,1,20.0,31.0,58.0,57.0,33.0,0.597046,0.738708,-0.287598,0.12262,0.0,0.0,-0.007634,5.453882,8.281909,-2.860327,0.312231,0.327783,-0.342139,0.118433,0.198584,0.516797,hungry
1616136758.452412,1,19.0,31.0,56.0,58.0,36.0,0.597046,0.73877,-0.287537,0.12262,-0.007634,0.0,-0.007634,5.449097,8.298657,-2.841187,0.308643,0.344531,-0.321802,0.102881,0.178247,0.523975,hungry
1616136758.4627652,1,19.0,31.0,55.0,57.0,36.0,0.597046,0.73877,-0.287537,0.122559,-0.007634,0.0,-0.007634,5.449097,8.314209,-2.837598,0.308643,0.358887,-0.318213,0.094507,0.173462,0.534741,hungry
1616136758.4721074,1,19.0,29.0,56.0,57.0,39.0,0.597046,0.73877,-0.287476,0.122498,-0.007634,0.0,-0.007634,5.446704,8.328565,-2.83999,0.308643,0.373242,-0.321802,0.087329,0.174658,0.546704,hungry
1616136758.4820576,1,22.0,33.0,57.0,58.0,37.0,0.597046,0.738831,-0.287415,0.122437,-0.007634,0.0,-0.007634,5.450293,8.336939,-2.842383,0.313428,0.38042,-0.322998,0.087329,0.173462,0.555078,hungry
1616136758.4927726,1,20.0,31.0,54.0,57.0,33.0,0.597107,0.738831,-0.287354,0.122375,-0.015267,0.0,-0.015267,5.450293,8.341723,-2.853149,0.314624,0.384009,-0.334961,0.087329,0.184229,0.562256,hungry
1616136758.5022788,1,19.0,31.0,54.0,60.0,39.0,0.597229,0.73877,-0.287292,0.122253,-0.015267,0.0,-0.015267,5.457471,8.348902,-2.860327,0.324194,0.388794,-0.344531,0.094507,0.19021,0.573022,hungry
1616136758.5120597,1,17.0,33.0,54.0,57.0,35.0,0.597351,0.73877,-0.28717,0.122131,-0.015267,0.0,-0.015267,5.467041,8.372828,-2.871094,0.336157,0.410327,-0.356494,0.094507,0.196191,0.600537,hungry
1616136758.5221114,1,19.0,33.0,54.0,57.0,37.0,0.597534,0.738647,-0.287109,0.121948,-0.030534,0.0,-0.015267,5.476611,8.390772,-2.863916,0.34812,0.425879,-0.352905,0.094507,0.186621,0.618481,hungry
1616136758.532099,1,20.0,31.0,58.0,57.0,37.0,0.5979,0.738403,-0.286987,0.121826,-0.030534,0.0,-0.015267,5.481397,8.38479,-2.847168,0.354102,0.416309,-0.344531,0.104077,0.179443,0.611304,hungry
1616136758.5421596,1,21.0,31.0,54.0,57.0,37.0,0.598206,0.738159,-0.286926,0.121704,-0.038168,0.007634,-0.015267,5.477808,8.351294,-2.844775,0.351709,0.38042,-0.349316,0.123218,0.189014,0.581396,hungry
1616136758.5521235,1,19.0,32.0,54.0,59.0,35.0,0.598511,0.737976,-0.286865,0.121643,-0.030534,0.007634,-0.015267,5.465845,8.322583,-2.834009,0.340942,0.349316,-0.345728,0.131592,0.192603,0.549097,hungry
1616136758.562112,1,20.0,33.0,57.0,57.0,36.0,0.598755,0.737793,-0.286804,0.121521,-0.022901,0.0,-0.007634,5.451489,8.291479,-2.818457,0.327783,0.31582,-0.334961,0.13877,0.19021,0.513208,hungry
1616136758.572147,1,19.0,33.0,57.0,57.0,36.0,0.598938,0.737671,-0.286743,0.121521,-0.022901,0.0,-0.007634,5.444312,8.261572,-2.801709,0.320605,0.284717,-0.322998,0.14834,0.184229,0.480908,hungry
1616136758.5821235,1,22.0,32.0,57.0,57.0,33.0,0.59906,0.73761,-0.286743,0.121521,-0.015267,0.0,-0.007634,5.439527,8.238843,-2.795727,0.31582,0.260791,-0.319409,0.15791,0.185425,0.456982,hungry
1616136758.592096,1,22.0,33.0,55.0,57.0,37.0,0.59906,0.73761,-0.286743,0.121643,-0.007634,0.007634,0.0,5.425171,8.225683,-2.790942,0.299072,0.247632,-0.314624,0.150732,0.187817,0.436646,hungry
1616136758.6020749,1,20.0,33.0,54.0,57.0,36.0,0.598999,0.73761,-0.286743,0.121765,0.0,0.0,0.0,5.403638,8.240039,-2.782568,0.276343,0.26438,-0.30625,0.122021,0.184229,0.436646,hungry
1616136758.6121,1,20.0,31.0,56.0,59.0,37.0,0.598938,0.737671,-0.286682,0.121826,0.0,0.0,-0.007634,5.382104,8.275928,-2.769409,0.25481,0.300269,-0.291895,0.081348,0.172266,0.451001,hungry
1616136758.6219757,1,19.0,31.0,37.0,57.0,33.0,0.598938,0.737671,-0.286682,0.121765,-0.007634,0.0,-0.007634,5.372534,8.313013,-2.764624,0.246436,0.337354,-0.287109,0.052637,0.165088,0.474927,hungry
1616136758.6322243,1,21.0,32.0,60.0,57.0,36.0,0.598999,0.737671,-0.286682,0.121704,-0.015267,-0.007634,-0.007634,5.379712,8.333349,-2.76582,0.253613,0.356494,-0.288306,0.047852,0.161499,0.495264,hungry
1616136758.6419704,1,19.0,33.0,57.0,48.0,36.0,0.59906,0.73761,-0.286621,0.121704,-0.015267,0.0,-0.007634,5.395264,8.333349,-2.76582,0.270361,0.355298,-0.290698,0.063403,0.160303,0.503638,hungry
1616136758.6520815,1,18.0,29.0,56.0,59.0,37.0,0.599121,0.737549,-0.286621,0.121704,-0.015267,0.0,-0.007634,5.409619,8.323779,-2.782568,0.283521,0.345728,-0.308643,0.081348,0.174658,0.507227,hungry
1616136758.6622198,1,20.0,31.0,57.0,59.0,37.0,0.599182,0.737549,-0.28656,0.121765,-0.007634,0.007634,-0.007634,5.421582,8.318995,-2.782568,0.295483,0.340942,-0.309839,0.094507,0.173462,0.509619,hungry
1616136758.6720808,1,20.0,31.0,58.0,57.0,36.0,0.599243,0.737488,-0.28656,0.121826,-0.007634,0.0,-0.007634,5.427564,8.322583,-2.781372,0.300269,0.344531,-0.311035,0.096899,0.172266,0.515601,hungry
1616136758.6821234,1,20.0,35.0,54.0,57.0,36.0,0.599304,0.737427,-0.286499,0.121887,-0.015267,0.0,-0.007634,5.435937,8.322583,-2.777783,0.308643,0.344531,-0.308643,0.102881,0.16748,0.519189,hungry
1616136758.691948,1,20.0,32.0,55.0,57.0,33.0,0.599365,0.737366,-0.286499,0.121948,-0.015267,0.0,-0.007634,5.444312,8.324976,-2.789746,0.31582,0.346924,-0.322998,0.110059,0.179443,0.52876,hungry
1616136758.702239,1,19.0,32.0,57.0,57.0,37.0,0.599487,0.737305,-0.286499,0.121948,-0.015267,0.0,-0.007634,5.453882,8.322583,-2.784961,0.324194,0.343335,-0.320605,0.118433,0.175854,0.52876,hungry
1616136758.712157,1,20.0,29.0,54.0,57.0,36.0,0.599609,0.737183,-0.286438,0.121887,-0.015267,0.0,-0.007634,5.464648,8.32019,-2.782568,0.336157,0.339746,-0.321802,0.130396,0.173462,0.532349,hungry
1616136758.72201,1,21.0,33.0,57.0,57.0,36.0,0.599731,0.737122,-0.286438,0.121887,-0.015267,0.0,-0.007634,5.482593,8.317798,-2.776587,0.354102,0.337354,-0.317017,0.144751,0.165088,0.539526,hungry
1616136758.7320626,1,20.0,31.0,54.0,58.0,36.0,0.599854,0.737,-0.286438,0.121948,-0.015267,0.007634,-0.007634,5.492163,8.31062,-2.789746,0.362476,0.330176,-0.333765,0.159106,0.179443,0.541919,hungry
1616136758.7418792,1,17.0,28.0,54.0,57.0,39.0,0.599976,0.736877,-0.286377,0.12207,-0.015267,0.007634,-0.007634,5.499341,8.315405,-2.795727,0.368457,0.334961,-0.343335,0.162695,0.186621,0.551489,hungry
1616136758.7521029,1,17.0,32.0,53.0,57.0,35.0,0.600159,0.736755,-0.286377,0.122131,-0.015267,0.007634,0.0,5.500537,8.313013,-2.795727,0.367261,0.331372,-0.34812,0.163892,0.192603,0.549097,hungry
1616136758.7620704,1,22.0,31.0,57.0,57.0,36.0,0.600281,0.736633,-0.286316,0.122253,-0.015267,0.007634,-0.007634,5.499341,8.311816,-2.804101,0.364868,0.330176,-0.360083,0.165088,0.204565,0.549097,hungry
1616136758.7720551,1,21.0,33.0,57.0,58.0,37.0,0.600464,0.736511,-0.286255,0.122375,-0.015267,0.007634,-0.007634,5.500537,8.316602,-2.810083,0.364868,0.334961,-0.37085,0.163892,0.214136,0.556274,hungry
1616136758.7820554,1,19.0,31.0,34.0,57.0,36.0,0.600647,0.736389,-0.286133,0.122498,-0.022901,0.015267,0.0,5.500537,8.327368,-2.817261,0.363672,0.344531,-0.382812,0.159106,0.226099,0.565845,hungry
1616136758.791965,1,20.0,33.0,57.0,58.0,39.0,0.600769,0.736267,-0.286133,0.122681,-0.022901,0.015267,0.0,5.500537,8.333349,-2.831616,0.360083,0.351709,-0.400757,0.155518,0.242847,0.574219,hungry
1616136758.802036,1,21.0,32.0,58.0,58.0,36.0,0.601013,0.736084,-0.286072,0.122803,-0.022901,0.015267,0.0,5.496948,8.347705,-2.841187,0.355298,0.364868,-0.416309,0.145947,0.258398,0.586182,hungry
1616136758.812031,1,22.0,35.0,58.0,61.0,35.0,0.601196,0.735901,-0.286011,0.122986,-0.022901,0.015267,0.0,5.49336,8.360865,-2.83042,0.34812,0.378027,-0.411523,0.131592,0.25481,0.592163,hungry
1616136758.8218791,1,21.0,30.0,54.0,57.0,36.0,0.601562,0.735657,-0.285889,0.123169,-0.030534,0.015267,0.0,5.492163,8.365649,-2.819653,0.344531,0.381616,-0.409131,0.126807,0.253613,0.592163,hungry
1616136758.831998,1,20.0,33.0,56.0,57.0,39.0,0.601929,0.735352,-0.285828,0.123352,-0.030534,0.022901,0.0,5.507715,8.362061,-2.790942,0.35769,0.376831,-0.38999,0.136377,0.233276,0.58977,hungry
1616136758.8419125,1,19.0,33.0,57.0,57.0,36.0,0.602356,0.734985,-0.285767,0.123596,-0.038168,0.022901,0.0,5.479004,8.347705,-2.764624,0.324194,0.362476,-0.375635,0.11604,0.230884,0.556274,hungry
1616136758.8520808,1,21.0,32.0,57.0,57.0,36.0,0.602722,0.734619,-0.285706,0.123779,-0.038168,0.022901,0.007634,5.432349,8.321386,-2.767017,0.27395,0.336157,-0.387598,0.092114,0.258398,0.512012,hungry
1616136758.8621116,1,20.0,32.0,58.0,58.0,35.0,0.603149,0.734314,-0.285583,0.124023,-0.038168,0.022901,0.0,5.395264,8.302246,-2.770606,0.233276,0.314624,-0.401953,0.07417,0.287109,0.476123,hungry
1616136758.8719163,1,22.0,32.0,57.0,57.0,36.0,0.603455,0.734009,-0.285522,0.124146,-0.038168,0.015267,0.0,5.340234,8.309423,-2.804101,0.177051,0.321802,-0.44502,0.031104,0.342139,0.461768,hungry
1616136758.8819923,1,21.0,31.0,54.0,58.0,37.0,0.603821,0.733765,-0.285522,0.124146,-0.038168,0.007634,0.007634,5.279223,8.357275,-2.822046,0.113647,0.367261,-0.470142,-0.040674,0.379224,0.471338,hungry
1616136758.8919263,1,20.0,33.0,54.0,57.0,49.0,0.60437,0.733337,-0.285522,0.124084,-0.061069,0.015267,0.007634,5.211035,8.450586,-2.743091,0.044263,0.456982,-0.404346,-0.15791,0.325391,0.491675,hungry
1616136758.9019806,1,19.0,34.0,58.0,58.0,39.0,0.605652,0.732422,-0.285217,0.123962,-0.099237,0.038168,0.0,5.098584,8.669507,-2.365063,-0.065796,0.667529,-0.055029,-0.42229,0.0,0.522778,hungry
1616136758.9119265,1,19.0,29.0,54.0,57.0,35.0,0.608459,0.730469,-0.284241,0.123779,-0.175573,0.076336,-0.007634,4.945459,8.985327,-1.557568,-0.215332,0.963013,0.684277,-0.831421,-0.692651,0.517993,hungry
1616136758.9219325,1,20.0,31.0,56.0,58.0,38.0,0.613281,0.72699,-0.282715,0.123962,-0.274809,0.145038,0.0,4.779175,9.107348,-0.398364,-0.385205,1.055127,1.727441,-1.1927,-1.653271,0.288306,hungry
1616136758.9318671,1,21.0,33.0,56.0,60.0,35.0,0.619751,0.722107,-0.28064,0.124939,-0.343511,0.221374,0.015267,4.399951,8.719751,0.785962,-0.776392,0.635229,2.750268,-1.445117,-2.506226,-0.436646,hungry
1616136758.941856,1,20.0,33.0,54.0,57.0,39.0,0.626404,0.71698,-0.278381,0.126343,-0.328244,0.229008,0.015267,3.794629,7.871582,1.8375,-1.398462,-0.24165,3.631934,-1.610205,-3.165381,-1.60542,hungry
1616136758.9519312,1,21.0,29.0,32.0,56.0,37.0,0.632202,0.712463,-0.276306,0.127502,-0.259542,0.175573,0.007634,3.029004,6.809278,2.915356,-2.174854,-1.327881,4.56145,-1.799219,-3.860425,-3.023022,hungry
1616136758.9618478,1,20.0,31.0,54.0,57.0,36.0,0.637024,0.70874,-0.274658,0.127808,-0.175573,0.068702,-0.007634,2.184424,5.763721,4.041064,-3.019433,-2.396167,5.565137,-2.080347,-4.641602,-4.464551,hungry
1616136758.9720411,1,21.0,31.0,58.0,57.0,38.0,0.640686,0.705933,-0.273987,0.126526,-0.10687,-0.091603,-0.022901,1.302759,4.706201,5.103369,-3.887939,-3.478809,6.542505,-2.397363,-5.397656,-5.92522,hungry
1616136758.9819684,1,20.0,34.0,58.0,57.0,36.0,0.642822,0.704285,-0.274841,0.122925,-0.038168,-0.305344,-0.061069,0.325391,3.622363,5.985034,-4.834204,-4.587769,7.388281,-2.787354,-5.977857,-7.446899,hungry
1616136758.9919622,1,21.0,37.0,57.0,57.0,35.0,0.643188,0.704163,-0.277283,0.116028,0.030534,-0.564885,-0.129771,-0.667529,2.53374,6.626245,-5.763721,-5.71228,8.052221,-3.194092,-6.314013,-8.975757,hungry
1616136759.002056,1,19.0,33.0,57.0,60.0,37.0,0.641235,0.705994,-0.281433,0.105286,0.129771,-0.854962,-0.229008,-1.591064,1.381714,6.658545,-6.584375,-6.909766,8.180224,-3.451294,-6.03169,-10.472315,hungry
1616136759.0119064,1,20.0,36.0,58.0,57.0,37.0,0.635681,0.710632,-0.287537,0.090637,0.282443,-1.152672,-0.335878,-2.335156,0.410327,6.04126,-7.178931,-7.932593,7.759131,-3.554175,-5.097388,-11.662622,hungry
1616136759.0219674,1,20.0,36.0,60.0,57.0,38.0,0.62561,0.718567,-0.295105,0.072021,0.473282,-1.442748,-0.442748,-2.901001,0.028711,4.448999,-7.533032,-8.365649,6.475513,-3.561352,-3.22041,-12.065771,hungry
1616136759.0319002,1,19.0,36.0,57.0,58.0,41.0,0.610352,0.729614,-0.30426,0.049744,0.656489,-1.709924,-0.526718,-3.044556,0.52876,2.165283,-7.395459,-7.902686,4.614087,-3.37832,-0.863721,-11.235547,hungry
1616136759.042124,1,19.0,36.0,56.0,59.0,39.0,0.591431,0.741943,-0.314697,0.025146,0.740458,-1.877863,-0.541985,-2.592358,1.894922,-0.361279,-6.605908,-6.549683,2.569629,-2.89502,1.262085,-9.118115,hungry
1616136759.0520778,1,19.0,34.0,61.0,60.0,36.0,0.571045,0.753418,-0.325867,0.000427,0.725191,-1.89313,-0.503817,-1.742993,3.6427,-3.100781,-5.39646,-4.786353,0.30625,-2.010962,3.031396,-6.235059,hungry
1616136759.0620549,1,21.0,39.0,60.0,60.0,40.0,0.549622,0.763916,-0.337219,-0.022705,0.725191,-1.80916,-0.442748,-0.657959,5.187109,-6.023315,-3.950146,-3.191699,-2.154517,-0.608911,4.446607,-3.204858,hungry
1616136759.072091,1,20.0,36.0,61.0,58.0,36.0,0.527771,0.773621,-0.348022,-0.04248,0.763359,-1.625954,-0.374046,0.484497,6.659741,-8.83938,-2.470337,-1.631738,-4.533936,0.905591,5.336646,-0.133984,hungry
1616136759.0818496,1,20.0,37.0,62.0,58.0,37.0,0.50531,0.783081,-0.357727,-0.058533,0.832061,-1.419847,-0.320611,1.485791,7.956519,-11.653051,-1.158008,-0.209351,-6.925317,2.388989,5.956323,2.853149,hungry
1616136759.0920246,1,22.0,37.0,56.0,62.0,39.0,0.483887,0.791809,-0.365906,-0.070312,0.832061,-1.145038,-0.251908,2.673706,9.612183,-13.760913,0.294287,1.598242,-8.646777,3.418994,5.568726,5.889331,hungry
1616136759.1019704,1,1.0,37.0,61.0,60.0,39.0,0.466187,0.79895,-0.371826,-0.077637,0.717557,-0.80916,-0.206107,3.690552,11.273829,-15.310107,1.50852,3.407031,-9.888525,3.950146,4.805493,8.540308,hungry
1616136759.1118772,1,22.0,36.0,62.0,60.0,39.0,0.452515,0.804565,-0.375671,-0.082031,0.549618,-0.549618,-0.167939,4.326978,12.550268,-16.447779,2.288501,4.810278,-10.79292,4.154712,4.157104,10.501025,hungry
1616136759.1220176,1,21.0,38.0,58.0,59.0,38.0,0.442566,0.808594,-0.378174,-0.0849,0.358779,-0.381679,-0.129771,4.806689,13.521655,-17.025585,2.871094,5.877368,-11.20564,4.143945,3.434546,11.803784,hungry
1616136759.131876,1,18.0,35.0,56.0,58.0,39.0,0.436829,0.810913,-0.379456,-0.087097,0.152672,-0.251908,-0.129771,5.097388,14.103052,-16.94663,3.232373,6.511401,-11.034571,3.957324,2.701221,12.313403,hungry
1616136759.1420374,1,20.0,37.0,58.0,62.0,39.0,0.434631,0.811829,-0.379517,-0.089111,-0.038168,-0.145038,-0.129771,5.311523,14.260962,-16.224072,3.495557,6.681274,-10.282104,3.712085,1.903296,12.046631,hungry
1616136759.1519425,1,19.0,37.0,58.0,61.0,39.0,0.435852,0.811584,-0.378235,-0.090759,-0.183206,-0.022901,-0.152672,5.355786,14.147314,-14.983521,3.567334,6.541308,-9.067871,3.313721,1.135278,11.199658,hungry
1616136759.1620526,1,19.0,36.0,58.0,60.0,41.0,0.439636,0.810486,-0.375854,-0.092285,-0.305344,0.053435,-0.160305,5.153613,13.699903,-13.476196,3.380713,6.035278,-7.631128,2.843579,0.577808,9.881348,hungry
1616136759.1718285,1,19.0,35.0,58.0,62.0,41.0,0.444763,0.808777,-0.373108,-0.093933,-0.366412,0.083969,-0.145038,4.809082,12.897192,-11.848047,3.044556,5.159595,-6.097486,2.409326,0.185425,8.198169,hungry
1616136759.1819432,1,20.0,32.0,60.0,60.0,40.0,0.450073,0.806885,-0.370483,-0.095459,-0.358779,0.083969,-0.122137,4.407129,11.759521,-10.356275,2.648584,3.947754,-4.705005,2.144946,0.008374,6.334351,hungry
1616136759.191846,1,20.0,33.0,59.0,58.0,40.0,0.453857,0.805542,-0.368469,-0.096436,-0.244275,0.061069,-0.099237,3.965698,10.447192,-9.188696,2.209546,2.583984,-3.608008,2.02771,0.058618,4.521973,hungry
1616136759.2018282,1,20.0,37.0,61.0,57.0,39.0,0.455261,0.805237,-0.367371,-0.096619,-0.083969,0.030534,-0.061069,3.521875,9.351392,-8.302246,1.768115,1.470239,-2.747876,1.863818,0.153125,3.055322,hungry
1616136759.211773,1,22.0,38.0,59.0,58.0,37.0,0.45459,0.805786,-0.367126,-0.096252,0.053435,0.0,-0.022901,3.057715,8.71377,-7.748364,1.306348,0.840991,-2.179639,1.570728,0.288306,2.146142,hungry
1616136759.221077,1,21.0,37.0,62.0,59.0,41.0,0.452637,0.806641,-0.367676,-0.095825,0.122137,-0.038168,0.015267,2.673706,8.58457,-7.413404,0.925928,0.736914,-1.808789,1.166382,0.327783,1.788452,hungry
1616136759.2318878,1,21.0,32.0,58.0,58.0,39.0,0.450745,0.807251,-0.368713,-0.09552,0.114504,-0.053435,0.045802,2.421289,8.744873,-7.212427,0.674707,0.922339,-1.574316,0.775195,0.277539,1.760937,hungry
1616136759.2411067,1,20.0,35.0,60.0,60.0,39.0,0.449463,0.807556,-0.369751,-0.09552,0.061069,-0.053435,0.038168,2.21792,8.900391,-7.204053,0.471338,1.093408,-1.542017,0.525171,0.334961,1.844678,hungry
1616136759.2513156,1,20.0,33.0,58.0,58.0,35.0,0.44873,0.807617,-0.370422,-0.095764,0.007634,-0.038168,0.022901,2.061206,8.95542,-7.3177,0.318213,1.156811,-1.643701,0.43186,0.483301,1.928418,hungry
1616136759.2610512,1,21.0,33.0,61.0,57.0,41.0,0.448608,0.807556,-0.370605,-0.096069,-0.045802,-0.007634,-0.007634,1.993018,8.866895,-7.443311,0.25481,1.068286,-1.768115,0.494067,0.635229,1.918848,hungry
1616136759.2719002,1,20.0,37.0,57.0,63.0,37.0,0.449036,0.807495,-0.370178,-0.096252,-0.076336,0.022901,-0.030534,1.977466,8.688647,-7.546191,0.242847,0.882861,-1.87937,0.636426,0.777588,1.832715,hungry
1616136759.281035,1,19.0,35.0,57.0,57.0,38.0,0.449768,0.807495,-0.369202,-0.096191,-0.083969,0.061069,-0.053435,1.988232,8.456568,-7.58208,0.25481,0.641211,-1.928418,0.79314,0.882861,1.667627,hungry
1616136759.2917671,1,19.0,36.0,62.0,64.0,42.0,0.450684,0.807678,-0.367798,-0.095703,-0.083969,0.099237,-0.068702,2.033691,8.182617,-7.53064,0.299072,0.35769,-1.891333,0.949854,0.923535,1.425977,hungry
1616136759.3012846,1,21.0,37.0,61.0,62.0,39.0,0.451599,0.808105,-0.366028,-0.094666,-0.053435,0.129771,-0.083969,2.076758,7.9302,-7.403833,0.336157,0.098096,-1.776489,1.049145,0.913965,1.156811,hungry
1616136759.3111188,1,20.0,36.0,61.0,59.0,37.0,0.452393,0.808838,-0.363892,-0.093201,-0.030534,0.160305,-0.091603,2.088721,7.787842,-7.172949,0.33855,-0.047852,-1.55398,1.012061,0.819458,0.912769,hungry
1616136759.3210945,1,20.0,37.0,61.0,59.0,39.0,0.453186,0.809631,-0.36145,-0.091553,-0.007634,0.175573,-0.10687,2.030102,7.798608,-6.883447,0.271558,-0.040674,-1.272852,0.821851,0.680689,0.744092,hungry
1616136759.3318942,1,20.0,37.0,58.0,62.0,41.0,0.454102,0.810486,-0.358826,-0.09021,-0.015267,0.160305,-0.114504,1.94397,7.945752,-6.553271,0.183032,0.096899,-0.953442,0.533545,0.485693,0.65437,hungry
1616136759.3412914,1,20.0,41.0,61.0,60.0,40.0,0.455322,0.811035,-0.356201,-0.089417,-0.045802,0.137405,-0.114504,1.857837,8.144336,-6.230273,0.099292,0.281128,-0.649585,0.236865,0.278735,0.6125,hungry
1616136759.3513155,1,19.0,35.0,58.0,59.0,37.0,0.456848,0.811218,-0.35376,-0.089294,-0.076336,0.099237,-0.114504,1.784863,8.296265,-5.962305,0.035889,0.41272,-0.409131,0.014355,0.11604,0.569434,hungry
1616136759.361206,1,21.0,37.0,60.0,60.0,41.0,0.458435,0.811218,-0.351624,-0.089783,-0.091603,0.053435,-0.114504,1.754956,8.350098,-5.740991,0.022729,0.441431,-0.217725,-0.095703,-0.013159,0.482104,hungry
1616136759.371884,1,20.0,35.0,59.0,58.0,38.0,0.4599,0.811096,-0.349731,-0.090698,-0.091603,0.030534,-0.10687,1.760937,8.374023,-5.561548,0.050244,0.440234,-0.068188,-0.143555,-0.131592,0.403149,hungry
1616136759.381206,1,19.0,35.0,60.0,59.0,41.0,0.461121,0.811035,-0.348022,-0.091736,-0.083969,0.007634,-0.10687,1.764526,8.369238,-5.492163,0.076563,0.41272,-0.025122,-0.129199,-0.168677,0.361279,hungry
1616136759.39128,1,20.0,36.0,60.0,60.0,42.0,0.462036,0.811035,-0.346558,-0.092712,-0.068702,0.007634,-0.099237,1.82793,8.365649,-5.474219,0.162695,0.391187,-0.026318,-0.052637,-0.216528,0.360083,hungry
1616136759.4012434,1,20.0,36.0,57.0,62.0,41.0,0.462769,0.811096,-0.345276,-0.093384,-0.053435,0.015267,-0.083969,1.916455,8.359668,-5.496948,0.269165,0.369653,-0.0646,0.055029,-0.252417,0.381616,hungry
1616136759.4111774,1,21.0,34.0,58.0,62.0,38.0,0.463257,0.811218,-0.344177,-0.093567,-0.030534,0.030534,-0.068702,1.970288,8.38479,-5.55437,0.332568,0.387598,-0.132788,0.126807,-0.252417,0.44502,hungry
1616136759.4212246,1,22.0,38.0,62.0,57.0,41.0,0.463623,0.811462,-0.34314,-0.093384,-0.015267,0.038168,-0.061069,1.967896,8.454175,-5.62854,0.334961,0.452197,-0.212939,0.136377,-0.220117,0.541919,hungry
1616136759.4310958,1,20.0,37.0,59.0,60.0,39.0,0.463806,0.811829,-0.342163,-0.093201,0.0,0.038168,-0.053435,1.94397,8.55586,-5.697925,0.31582,0.550293,-0.284717,0.111255,-0.19021,0.659155,hungry
1616136759.441166,1,19.0,37.0,59.0,59.0,39.0,0.46405,0.812073,-0.341309,-0.092957,-0.007634,0.038168,-0.045802,1.928418,8.692236,-5.739795,0.302661,0.683081,-0.330176,0.061011,-0.194995,0.789551,hungry
1616136759.4510093,1,7.0,37.0,60.0,61.0,39.0,0.464417,0.812195,-0.340576,-0.092834,-0.015267,0.030534,-0.038168,1.893726,8.834595,-5.758935,0.270361,0.820654,-0.355298,-0.013159,-0.203369,0.911572,hungry
1616136759.46113,1,22.0,35.0,60.0,59.0,37.0,0.464905,0.812195,-0.339905,-0.092896,-0.030534,0.022901,-0.030534,1.848267,8.927905,-5.770898,0.229687,0.907983,-0.375635,-0.07417,-0.191406,0.986938,hungry
1616136759.471243,1,20.0,37.0,60.0,61.0,39.0,0.465454,0.812073,-0.339355,-0.093079,-0.038168,0.015267,-0.030534,1.824341,8.964991,-5.785254,0.209351,0.936694,-0.401953,-0.089722,-0.169873,1.021631,hungry
1616136759.4809897,1,17.0,36.0,60.0,61.0,38.0,0.466064,0.81189,-0.338928,-0.093201,-0.038168,0.007634,-0.022901,1.830322,8.967382,-5.779273,0.216528,0.930713,-0.406738,-0.077759,-0.16748,1.021631,hungry
1616136759.4912198,1,20.0,36.0,61.0,62.0,40.0,0.466736,0.811646,-0.338684,-0.093201,-0.038168,0.015267,-0.007634,1.863818,8.927905,-5.760132,0.247632,0.884058,-0.399561,-0.034692,-0.175854,0.984546,hungry
1616136759.5010345,1,21.0,36.0,59.0,60.0,37.0,0.467285,0.811401,-0.338501,-0.092896,-0.030534,0.022901,0.0,1.884155,8.853735,-5.749365,0.260791,0.805103,-0.398364,0.00957,-0.156714,0.921143,hungry
1616136759.5111735,1,19.0,36.0,58.0,59.0,39.0,0.467712,0.811279,-0.33844,-0.092285,-0.015267,0.030534,0.015267,1.890137,8.749659,-5.740991,0.25481,0.699829,-0.394775,0.05144,-0.119629,0.832617,hungry
1616136759.5210557,1,22.0,43.0,61.0,58.0,38.0,0.467896,0.811218,-0.338562,-0.091492,0.007634,0.038168,0.030534,1.88894,8.62644,-5.74458,0.238062,0.579004,-0.399561,0.096899,-0.0646,0.733325,hungry
1616136759.5312507,1,20.0,36.0,57.0,58.0,36.0,0.467712,0.811279,-0.338806,-0.090454,0.030534,0.030534,0.038168,1.882959,8.521167,-5.719458,0.215332,0.483301,-0.367261,0.107666,-0.040674,0.632837,hungry
1616136759.5411975,1,19.0,40.0,61.0,61.0,37.0,0.467407,0.811401,-0.339294,-0.089417,0.045802,0.030534,0.045802,1.881763,8.45896,-5.662036,0.194995,0.430664,-0.300269,0.08374,-0.057422,0.550293,hungry
1616136759.5510297,1,21.0,36.0,61.0,57.0,41.0,0.466919,0.811523,-0.339966,-0.088257,0.053435,0.022901,0.053435,1.8698,8.427856,-5.614184,0.161499,0.41272,-0.239258,0.037085,-0.071777,0.49646,hungry
1616136759.5610454,1,19.0,36.0,62.0,58.0,39.0,0.46637,0.811584,-0.340759,-0.087158,0.053435,0.015267,0.061069,1.873389,8.405127,-5.59624,0.144751,0.404346,-0.208154,0.013159,-0.080151,0.468945,hungry
1616136759.57117,1,19.0,35.0,56.0,59.0,42.0,0.46582,0.811646,-0.341736,-0.086182,0.053435,0.007634,0.068702,1.866211,8.389575,-5.604614,0.11604,0.400757,-0.203369,-0.00957,-0.0646,0.459375,hungry
1616136759.581105,1,21.0,36.0,58.0,61.0,39.0,0.46521,0.811584,-0.342834,-0.085266,0.045802,-0.007634,0.076336,1.824341,8.359668,-5.652466,0.053833,0.386401,-0.236865,-0.034692,0.002393,0.45459,hungry
1616136759.591132,1,20.0,36.0,60.0,60.0,37.0,0.464539,0.811584,-0.343994,-0.084595,0.045802,-0.015267,0.076336,1.811182,8.339331,-5.726636,0.023926,0.379224,-0.29668,-0.027515,0.0646,0.476123,hungry
1616136759.601027,1,19.0,33.0,60.0,61.0,39.0,0.463745,0.811584,-0.345154,-0.083862,0.053435,-0.015267,0.076336,1.825537,8.326172,-5.823535,0.021533,0.381616,-0.376831,0.003589,0.120825,0.521582,hungry
1616136759.6109414,1,20.0,35.0,60.0,60.0,39.0,0.462952,0.811707,-0.346252,-0.083069,0.053435,-0.007634,0.068702,1.849463,8.348902,-5.913257,0.028711,0.418701,-0.448608,0.021533,0.153125,0.593359,hungry
1616136759.621093,1,19.0,35.0,60.0,58.0,39.0,0.46228,0.811768,-0.347107,-0.082275,0.045802,0.007634,0.053435,1.8698,8.405127,-5.985034,0.033496,0.489282,-0.50603,0.015552,0.166284,0.684277,hungry
1616136759.630971,1,20.0,32.0,60.0,62.0,37.0,0.461792,0.81189,-0.347656,-0.081421,0.038168,0.015267,0.045802,1.874585,8.456568,-6.030493,0.022729,0.552686,-0.540723,-0.008374,0.175854,0.752466,hungry
1616136759.640866,1,20.0,37.0,60.0,64.0,40.0,0.461548,0.812012,-0.347961,-0.080688,0.022901,0.022901,0.030534,1.862622,8.478101,-6.090308,0.0,0.581396,-0.593359,-0.016748,0.217725,0.800317,hungry
1616136759.6511154,1,12.0,36.0,60.0,61.0,41.0,0.461426,0.812073,-0.348145,-0.080078,0.007634,0.022901,0.022901,1.853052,8.474512,-6.140552,-0.020337,0.582593,-0.638818,-0.013159,0.261987,0.823047,hungry
1616136759.660982,1,21.0,35.0,61.0,57.0,38.0,0.461365,0.812073,-0.348206,-0.079712,0.0,0.015267,0.015267,1.861426,8.464941,-6.150122,-0.017944,0.576611,-0.647192,-0.004785,0.269165,0.823047,hungry
1616136759.6710787,1,21.0,36.0,60.0,60.0,40.0,0.461426,0.812073,-0.348206,-0.079468,-0.007634,0.007634,0.007634,1.87937,8.445801,-6.154907,-0.004785,0.558667,-0.651978,0.014355,0.269165,0.814673,hungry
1616136759.6810818,1,21.0,37.0,59.0,59.0,37.0,0.461548,0.812012,-0.348206,-0.079407,-0.015267,0.007634,0.0,1.910474,8.401538,-6.136963,0.023926,0.513208,-0.636426,0.05144,0.256006,0.773999,hungry
1616136759.6910782,1,19.0,37.0,58.0,60.0,37.0,0.46167,0.812012,-0.348145,-0.079285,-0.015267,0.007634,-0.007634,1.964307,8.330957,-6.101074,0.075366,0.441431,-0.601733,0.108862,0.22251,0.707007,hungry
1616136759.70089,1,18.0,39.0,60.0,57.0,41.0,0.461731,0.812012,-0.348022,-0.079163,-0.007634,0.007634,-0.007634,2.013355,8.247217,-6.05083,0.123218,0.35769,-0.552686,0.163892,0.186621,0.620874,hungry
1616136759.711003,1,18.0,38.0,60.0,60.0,39.0,0.461731,0.812134,-0.347839,-0.078918,0.0,0.007634,-0.015267,2.046851,8.192187,-6.013745,0.154321,0.303857,-0.514404,0.196191,0.15791,0.562256,hungry
1616136759.7209113,1,40.0,37.0,60.0,59.0,38.0,0.461609,0.812256,-0.347656,-0.078735,0.007634,0.007634,-0.015267,2.06001,8.180224,-5.987427,0.16748,0.294287,-0.485693,0.197388,0.132788,0.540723,hungry
1616136759.7309752,1,20.0,37.0,59.0,62.0,39.0,0.461548,0.812439,-0.347412,-0.078613,0.0,0.007634,-0.022901,2.068384,8.214917,-5.952734,0.177051,0.328979,-0.448608,0.171069,0.089722,0.550293,hungry
1616136759.74095,1,19.0,37.0,58.0,59.0,39.0,0.461609,0.812561,-0.347107,-0.078552,-0.007634,0.007634,-0.022901,2.075562,8.254395,-5.924024,0.185425,0.367261,-0.421094,0.145947,0.052637,0.567041,hungry
1616136759.751174,1,17.0,35.0,61.0,60.0,41.0,0.46167,0.812622,-0.346802,-0.078552,-0.007634,0.007634,-0.022901,2.086328,8.25918,-5.919238,0.198584,0.37085,-0.417505,0.153125,0.039478,0.57063,hungry
1616136759.7608824,1,20.0,36.0,58.0,60.0,40.0,0.461792,0.812683,-0.346436,-0.078552,-0.007634,0.007634,-0.022901,2.098291,8.253199,-5.906079,0.212939,0.363672,-0.406738,0.162695,0.026318,0.56106,hungry
1616136759.770922,1,22.0,36.0,60.0,60.0,36.0,0.461853,0.812805,-0.346191,-0.078552,-0.007634,0.007634,-0.022901,2.098291,8.257983,-5.889331,0.215332,0.366064,-0.391187,0.155518,0.013159,0.555078,hungry
1616136759.780821,1,19.0,36.0,62.0,62.0,38.0,0.461853,0.812866,-0.345947,-0.078613,-0.007634,0.0,-0.022901,2.077954,8.275928,-5.891724,0.198584,0.384009,-0.393579,0.136377,0.019141,0.567041,hungry
1616136759.790969,1,20.0,35.0,58.0,58.0,39.0,0.461853,0.812927,-0.345825,-0.078796,-0.007634,-0.007634,-0.015267,2.068384,8.283106,-5.883349,0.192603,0.38999,-0.385205,0.12561,0.015552,0.565845,hungry
1616136759.8009396,1,19.0,37.0,61.0,61.0,42.0,0.461731,0.812988,-0.345886,-0.078918,0.0,-0.015267,-0.007634,2.063599,8.260376,-5.865405,0.19021,0.367261,-0.364868,0.12561,0.00957,0.535937,hungry
1616136759.810887,1,19.0,36.0,60.0,99.0,41.0,0.461426,0.813049,-0.346069,-0.078918,0.015267,-0.015267,0.0,2.082739,8.218506,-5.864209,0.209351,0.328979,-0.358887,0.155518,0.005981,0.50603,hungry
1616136759.821006,1,20.0,37.0,60.0,60.0,41.0,0.460938,0.813171,-0.346436,-0.078735,0.038168,-0.015267,0.015267,2.10188,8.183813,-5.867798,0.226099,0.302661,-0.354102,0.178247,0.0,0.485693,hungry
1616136759.8310158,1,19.0,34.0,61.0,64.0,38.0,0.460144,0.813477,-0.346863,-0.078247,0.053435,-0.007634,0.015267,2.107861,8.186206,-5.871387,0.226099,0.317017,-0.342139,0.165088,-0.011963,0.490479,hungry
1616136759.8409233,1,19.0,37.0,60.0,62.0,37.0,0.45929,0.813843,-0.34729,-0.077637,0.068702,0.0,0.022901,2.103076,8.262769,-5.873779,0.214136,0.407935,-0.326587,0.102881,-0.046655,0.552686,hungry
1616136759.8509762,1,19.0,33.0,58.0,59.0,38.0,0.458435,0.814209,-0.347656,-0.077026,0.068702,0.0,0.022901,2.083935,8.389575,-5.882154,0.189014,0.5479,-0.318213,0.010767,-0.084937,0.65437,hungry
1616136762.1178658,1,21.0,35.0,60.0,60.0,39.0,0.627136,0.718323,-0.273743,0.125427,-0.022901,0.0,-0.007634,5.4479,8.699414,-1.954736,0.317017,0.541919,-0.171069,-0.010767,0.056226,0.647192,hungry
1616136762.1280978,1,22.0,35.0,63.0,61.0,42.0,0.62738,0.718079,-0.273682,0.125366,-0.022901,0.0,-0.007634,5.417993,8.652759,-1.914062,0.287109,0.495264,-0.137573,-0.014355,0.033496,0.587378,hungry
1616136762.138059,1,19.0,36.0,58.0,59.0,36.0,0.627563,0.717957,-0.273621,0.125366,-0.015267,0.0,-0.007634,5.403638,8.613281,-1.878174,0.272754,0.453394,-0.10647,-0.008374,0.00957,0.53833,hungry
1616136762.1479216,1,22.0,37.0,61.0,60.0,41.0,0.627686,0.717896,-0.273621,0.125366,-0.007634,0.0,0.0,5.389282,8.592944,-1.859033,0.258398,0.433057,-0.089722,-0.011963,0.0,0.512012,hungry
1616136762.1580477,1,20.0,38.0,59.0,64.0,41.0,0.627686,0.717896,-0.273621,0.125427,-0.007634,-0.007634,0.0,5.376123,8.572607,-1.870996,0.244043,0.41272,-0.101685,-0.00957,0.014355,0.489282,hungry
1616136762.1679928,1,22.0,40.0,62.0,60.0,40.0,0.627625,0.717896,-0.273743,0.125427,0.0,-0.007634,0.0,5.391675,8.558252,-1.881763,0.258398,0.399561,-0.110059,0.00957,0.020337,0.48689,hungry
1616136762.1780262,1,20.0,37.0,58.0,60.0,41.0,0.627563,0.717896,-0.273804,0.125488,0.0,-0.007634,0.0,5.400049,8.551074,-1.896118,0.265576,0.393579,-0.124414,0.020337,0.033496,0.488086,hungry
1616136762.1879592,1,21.0,39.0,61.0,62.0,38.0,0.627502,0.717896,-0.273865,0.125549,0.0,0.0,0.0,5.40603,8.541504,-1.912866,0.270361,0.385205,-0.139966,0.031104,0.047852,0.48689,hungry
1616136762.1980016,1,21.0,39.0,58.0,57.0,41.0,0.627441,0.717957,-0.273865,0.12561,0.0,0.0,0.0,5.413208,8.543897,-1.932007,0.277539,0.388794,-0.15791,0.038281,0.063403,0.49646,hungry
1616136762.2078984,1,20.0,36.0,62.0,60.0,41.0,0.62738,0.718018,-0.273865,0.12561,-0.007634,0.0,0.0,5.419189,8.551074,-1.948755,0.283521,0.395972,-0.172266,0.04187,0.075366,0.508423,hungry
1616136762.217964,1,20.0,36.0,60.0,61.0,43.0,0.62738,0.718018,-0.273865,0.125671,-0.007634,0.0,-0.007634,5.426367,8.554663,-1.961914,0.289502,0.399561,-0.186621,0.046655,0.087329,0.517993,hungry
1616136762.2280672,1,21.0,37.0,62.0,61.0,41.0,0.62738,0.718018,-0.273804,0.125732,-0.007634,0.0,-0.007634,5.439527,8.55586,-1.955933,0.302661,0.400757,-0.18064,0.056226,0.077759,0.523975,hungry
1616136762.2379415,1,20.0,39.0,61.0,62.0,42.0,0.62738,0.718018,-0.273804,0.125793,-0.007634,0.0,0.0,5.46106,8.546289,-1.94397,0.322998,0.391187,-0.168677,0.075366,0.062207,0.525171,hungry
1616136762.2479572,1,22.0,38.0,61.0,62.0,41.0,0.62738,0.717957,-0.273743,0.125916,0.0,0.007634,0.0,5.476611,8.536718,-1.947559,0.33855,0.382812,-0.173462,0.093311,0.0646,0.526367,hungry
1616136762.257862,1,22.0,60.0,60.0,60.0,41.0,0.62738,0.718018,-0.273682,0.126099,0.0,0.007634,-0.007634,5.487378,8.534327,-1.948755,0.346924,0.38042,-0.174658,0.101685,0.063403,0.529956,hungry
1616136762.2683666,1,21.0,36.0,62.0,59.0,39.0,0.627319,0.718079,-0.273621,0.126221,0.0,0.007634,-0.007634,5.488574,8.553467,-1.958325,0.346924,0.400757,-0.183032,0.092114,0.070581,0.5479,hungry
1616136762.2778814,1,21.0,39.0,60.0,62.0,41.0,0.627319,0.718079,-0.273499,0.126343,-0.007634,0.007634,-0.007634,5.492163,8.583374,-1.971484,0.350513,0.430664,-0.197388,0.081348,0.081348,0.577808,hungry
1616136762.2881098,1,22.0,38.0,62.0,60.0,41.0,0.62738,0.718079,-0.273376,0.126404,-0.007634,0.007634,-0.007634,5.492163,8.600122,-1.989429,0.350513,0.447412,-0.216528,0.07417,0.099292,0.594556,hungry
1616136762.2977488,1,22.0,37.0,60.0,62.0,41.0,0.627441,0.718018,-0.273254,0.126465,-0.007634,0.007634,-0.007634,5.482593,8.615674,-1.989429,0.342139,0.461768,-0.220117,0.061011,0.104077,0.60293,hungry
1616136762.308045,1,22.0,40.0,62.0,62.0,40.0,0.627563,0.718018,-0.273132,0.126526,-0.015267,0.007634,-0.007634,5.464648,8.634814,-1.984644,0.324194,0.479712,-0.216528,0.035889,0.104077,0.607715,hungry
1616136762.3179648,1,20.0,35.0,63.0,64.0,42.0,0.627686,0.717896,-0.27301,0.126526,-0.015267,0.007634,-0.007634,5.444312,8.661133,-1.961914,0.305054,0.50603,-0.198584,0.002393,0.089722,0.616089,hungry
1616136762.3280437,1,20.0,39.0,62.0,61.0,42.0,0.62793,0.717773,-0.272888,0.126465,-0.022901,0.0,-0.007634,5.421582,8.677881,-1.955933,0.283521,0.519189,-0.197388,-0.021533,0.092114,0.616089,hungry
1616136762.337908,1,21.0,36.0,62.0,58.0,40.0,0.628113,0.717651,-0.272827,0.126404,-0.022901,0.0,-0.007634,5.40603,8.680273,-1.969092,0.269165,0.520386,-0.215332,-0.031104,0.113647,0.6125,hungry
1616136762.3479252,1,20.0,38.0,60.0,62.0,42.0,0.628296,0.717529,-0.272766,0.126343,-0.022901,0.0,-0.007634,5.404834,8.66831,-1.971484,0.267969,0.507227,-0.221313,-0.022729,0.120825,0.601733,hungry
1616136762.3577633,1,22.0,38.0,62.0,60.0,39.0,0.628418,0.717407,-0.272766,0.126404,-0.015267,0.007634,0.0,5.401245,8.644384,-1.969092,0.263184,0.483301,-0.22251,-0.014355,0.124414,0.579004,hungry
1616136762.367986,1,20.0,39.0,63.0,60.0,42.0,0.62854,0.717285,-0.272705,0.126465,-0.015267,0.007634,0.0,5.388086,8.637207,-1.954736,0.250024,0.476123,-0.211743,-0.022729,0.117236,0.564648,hungry
1616136762.3772726,1,20.0,39.0,62.0,58.0,39.0,0.628723,0.717163,-0.272644,0.126465,-0.015267,0.0,0.0,5.367749,8.650366,-1.937988,0.229687,0.488086,-0.198584,-0.047852,0.108862,0.56106,hungry
1616136762.3879237,1,22.0,38.0,61.0,58.0,42.0,0.628906,0.717041,-0.272583,0.126465,-0.022901,0.0,0.0,5.352197,8.662329,-1.932007,0.214136,0.498853,-0.197388,-0.066992,0.111255,0.562256,hungry
1616136762.3977451,1,22.0,39.0,62.0,59.0,42.0,0.62915,0.716858,-0.272522,0.126343,-0.030534,0.0,-0.007634,5.341431,8.669507,-1.922436,0.204565,0.503638,-0.193799,-0.077759,0.110059,0.559863,hungry
1616136762.4079723,1,19.0,38.0,60.0,58.0,42.0,0.629456,0.716614,-0.272522,0.126221,-0.030534,0.0,-0.007634,5.335449,8.655151,-1.926025,0.19978,0.488086,-0.204565,-0.070581,0.123218,0.546704,hungry
1616136762.4177787,1,22.0,38.0,60.0,59.0,40.0,0.629761,0.716309,-0.272583,0.126038,-0.038168,0.0,-0.007634,5.345019,8.633618,-1.922436,0.210547,0.465356,-0.208154,-0.049048,0.12561,0.533545,hungry
1616136762.4280338,1,21.0,37.0,62.0,62.0,40.0,0.630127,0.716003,-0.272583,0.125916,-0.038168,0.0,-0.007634,5.368945,8.595337,-1.908081,0.234473,0.424683,-0.202173,-0.007178,0.117236,0.512012,hungry
1616136762.437234,1,19.0,36.0,61.0,64.0,42.0,0.630432,0.715759,-0.272644,0.125854,-0.030534,0.0,-0.007634,5.386889,8.553467,-1.912866,0.251221,0.381616,-0.212939,0.031104,0.126807,0.485693,hungry
1616136762.4479494,1,22.0,38.0,62.0,61.0,40.0,0.630676,0.715576,-0.272644,0.125854,-0.022901,0.007634,-0.007634,5.404834,8.525952,-1.9021,0.269165,0.352905,-0.208154,0.059814,0.119629,0.470142,hungry
1616136762.4571276,1,13.0,39.0,61.0,62.0,41.0,0.630859,0.715393,-0.272583,0.125916,-0.022901,0.007634,-0.007634,5.421582,8.521167,-1.882959,0.284717,0.34812,-0.193799,0.072974,0.102881,0.472534,hungry
1616136762.4671314,1,21.0,33.0,62.0,60.0,41.0,0.631104,0.715149,-0.272583,0.125977,-0.022901,0.007634,0.0,5.431152,8.516382,-1.867407,0.293091,0.342139,-0.185425,0.082544,0.093311,0.470142,hungry
1616136762.4771292,1,20.0,35.0,61.0,62.0,39.0,0.631348,0.714966,-0.272583,0.126038,-0.022901,0.007634,0.0,5.437134,8.498438,-1.854248,0.29668,0.324194,-0.178247,0.093311,0.086133,0.455786,hungry
1616136762.4871285,1,21.0,38.0,61.0,62.0,42.0,0.63147,0.714783,-0.272583,0.126221,-0.015267,0.007634,0.0,5.445508,8.456568,-1.839893,0.302661,0.283521,-0.168677,0.119629,0.077759,0.423486,hungry
1616136762.4978654,1,20.0,36.0,59.0,58.0,42.0,0.631531,0.714722,-0.272583,0.126465,0.0,0.007634,0.007634,5.445508,8.417089,-1.81477,0.299072,0.245239,-0.144751,0.133984,0.058618,0.385205,hungry
1616136762.5071638,1,21.0,37.0,62.0,60.0,40.0,0.63147,0.714722,-0.272583,0.126831,0.007634,0.007634,0.007634,5.435937,8.380005,-1.800415,0.284717,0.210547,-0.130396,0.137573,0.049048,0.346924,hungry
1616136762.5172043,1,21.0,38.0,62.0,61.0,41.0,0.631348,0.714783,-0.272583,0.127136,0.007634,0.007634,0.007634,5.417993,8.354883,-1.776489,0.263184,0.189014,-0.105273,0.128003,0.031104,0.313428,hungry
1616136762.5271716,1,22.0,39.0,60.0,61.0,40.0,0.631226,0.714844,-0.272583,0.12738,0.007634,0.007634,0.0,5.397656,8.289087,-1.739404,0.240454,0.124414,-0.066992,0.13877,0.002393,0.240454,hungry
1616136762.5371292,1,21.0,39.0,62.0,61.0,40.0,0.631042,0.714966,-0.272583,0.127686,0.015267,0.007634,0.0,5.347412,8.138354,-1.705908,0.186621,-0.021533,-0.029907,0.168677,-0.011963,0.084937,hungry
1616136762.547212,1,21.0,37.0,62.0,62.0,41.0,0.630615,0.715271,-0.272583,0.128052,0.038168,0.0,0.0,5.250513,7.905078,-1.631738,0.086133,-0.251221,0.05144,0.19978,-0.055029,-0.172266,hungry
1616136762.556987,1,20.0,36.0,58.0,58.0,42.0,0.630005,0.715759,-0.272461,0.128418,0.068702,0.0,-0.007634,5.08064,7.663428,-1.397266,-0.084937,-0.488086,0.299072,0.151929,-0.242847,-0.502441,hungry
1616136762.5670855,1,22.0,37.0,61.0,59.0,41.0,0.629395,0.71637,-0.271973,0.128967,0.083969,0.007634,-0.007634,4.77439,7.542603,-0.839795,-0.391187,-0.606519,0.868506,-0.122021,-0.717773,-0.861328,hungry
1616136762.5774145,1,22.0,36.0,61.0,62.0,39.0,0.6297,0.716492,-0.270813,0.129456,0.068702,0.038168,-0.022901,4.348511,7.672998,0.256006,-0.811084,-0.482104,1.954736,-0.702222,-1.68916,-1.166382,hungry
1616136762.587058,1,19.0,36.0,61.0,60.0,40.0,0.632019,0.715149,-0.268555,0.130005,-0.030534,0.099237,-0.030534,3.72644,7.925415,1.886548,-1.422388,-0.248828,3.524268,-1.57312,-3.10437,-1.543213,hungry
1616136762.597309,1,21.0,35.0,60.0,61.0,40.0,0.63739,0.711609,-0.265198,0.130188,-0.19084,0.160305,-0.053435,2.950049,8.103662,4.196582,-2.178442,-0.108862,5.700317,-2.609107,-5.098584,-2.105469,hungry
1616136762.607318,1,19.0,37.0,60.0,58.0,37.0,0.646667,0.705017,-0.260681,0.129456,-0.427481,0.198473,-0.114504,1.716675,7.882349,6.699219,-3.375928,-0.391187,7.973267,-3.826929,-7.121509,-3.121118,hungry
1616136762.6171348,1,18.0,35.0,58.0,57.0,37.0,0.658875,0.696228,-0.255615,0.12561,-0.648855,0.083969,-0.21374,-0.002393,6.887036,8.914746,-5.017236,-1.473828,9.895703,-5.036377,-8.756836,-4.81626,hungry
1616136762.6278908,1,20.0,35.0,61.0,60.0,41.0,0.671448,0.686829,-0.25238,0.117004,-0.740458,-0.236641,-0.320611,-2.077954,4.659546,10.219897,-6.974365,-3.799414,10.913745,-5.92522,-9.498535,-7.537817,hungry
1616136762.637866,1,19.0,37.0,61.0,60.0,40.0,0.680176,0.680176,-0.253113,0.102905,-0.564885,-0.717557,-0.40458,-4.207349,1.269263,10.239038,-8.953028,-7.287793,10.763013,-6.285303,-9.078638,-11.275024,hungry
1616136762.6478035,1,19.0,36.0,60.0,57.0,37.0,0.680908,0.679688,-0.259583,0.083374,-0.10687,-1.335878,-0.473282,-5.858228,-2.317212,9.182714,-10.432837,-10.963989,9.75813,-6.110644,-7.638306,-15.117505,hungry
1616136762.6577888,1,20.0,36.0,58.0,58.0,37.0,0.671265,0.687012,-0.271667,0.059387,0.503817,-1.900763,-0.519084,-6.711182,-4.877271,7.326074,-11.084814,-13.599414,8.223291,-5.536426,-5.260083,-17.804371,hungry
1616136762.667771,1,21.0,37.0,60.0,62.0,39.0,0.650635,0.701721,-0.288269,0.031982,1.076336,-2.366412,-0.549618,-6.977954,-5.471826,4.431055,-11.093188,-14.239429,5.912061,-4.823438,-1.665234,-18.292456,hungry
1616136762.6772883,1,19.0,39.0,61.0,62.0,41.0,0.620544,0.721252,-0.307739,0.002258,1.458015,-2.641221,-0.519084,-6.684863,-3.853247,1.00249,-10.459155,-12.611279,3.253906,-4.075757,2.205957,-16.047022,hungry
1616136762.6878724,1,20.0,41.0,60.0,61.0,40.0,0.587463,0.739807,-0.326843,-0.027161,1.435115,-2.557252,-0.48855,-5.475415,-0.062207,-1.946362,-8.844165,-8.754443,1.074268,-3.441724,4.484888,-11.136255,hungry
1616136762.697287,1,22.0,39.0,61.0,64.0,39.0,0.558472,0.753723,-0.34198,-0.054871,1.061069,-2.21374,-0.534351,-4.006372,4.404737,-5.054321,-6.938477,-4.21333,-1.425977,-2.696435,5.748169,-5.252905,hungry
1616136762.7079024,1,20.0,39.0,62.0,63.0,41.0,0.536255,0.763184,-0.351318,-0.080505,0.572519,-1.763359,-0.664122,-2.316016,8.357275,-7.945752,-4.804297,-0.217725,-3.909473,-1.503735,6.007764,0.198584,hungry
1616136762.7172167,1,19.0,39.0,62.0,64.0,40.0,0.522217,0.768799,-0.354187,-0.103394,0.083969,-1.290076,-0.824427,-0.971387,11.307324,-10.789331,-3.038574,2.720361,-6.544898,0.062207,6.203955,4.577002,hungry
1616136762.727184,1,20.0,39.0,61.0,64.0,42.0,0.513,0.772888,-0.351868,-0.125061,-0.206107,-1.022901,-0.946565,-0.193799,13.070654,-13.125684,-1.836304,4.43584,-8.790332,1.704712,6.427661,7.487573,hungry
1616136762.737175,1,22.0,39.0,63.0,63.0,42.0,0.506531,0.775208,-0.34845,-0.145081,-0.351145,-0.916031,-0.877863,0.884058,14.381787,-14.842359,-0.37085,5.694336,-10.483081,3.552979,6.037671,9.662427,hungry
1616136762.7472146,1,21.0,37.0,63.0,59.0,41.0,0.501526,0.77594,-0.346558,-0.161987,-0.351145,-0.832061,-0.694656,2.061206,14.883032,-16.104443,1.117334,6.154907,-11.748755,5.517285,5.462256,10.809668,hungry
1616136762.7570846,1,19.0,40.0,63.0,64.0,42.0,0.495667,0.777161,-0.346375,-0.17395,-0.145038,-0.664122,-0.541985,3.430957,15.003858,-17.031567,2.715576,6.272143,-12.63999,7.360766,4.599731,11.448486,hungry
1616136762.7670782,1,22.0,39.0,61.0,62.0,40.0,0.489136,0.78009,-0.346436,-0.179321,0.083969,-0.351145,-0.419847,4.618872,15.387866,-17.713451,4.038672,6.690845,-13.23335,8.553467,3.679785,12.224878,hungry
1616136762.777258,1,19.0,39.0,61.0,62.0,41.0,0.483398,0.783997,-0.345581,-0.179382,0.19084,-0.045802,-0.312977,5.245728,16.344898,-17.425146,4.727735,7.701709,-12.836182,8.354883,2.493066,13.051514,hungry
1616136762.7870889,1,17.0,40.0,63.0,63.0,41.0,0.480957,0.786987,-0.343506,-0.176819,0.10687,0.152672,-0.206107,5.230176,17.207422,-16.297047,4.71936,8.59773,-11.643481,7.21123,1.454687,13.32666,hungry
1616136762.7971368,1,18.0,40.0,62.0,62.0,42.0,0.482239,0.788086,-0.340637,-0.17395,-0.068702,0.244275,-0.122137,4.859326,17.758911,-14.58396,4.325781,9.148023,-9.935181,5.67041,0.556274,12.984522,hungry
1616136762.8069775,1,19.0,39.0,63.0,62.0,43.0,0.486755,0.787354,-0.33728,-0.171448,-0.244275,0.290076,-0.068702,4.350904,17.538794,-12.587354,3.777881,8.893213,-8.006763,4.246826,-0.081348,11.807373,hungry
1616136762.8171732,1,21.0,40.0,63.0,63.0,5.0,0.492981,0.7854,-0.33374,-0.169312,-0.335878,0.29771,-0.030534,3.752759,16.548267,-10.557251,3.134277,7.851245,-6.08313,3.069678,-0.428271,9.941162,hungry
1616136762.8271518,1,21.0,37.0,63.0,61.0,42.0,0.499512,0.783081,-0.330505,-0.167358,-0.335878,0.290076,0.0,3.106763,15.063672,-8.647974,2.439233,6.312818,-4.2875,2.095898,-0.573022,7.710083,hungry
1616136762.837204,1,21.0,39.0,63.0,62.0,42.0,0.505188,0.781006,-0.32782,-0.165405,-0.267176,0.259542,0.030534,2.493066,13.290771,-6.982739,1.778882,4.494458,-2.720361,1.351807,-0.58977,5.346216,hungry
1616136762.8472023,1,21.0,35.0,61.0,62.0,42.0,0.508911,0.779785,-0.326111,-0.163025,-0.122137,0.21374,0.061069,1.958325,11.52146,-5.659644,1.196289,2.701221,-1.455884,0.805103,-0.533545,3.147437,hungry
1616136762.8573072,1,20.0,38.0,62.0,59.0,41.0,0.510193,0.779663,-0.325745,-0.160156,0.045802,0.160305,0.099237,1.47981,10.10625,-4.694238,0.668726,1.287207,-0.498853,0.33855,-0.447412,1.425977,hungry
1616136762.8668892,1,19.0,37.0,62.0,63.0,41.0,0.509399,0.780396,-0.326721,-0.157166,0.183206,0.083969,0.145038,1.009668,9.246119,-4.041064,0.150732,0.447412,0.187817,-0.153125,-0.350513,0.333765,hungry
1616136762.8772106,1,21.0,40.0,60.0,61.0,42.0,0.507202,0.781433,-0.328857,-0.154663,0.244275,0.007634,0.167939,0.567041,8.909961,-3.657056,-0.332568,0.143555,0.630444,-0.657959,-0.250024,-0.177051,hungry
1616136762.8869035,1,21.0,38.0,62.0,62.0,42.0,0.504395,0.782349,-0.331665,-0.153198,0.244275,-0.076336,0.167939,0.202173,8.920728,-3.518286,-0.727344,0.19021,0.833813,-1.080249,-0.133984,-0.269165,hungry
1616136762.8971698,1,19.0,37.0,63.0,66.0,43.0,0.501587,0.782898,-0.334717,-0.152893,0.198473,-0.137405,0.145038,0.008374,9.109741,-3.59126,-0.935498,0.409131,0.818262,-1.303955,-0.035889,-0.094507,hungry
1616136762.9069712,1,21.0,40.0,63.0,60.0,42.0,0.499207,0.783081,-0.337646,-0.153503,0.129771,-0.160305,0.114504,0.008374,9.289185,-3.843677,-0.939087,0.610107,0.608911,-1.260889,0.059814,0.172266,hungry
1616136762.917123,1,20.0,37.0,62.0,61.0,41.0,0.497498,0.782898,-0.340149,-0.154297,0.068702,-0.145038,0.091603,0.161499,9.351392,-4.234863,-0.787158,0.687866,0.246436,-0.97019,0.185425,0.418701,hungry
1616136762.9269235,1,22.0,39.0,61.0,59.0,42.0,0.496155,0.782837,-0.34198,-0.154846,0.038168,-0.10687,0.053435,0.361279,9.27124,-4.73252,-0.587378,0.619678,-0.227295,-0.525171,0.387598,0.593359,hungry
1616136762.937049,1,21.0,39.0,62.0,60.0,13.0,0.494751,0.783203,-0.343201,-0.154968,0.045802,-0.061069,0.022901,0.596948,9.101367,-5.278028,-0.351709,0.462964,-0.746484,0.004785,0.613696,0.71897,hungry
1616136762.9470308,1,21.0,39.0,61.0,60.0,42.0,0.493042,0.783997,-0.343994,-0.154419,0.076336,-0.015267,0.007634,0.856543,8.947046,-5.76731,-0.094507,0.328979,-1.199878,0.502441,0.773999,0.838599,hungry
1616136762.9569335,1,20.0,37.0,61.0,63.0,42.0,0.491211,0.785217,-0.344482,-0.153137,0.10687,0.022901,0.0,1.101782,8.892016,-6.153711,0.141162,0.297876,-1.542017,0.87688,0.845776,1.000098,hungry
1616136762.9668598,1,13.0,39.0,62.0,64.0,42.0,0.489441,0.786499,-0.344849,-0.151245,0.114504,0.053435,0.007634,1.303955,8.951831,-6.388184,0.326587,0.384009,-1.732227,1.079053,0.818262,1.190308,hungry
1616136762.9771254,1,21.0,20.0,62.0,62.0,43.0,0.488037,0.78772,-0.345032,-0.149109,0.10687,0.076336,0.015267,1.467847,9.092993,-6.449194,0.468945,0.549097,-1.752563,1.119727,0.68667,1.366162,hungry
1616136762.9868903,1,22.0,39.0,63.0,62.0,42.0,0.487244,0.788696,-0.344788,-0.146973,0.076336,0.099237,0.0,1.576709,9.211426,-6.391772,0.555078,0.685474,-1.668823,1.071875,0.534741,1.458276,hungry
1616136762.9968798,1,21.0,39.0,61.0,67.0,42.0,0.487061,0.789429,-0.344177,-0.144958,0.045802,0.114504,-0.015267,1.644897,9.296362,-6.200366,0.601733,0.781177,-1.461865,0.943872,0.340942,1.448706,hungry
1616136763.007054,1,20.0,37.0,62.0,64.0,42.0,0.487427,0.789978,-0.34314,-0.143311,0.007634,0.114504,-0.030534,1.628149,9.347803,-5.95752,0.568237,0.836206,-1.216626,0.756055,0.187817,1.375732,hungry
1616136763.0169213,1,22.0,38.0,61.0,64.0,41.0,0.488281,0.790283,-0.341736,-0.142334,-0.030534,0.099237,-0.053435,1.564746,9.356176,-5.687158,0.498853,0.838599,-0.957031,0.559863,0.063403,1.244141,hungry
1616136763.0267904,1,20.0,73.0,40.0,64.0,42.0,0.48938,0.790283,-0.340271,-0.141968,-0.068702,0.068702,-0.061069,1.48938,9.30354,-5.445508,0.423486,0.776392,-0.734522,0.407935,-0.013159,1.074268,hungry
1616136763.0370286,1,21.0,37.0,63.0,63.0,42.0,0.490601,0.789978,-0.33905,-0.142151,-0.083969,0.038168,-0.053435,1.42478,9.209033,-5.22898,0.364868,0.667529,-0.543115,0.303857,-0.069385,0.880469,hungry
1616136763.046987,1,9.0,41.0,63.0,64.0,43.0,0.49176,0.789612,-0.338013,-0.142639,-0.083969,0.015267,-0.053435,1.378125,9.048731,-5.066284,0.326587,0.492871,-0.405542,0.270361,-0.086133,0.657959,hungry
1616136763.0568936,1,20.0,40.0,63.0,64.0,42.0,0.492493,0.789368,-0.337402,-0.143066,-0.053435,0.0,-0.038168,1.333862,8.854932,-4.977759,0.289502,0.288306,-0.332568,0.283521,-0.050244,0.440234,hungry
1616136763.0670907,1,19.0,39.0,62.0,68.0,42.0,0.492554,0.789368,-0.337097,-0.143372,-0.007634,-0.007634,-0.022901,1.290796,8.736499,-4.927515,0.253613,0.16748,-0.285913,0.278735,-0.023926,0.307446,hungry
1616136763.076907,1,21.0,39.0,62.0,62.0,43.0,0.492188,0.789673,-0.337097,-0.143311,0.030534,-0.007634,-0.015267,1.254907,8.746069,-4.879663,0.220117,0.18064,-0.229687,0.217725,-0.043066,0.289502,hungry
1616136763.0869129,1,22.0,39.0,63.0,63.0,42.0,0.491577,0.790039,-0.337097,-0.143066,0.045802,0.0,-0.007634,1.189111,8.870483,-4.848559,0.155518,0.312231,-0.186621,0.094507,-0.066992,0.376831,hungry
1616136763.097041,1,19.0,37.0,62.0,61.0,42.0,0.491089,0.790466,-0.337036,-0.142822,0.045802,0.007634,-0.007634,1.100586,9.041553,-4.842578,0.068188,0.489282,-0.168677,-0.047852,-0.072974,0.514404,hungry
1616136763.1069005,1,21.0,41.0,62.0,64.0,42.0,0.490662,0.790771,-0.336853,-0.142822,0.030534,0.0,-0.015267,1.004883,9.211426,-4.8677,-0.020337,0.662744,-0.186621,-0.171069,-0.052637,0.66394,hungry
1616136763.116889,1,20.0,37.0,61.0,66.0,44.0,0.490417,0.790955,-0.33667,-0.143127,0.007634,-0.015267,-0.022901,0.94148,9.337036,-4.917944,-0.075366,0.789551,-0.233276,-0.234473,-0.020337,0.791943,hungry
1616136763.1271725,1,20.0,40.0,61.0,64.0,42.0,0.490356,0.790955,-0.336548,-0.143555,-0.007634,-0.022901,-0.015267,0.917554,9.358569,-4.987329,-0.090918,0.808691,-0.303857,-0.212939,0.029907,0.840991,hungry
1616136763.136926,1,22.0,42.0,63.0,64.0,41.0,0.490173,0.790955,-0.33667,-0.144104,-0.007634,-0.038168,-0.007634,0.921143,9.29397,-5.102173,-0.078955,0.742895,-0.417505,-0.114844,0.118433,0.838599,hungry
1616136763.1468778,1,21.0,37.0,63.0,63.0,41.0,0.489685,0.790894,-0.337219,-0.144531,0.007634,-0.053435,0.015267,0.97019,9.22937,-5.177539,-0.025122,0.683081,-0.48689,-0.013159,0.145947,0.825439,hungry
1616136763.157012,1,20.0,40.0,63.0,63.0,42.0,0.489136,0.790894,-0.338074,-0.144714,0.022901,-0.053435,0.030534,1.052734,9.183911,-5.190698,0.053833,0.642407,-0.490479,0.061011,0.10647,0.800317,hungry
1616136763.1669,1,21.0,40.0,63.0,60.0,42.0,0.488525,0.790771,-0.339111,-0.144592,0.030534,-0.045802,0.045802,1.136475,9.137256,-5.169165,0.130396,0.604126,-0.456982,0.111255,0.043066,0.758447,hungry
1616136763.1769967,1,20.0,40.0,63.0,62.0,42.0,0.487915,0.790771,-0.340271,-0.144165,0.045802,-0.030534,0.053435,1.207056,9.060694,-5.157202,0.186621,0.535937,-0.430664,0.162695,0.005981,0.692651,hungry
1616136763.1862676,1,21.0,40.0,63.0,63.0,33.0,0.487122,0.790894,-0.34137,-0.143555,0.061069,-0.022901,0.053435,1.256104,8.998487,-5.13208,0.221313,0.485693,-0.386401,0.181836,-0.0323,0.631641,hungry
1616136763.1969254,1,22.0,40.0,63.0,42.0,42.0,0.486267,0.791138,-0.342346,-0.142944,0.068702,-0.022901,0.045802,1.258496,8.984131,-5.136865,0.211743,0.484497,-0.37085,0.165088,-0.035889,0.62207,hungry
1616136763.206966,1,22.0,37.0,60.0,62.0,42.0,0.485413,0.791382,-0.34314,-0.142578,0.053435,-0.030534,0.030534,1.236963,9.045141,-5.16438,0.183032,0.556274,-0.38042,0.119629,-0.0323,0.68667,hungry
1616136763.216104,1,22.0,39.0,62.0,63.0,43.0,0.484741,0.791504,-0.343811,-0.142517,0.030534,-0.038168,0.015267,1.223804,9.106153,-5.234961,0.16748,0.625659,-0.437842,0.111255,-0.004785,0.772803,hungry
1616136763.2268083,1,22.0,41.0,63.0,63.0,42.0,0.484253,0.791504,-0.34436,-0.1427,0.015267,-0.038168,0.015267,1.251318,9.114527,-5.319898,0.196191,0.638818,-0.515601,0.169873,0.022729,0.825439,hungry
1616136763.2360623,1,20.0,40.0,63.0,61.0,42.0,0.483826,0.791565,-0.34491,-0.142822,0.007634,-0.038168,0.007634,1.295581,9.097778,-5.431152,0.240454,0.625659,-0.618481,0.26438,0.063403,0.869702,hungry
1616136763.2462406,1,19.0,40.0,61.0,62.0,40.0,0.483337,0.791626,-0.345276,-0.142883,0.015267,-0.022901,0.0,1.327881,9.067871,-5.526855,0.272754,0.600537,-0.705811,0.345728,0.10647,0.894824,hungry
1616136763.256276,1,22.0,39.0,63.0,59.0,42.0,0.482849,0.791809,-0.345581,-0.1427,0.015267,-0.015267,0.0,1.344629,9.063086,-5.5771,0.288306,0.60293,-0.746484,0.378027,0.120825,0.91875,hungry
1616136763.266955,1,21.0,40.0,60.0,63.0,43.0,0.482483,0.792053,-0.345825,-0.142395,0.022901,0.0,0.007634,1.349414,9.088208,-5.567529,0.289502,0.632837,-0.727344,0.355298,0.098096,0.935498,hungry
1616136763.2761154,1,21.0,41.0,62.0,62.0,43.0,0.482178,0.792236,-0.345947,-0.142029,0.015267,0.007634,0.0,1.324292,9.110937,-5.525659,0.259595,0.660352,-0.6771,0.293091,0.076563,0.931909,hungry
1616136763.286313,1,19.0,39.0,44.0,63.0,42.0,0.482117,0.792358,-0.345886,-0.141602,0.007634,0.015267,0.0,1.288403,9.119311,-5.468237,0.218921,0.671118,-0.617285,0.224902,0.062207,0.906787,hungry
1616136763.296275,1,19.0,39.0,62.0,63.0,40.0,0.482178,0.79248,-0.345703,-0.141296,0.0,0.015267,-0.007634,1.223804,9.102564,-5.401245,0.150732,0.655566,-0.549097,0.144751,0.068188,0.852954,hungry
1616136763.3061745,1,21.0,38.0,63.0,63.0,43.0,0.482239,0.792542,-0.345459,-0.141174,-0.007634,0.015267,-0.015267,1.147241,9.06189,-5.370142,0.07417,0.614893,-0.519189,0.088525,0.112451,0.794336,hungry
1616136763.3168936,1,19.0,40.0,60.0,60.0,39.0,0.4823,0.792603,-0.345276,-0.141357,-0.015267,-0.007634,-0.015267,1.079053,9.010449,-5.378516,0.010767,0.56106,-0.52876,0.070581,0.178247,0.746484,hungry
1616136763.326094,1,20.0,39.0,61.0,64.0,44.0,0.4823,0.792542,-0.345215,-0.141602,-0.015267,-0.015267,-0.007634,1.080249,8.95542,-5.395264,0.015552,0.504834,-0.546704,0.107666,0.203369,0.707007,hungry
1616136763.3360248,1,20.0,39.0,61.0,64.0,42.0,0.482178,0.792542,-0.345215,-0.141785,-0.015267,-0.015267,-0.015267,1.10896,8.889624,-5.432349,0.047852,0.439038,-0.583789,0.179443,0.226099,0.672314,hungry
1616136763.3460834,1,21.0,39.0,61.0,64.0,42.0,0.481995,0.792725,-0.345215,-0.141846,0.0,-0.007634,-0.015267,1.155615,8.862109,-5.477808,0.098096,0.41272,-0.624463,0.248828,0.226099,0.674707,hungry
1616136763.3560786,1,22.0,39.0,61.0,66.0,41.0,0.48175,0.792908,-0.345093,-0.141785,0.007634,0.0,-0.015267,1.201074,8.883642,-5.488574,0.145947,0.436646,-0.631641,0.277539,0.19021,0.704614,hungry
1616136763.3660812,1,21.0,37.0,60.0,62.0,42.0,0.481628,0.793091,-0.344849,-0.141541,0.0,0.015267,-0.022901,1.236963,8.920728,-5.49336,0.18064,0.477319,-0.632837,0.285913,0.155518,0.744092,hungry
1616136763.376122,1,20.0,40.0,63.0,63.0,44.0,0.481628,0.793335,-0.344482,-0.141296,0.0,0.022901,-0.022901,1.246533,8.949438,-5.483789,0.191406,0.50603,-0.620874,0.275146,0.131592,0.764429,hungry
1616136763.3861206,1,22.0,41.0,63.0,66.0,42.0,0.481689,0.793518,-0.344055,-0.141052,-0.007634,0.022901,-0.022901,1.252515,8.981738,-5.458667,0.197388,0.53833,-0.595752,0.252417,0.101685,0.77998,hungry
1616136763.3963108,1,20.0,39.0,63.0,63.0,42.0,0.481873,0.79364,-0.343567,-0.140869,-0.007634,0.022901,-0.030534,1.258496,9.015234,-5.415601,0.204565,0.57063,-0.555078,0.221313,0.059814,0.788355,hungry
1616136763.4061017,1,22.0,40.0,62.0,67.0,40.0,0.482056,0.793762,-0.343079,-0.140808,-0.015267,0.015267,-0.030534,1.229785,9.048731,-5.385694,0.178247,0.601733,-0.52876,0.175854,0.05144,0.799121,hungry
1616136763.416262,1,21.0,39.0,61.0,63.0,42.0,0.482239,0.793823,-0.342651,-0.14093,-0.022901,0.007634,-0.030534,1.204663,9.075048,-5.349805,0.15791,0.624463,-0.49646,0.133984,0.037085,0.800317,hungry
1616136763.426227,1,22.0,36.0,61.0,60.0,41.0,0.482544,0.793762,-0.342285,-0.141113,-0.022901,0.0,-0.022901,1.187915,9.073853,-5.321094,0.145947,0.619678,-0.474927,0.11604,0.0323,0.784766,hungry
1616136763.436071,1,20.0,39.0,61.0,60.0,43.0,0.482727,0.793762,-0.34198,-0.141296,-0.022901,0.0,-0.022901,1.175952,9.035571,-5.325879,0.137573,0.577808,-0.483301,0.132788,0.056226,0.75127,hungry
1616136763.446121,1,21.0,40.0,62.0,63.0,40.0,0.482727,0.793823,-0.341797,-0.141418,-0.007634,0.0,-0.015267,1.178345,8.981738,-5.337842,0.144751,0.522778,-0.49646,0.16748,0.076563,0.710596,hungry
1616136763.456146,1,20.0,39.0,60.0,59.0,41.0,0.482605,0.793945,-0.341675,-0.141296,0.007634,0.0,-0.007634,1.1927,8.973364,-5.345019,0.159106,0.516797,-0.501245,0.183032,0.071777,0.709399,hungry
1616136763.4660285,1,20.0,40.0,60.0,63.0,43.0,0.482422,0.794128,-0.341675,-0.141052,0.015267,0.007634,-0.007634,1.198682,8.999682,-5.342627,0.162695,0.545508,-0.492871,0.168677,0.055029,0.730933,hungry
1616136763.4760706,1,21.0,38.0,60.0,67.0,44.0,0.482239,0.79425,-0.341675,-0.140686,0.015267,0.007634,0.0,1.204663,9.02959,-5.337842,0.165088,0.5802,-0.484497,0.150732,0.037085,0.757251,hungry
1616136763.4859617,1,22.0,39.0,63.0,60.0,42.0,0.482117,0.794434,-0.341675,-0.14032,0.015267,0.015267,0.0,1.198682,9.059497,-5.341431,0.154321,0.6125,-0.482104,0.128003,0.033496,0.782373,hungry
1616136763.496107,1,20.0,37.0,61.0,60.0,40.0,0.482056,0.794495,-0.341675,-0.139954,0.007634,0.007634,0.0,1.181934,9.08462,-5.337842,0.132788,0.640015,-0.476123,0.098096,0.035889,0.801514,hungry
1616136763.5059736,1,21.0,40.0,63.0,63.0,42.0,0.481995,0.794556,-0.341675,-0.139771,0.0,0.007634,0.0,1.168774,9.107348,-5.325879,0.117236,0.66394,-0.462964,0.069385,0.029907,0.813477,hungry
1616136763.516019,1,21.0,39.0,63.0,62.0,43.0,0.482056,0.794556,-0.341736,-0.139648,-0.007634,0.0,0.0,1.156811,9.1229,-5.294775,0.101685,0.679492,-0.430664,0.033496,0.014355,0.809888,hungry
1616136763.5262723,1,18.0,41.0,59.0,60.0,41.0,0.482239,0.794434,-0.341736,-0.139709,-0.015267,-0.007634,0.0,1.159204,9.104956,-5.273242,0.104077,0.659155,-0.413916,0.034692,0.008374,0.783569,hungry
1616136763.536134,1,22.0,41.0,61.0,63.0,43.0,0.482422,0.794312,-0.341736,-0.139893,-0.022901,-0.007634,-0.007634,1.158008,9.053515,-5.263672,0.104077,0.605322,-0.407935,0.053833,0.020337,0.734522,hungry
1616136763.546306,1,20.0,39.0,62.0,62.0,41.0,0.482483,0.794189,-0.341736,-0.140076,-0.015267,-0.015267,-0.007634,1.169971,8.979345,-5.264868,0.118433,0.529956,-0.41272,0.096899,0.035889,0.673511,hungry
1616136763.5560417,1,20.0,39.0,62.0,62.0,42.0,0.482483,0.794128,-0.341797,-0.140198,-0.007634,-0.015267,-0.007634,1.178345,8.92312,-5.273242,0.128003,0.47373,-0.421094,0.131592,0.052637,0.630444,hungry
1616136763.566173,1,21.0,39.0,62.0,64.0,42.0,0.482361,0.794189,-0.341858,-0.140259,0.0,-0.015267,-0.007634,1.189111,8.914746,-5.287598,0.139966,0.465356,-0.433057,0.150732,0.055029,0.630444,hungry
1616136763.5760508,1,19.0,41.0,63.0,62.0,42.0,0.482239,0.79425,-0.341919,-0.140259,0.0,-0.007634,-0.007634,1.197485,8.930298,-5.310327,0.14834,0.482104,-0.453394,0.161499,0.057422,0.655566,hungry
1616136763.5860314,1,22.0,37.0,62.0,35.0,43.0,0.482117,0.794312,-0.341919,-0.140259,0.0,-0.007634,-0.007634,1.204663,8.956616,-5.351001,0.156714,0.510815,-0.491675,0.177051,0.068188,0.699829,hungry
1616136763.5960507,1,17.0,37.0,63.0,60.0,42.0,0.482117,0.794312,-0.34198,-0.140259,-0.007634,-0.007634,-0.007634,1.210644,9.002075,-5.388086,0.162695,0.555078,-0.52876,0.183032,0.076563,0.757251,hungry
1616136763.6060636,1,20.0,37.0,63.0,62.0,42.0,0.482178,0.794312,-0.341919,-0.140259,-0.015267,0.0,-0.007634,1.209448,9.046338,-5.426367,0.161499,0.599341,-0.568237,0.186621,0.089722,0.814673,hungry
1616136765.6732037,1,18.0,26.0,48.0,54.0,36.0,0.5849,0.75238,-0.258545,0.157654,-0.022901,-0.007634,0.0,5.540015,8.263965,-2.83042,0.250024,0.436646,-0.223706,-0.031104,0.08374,0.543115,hungry
1616136765.6838682,1,17.0,28.0,50.0,52.0,32.0,0.585144,0.752197,-0.258667,0.157471,-0.030534,-0.007634,0.0,5.548388,8.267553,-2.818457,0.259595,0.439038,-0.215332,-0.025122,0.07417,0.5479,hungry
1616136765.693269,1,19.0,47.0,52.0,51.0,33.0,0.585449,0.751953,-0.25885,0.157288,-0.030534,-0.007634,0.0,5.553174,8.257983,-2.786157,0.26438,0.427075,-0.189014,-0.015552,0.050244,0.533545,hungry
1616136765.7032075,1,17.0,27.0,51.0,53.0,30.0,0.585693,0.75177,-0.258972,0.157166,-0.030534,-0.007634,-0.007634,5.555566,8.235254,-2.752661,0.266772,0.401953,-0.160303,-0.001196,0.026318,0.507227,hungry
1616136765.7131147,1,19.0,28.0,49.0,52.0,32.0,0.585938,0.751526,-0.259094,0.156982,-0.022901,-0.015267,-0.007634,5.551978,8.212524,-2.732324,0.263184,0.378027,-0.144751,0.007178,0.016748,0.482104,hungry
1616136765.7231174,1,19.0,28.0,53.0,53.0,28.0,0.586182,0.751404,-0.259216,0.156799,-0.022901,-0.015267,-0.007634,5.548388,8.190991,-2.715576,0.260791,0.354102,-0.131592,0.017944,0.00957,0.458179,hungry
1616136765.733914,1,19.0,27.0,51.0,54.0,35.0,0.586304,0.751282,-0.259338,0.156616,-0.015267,-0.015267,0.0,5.550781,8.179029,-2.703613,0.26438,0.340942,-0.122021,0.028711,0.001196,0.447412,hungry
1616136765.743148,1,19.0,27.0,47.0,55.0,33.0,0.586365,0.751221,-0.25946,0.156494,-0.007634,-0.007634,0.0,5.555566,8.15271,-2.702417,0.269165,0.314624,-0.120825,0.046655,0.004785,0.428271,hungry
1616136765.7532218,1,18.0,30.0,50.0,51.0,33.0,0.586304,0.75116,-0.259583,0.156494,-0.007634,-0.007634,0.0,5.583081,8.126391,-2.695239,0.295483,0.289502,-0.113647,0.082544,-0.002393,0.419897,hungry
1616136765.7630763,1,19.0,29.0,52.0,47.0,33.0,0.586243,0.751221,-0.259644,0.156555,0.0,-0.007634,0.0,5.591455,8.121607,-2.716773,0.302661,0.285913,-0.132788,0.092114,0.014355,0.425879,hungry
1616136765.7733967,1,17.0,29.0,48.0,53.0,29.0,0.586121,0.751282,-0.259766,0.156616,0.0,-0.007634,0.0,5.602221,8.15271,-2.733521,0.311035,0.319409,-0.147144,0.080151,0.020337,0.461768,hungry
1616136765.783024,1,16.0,27.0,50.0,51.0,32.0,0.585999,0.751282,-0.259827,0.156616,0.0,-0.007634,0.0,5.608203,8.193384,-2.740698,0.317017,0.361279,-0.153125,0.061011,0.016748,0.500049,hungry
1616136765.793204,1,18.0,28.0,50.0,52.0,33.0,0.585999,0.751282,-0.259949,0.156616,-0.007634,-0.007634,0.0,5.617774,8.230469,-2.755054,0.325391,0.398364,-0.166284,0.047852,0.021533,0.537134,hungry
1616136765.8029475,1,19.0,27.0,47.0,51.0,32.0,0.58606,0.751221,-0.260071,0.156494,-0.015267,-0.007634,0.0,5.636914,8.260376,-2.757446,0.344531,0.428271,-0.169873,0.046655,0.015552,0.573022,hungry
1616136765.8132367,1,18.0,26.0,50.0,52.0,28.0,0.586243,0.751038,-0.260132,0.156494,-0.015267,0.0,0.0,5.647681,8.272339,-2.75625,0.354102,0.440234,-0.172266,0.047852,0.013159,0.587378,hungry
1616136765.8232095,1,19.0,26.0,50.0,51.0,29.0,0.586426,0.750916,-0.260193,0.156494,-0.015267,0.0,0.0,5.641699,8.269946,-2.758643,0.346924,0.436646,-0.178247,0.044263,0.021533,0.582593,hungry
1616136765.8332052,1,19.0,28.0,52.0,51.0,32.0,0.586609,0.750732,-0.260193,0.156555,-0.015267,0.0,0.0,5.62854,8.265162,-2.761035,0.332568,0.43186,-0.186621,0.035889,0.033496,0.573022,hungry
1616136765.8431065,1,19.0,29.0,50.0,54.0,31.0,0.586731,0.75061,-0.260254,0.156616,-0.015267,0.0,0.0,5.624951,8.254395,-2.75625,0.327783,0.421094,-0.184229,0.038281,0.034692,0.56106,hungry
1616136765.8531108,1,17.0,27.0,50.0,54.0,31.0,0.586853,0.750427,-0.260315,0.156738,-0.015267,0.0,0.0,5.620166,8.247217,-2.755054,0.319409,0.415112,-0.187817,0.034692,0.040674,0.552686,hungry
1616136765.86302,1,19.0,27.0,50.0,54.0,31.0,0.586975,0.750305,-0.260437,0.156799,-0.015267,0.0,0.007634,5.617774,8.252002,-2.747876,0.314624,0.419897,-0.183032,0.027515,0.037085,0.552686,hungry
1616136765.8730507,1,18.0,26.0,48.0,50.0,35.0,0.587097,0.750183,-0.260559,0.15686,-0.015267,0.0,0.0,5.614184,8.260376,-2.729932,0.308643,0.428271,-0.16748,0.016748,0.021533,0.552686,hungry
1616136765.883359,1,19.0,26.0,48.0,54.0,30.0,0.587219,0.750061,-0.26062,0.15686,-0.015267,0.0,0.0,5.605811,8.267553,-2.711987,0.299072,0.435449,-0.153125,0.003589,0.00957,0.549097,hungry
1616136765.8931072,1,20.0,27.0,51.0,57.0,36.0,0.587402,0.749878,-0.26062,0.156799,-0.022901,0.0,0.0,5.592651,8.260376,-2.711987,0.287109,0.427075,-0.15791,0.0,0.017944,0.537134,hungry
1616136765.9031065,1,19.0,26.0,48.0,54.0,31.0,0.587646,0.749695,-0.260681,0.156799,-0.022901,0.0,0.0,5.583081,8.252002,-2.708398,0.276343,0.417505,-0.159106,-0.003589,0.022729,0.523975,hungry
1616136765.9132648,1,20.0,26.0,49.0,48.0,27.0,0.58783,0.749573,-0.260742,0.156799,-0.022901,0.0,0.0,5.574707,8.243628,-2.700024,0.266772,0.407935,-0.154321,-0.005981,0.022729,0.509619,hungry
1616136765.9230125,1,18.0,28.0,50.0,50.0,30.0,0.588013,0.74939,-0.260742,0.156799,-0.022901,0.0,0.0,5.561548,8.247217,-2.700024,0.252417,0.411523,-0.159106,-0.019141,0.029907,0.50603,hungry
1616136765.933191,1,19.0,21.0,49.0,50.0,29.0,0.588196,0.749207,-0.260803,0.15686,-0.022901,0.0,0.0,5.553174,8.244824,-2.696435,0.242847,0.409131,-0.160303,-0.025122,0.033496,0.500049,hungry
1616136765.943057,1,19.0,27.0,51.0,48.0,31.0,0.58844,0.749023,-0.260803,0.156921,-0.022901,0.007634,0.0,5.548388,8.223291,-2.690454,0.235669,0.386401,-0.160303,-0.017944,0.039478,0.477319,hungry
1616136765.953113,1,19.0,27.0,52.0,52.0,31.0,0.588623,0.74884,-0.260803,0.156982,-0.015267,0.007634,0.0,5.553174,8.189795,-2.692847,0.239258,0.351709,-0.16748,0.003589,0.05144,0.453394,hungry
1616136765.9631443,1,19.0,29.0,50.0,55.0,32.0,0.588684,0.748779,-0.260864,0.157043,-0.007634,0.0,0.0,5.557959,8.161084,-2.690454,0.242847,0.324194,-0.166284,0.022729,0.053833,0.433057,hungry
1616136765.9730527,1,17.0,29.0,55.0,52.0,33.0,0.588745,0.748718,-0.260864,0.157166,-0.007634,0.0,0.0,5.562744,8.158691,-2.680884,0.245239,0.321802,-0.159106,0.025122,0.047852,0.430664,hungry
1616136765.9830148,1,17.0,27.0,51.0,54.0,30.0,0.588806,0.748657,-0.260925,0.157166,-0.007634,0.0,0.0,5.561548,8.168262,-2.677295,0.244043,0.331372,-0.156714,0.019141,0.044263,0.436646,hungry
1616136765.9931483,1,17.0,28.0,51.0,88.0,37.0,0.588806,0.748596,-0.260925,0.157166,-0.007634,0.0,0.0,5.559155,8.192187,-2.666528,0.24165,0.356494,-0.145947,0.001196,0.029907,0.453394,hungry
1616136766.0030572,1,18.0,28.0,51.0,51.0,29.0,0.588928,0.748535,-0.260925,0.157166,-0.015267,0.0,-0.007634,5.555566,8.214917,-2.641406,0.236865,0.378027,-0.123218,-0.015552,0.004785,0.461768,hungry
1616136766.0131342,1,18.0,26.0,50.0,52.0,31.0,0.589111,0.748413,-0.260864,0.157043,-0.015267,-0.007634,-0.007634,5.55437,8.218506,-2.636621,0.238062,0.379224,-0.123218,-0.014355,0.004785,0.462964,hungry
1616136766.0230749,1,19.0,29.0,42.0,52.0,32.0,0.589233,0.748352,-0.260925,0.156982,-0.015267,-0.007634,-0.007634,5.560351,8.205347,-2.631836,0.244043,0.364868,-0.119629,-0.002393,0.002393,0.45459,hungry
1616136766.0333292,1,19.0,28.0,52.0,55.0,32.0,0.589355,0.74823,-0.260925,0.156982,-0.015267,-0.007634,-0.007634,5.568726,8.190991,-2.642602,0.252417,0.350513,-0.133984,0.013159,0.017944,0.451001,hungry
1616136766.0430005,1,17.0,27.0,53.0,50.0,29.0,0.589417,0.748169,-0.260986,0.156921,-0.015267,-0.007634,0.0,5.569922,8.181421,-2.653369,0.253613,0.339746,-0.145947,0.021533,0.031104,0.446216,hungry
1616136766.0531194,1,21.0,28.0,51.0,53.0,31.0,0.589478,0.748108,-0.260986,0.156921,-0.015267,0.0,0.0,5.5771,8.180224,-2.670117,0.260791,0.33855,-0.163892,0.028711,0.046655,0.453394,hungry
1616136766.06318,1,16.0,26.0,49.0,51.0,30.0,0.589539,0.748047,-0.261047,0.156921,-0.015267,0.0,0.0,5.585474,8.165869,-2.689258,0.267969,0.324194,-0.184229,0.044263,0.066992,0.451001,hungry
1616136766.0729368,1,19.0,28.0,51.0,48.0,32.0,0.589539,0.747986,-0.261108,0.156982,-0.007634,0.0,0.0,5.598633,8.149121,-2.694043,0.279932,0.308643,-0.19021,0.063403,0.072974,0.447412,hungry
1616136766.0828538,1,17.0,28.0,45.0,51.0,28.0,0.589478,0.747986,-0.26123,0.157104,0.0,0.0,0.0,5.605811,8.144336,-2.677295,0.283521,0.30625,-0.172266,0.065796,0.055029,0.442627,hungry
1616136766.0929165,1,20.0,29.0,50.0,54.0,32.0,0.589417,0.748047,-0.261292,0.157227,0.0,0.0,0.007634,5.605811,8.151514,-2.64978,0.281128,0.314624,-0.143555,0.057422,0.027515,0.440234,hungry
1616136766.1031058,1,20.0,29.0,53.0,53.0,31.0,0.589355,0.748047,-0.261292,0.157471,0.007634,0.0,0.007634,5.602221,8.16228,-2.617481,0.275146,0.326587,-0.111255,0.043066,-0.003589,0.439038,hungry
1616136766.112888,1,19.0,27.0,50.0,68.0,31.0,0.589294,0.748047,-0.261292,0.157654,0.007634,0.007634,0.007634,5.581885,8.145533,-2.578003,0.252417,0.312231,-0.071777,0.029907,-0.034692,0.404346,hungry
1616136766.123057,1,18.0,26.0,53.0,52.0,32.0,0.589172,0.748047,-0.261292,0.157898,0.007634,0.0,0.0,5.561548,8.11084,-2.537329,0.228491,0.281128,-0.029907,0.025122,-0.0646,0.356494,hungry
1616136766.1331043,1,19.0,28.0,50.0,48.0,31.0,0.588989,0.748169,-0.261292,0.158142,0.022901,0.0,0.007634,5.538818,8.060596,-2.490674,0.203369,0.233276,0.019141,0.028711,-0.099292,0.291895,hungry
1616136766.1428914,1,19.0,26.0,49.0,54.0,33.0,0.588684,0.748352,-0.261353,0.158386,0.030534,0.0,0.007634,5.50293,8.007959,-2.403345,0.163892,0.184229,0.111255,0.017944,-0.171069,0.206958,hungry
1616136766.1530209,1,19.0,29.0,51.0,55.0,30.0,0.588318,0.748535,-0.261353,0.158691,0.030534,0.0,0.007634,5.425171,7.979248,-2.237061,0.082544,0.160303,0.283521,-0.044263,-0.317017,0.099292,hungry
1616136766.163015,1,20.0,27.0,49.0,54.0,32.0,0.588257,0.748596,-0.261108,0.158997,0.030534,0.007634,0.007634,5.262475,8.040258,-1.876978,-0.080151,0.22251,0.643604,-0.238062,-0.641211,-0.031104,hungry
1616136766.1731105,1,17.0,29.0,50.0,48.0,31.0,0.588867,0.74823,-0.260742,0.159241,0.0,0.007634,0.007634,5.019629,8.165869,-1.258496,-0.324194,0.343335,1.246533,-0.546704,-1.193897,-0.221313,hungry
1616136766.1829798,1,20.0,27.0,50.0,52.0,32.0,0.590515,0.74707,-0.260132,0.159363,-0.045802,0.022901,0.015267,4.701416,8.360865,-0.263184,-0.642407,0.526367,2.202368,-0.978564,-2.083935,-0.483301,hungry
1616136766.1929977,1,19.0,28.0,53.0,52.0,29.0,0.594055,0.744446,-0.259583,0.159546,-0.152672,0.038168,0.045802,4.271948,8.63003,1.311133,-1.077856,0.772803,3.694141,-1.583887,-3.483594,-0.86731,hungry
1616136766.2028992,1,16.0,26.0,48.0,50.0,29.0,0.600586,0.739258,-0.25946,0.159424,-0.351145,0.030534,0.10687,3.524268,8.864502,3.325684,-1.839893,0.972583,5.556763,-2.478711,-5.179932,-1.488184,hungry
1616136766.2132514,1,21.0,29.0,51.0,54.0,29.0,0.610046,0.73114,-0.26123,0.157776,-0.59542,-0.091603,0.19084,2.497852,8.69104,5.481397,-2.885449,0.756055,7.497144,-3.441724,-6.848755,-2.515796,hungry
1616136766.2230077,1,20.0,30.0,50.0,51.0,31.0,0.62085,0.720947,-0.266418,0.154175,-0.748092,-0.305344,0.29771,1.125708,7.560547,7.210034,-4.294678,-0.406738,8.988916,-4.221704,-7.921826,-4.337744,hungry
1616136766.2331288,1,18.0,29.0,51.0,52.0,29.0,0.629333,0.711426,-0.275391,0.14801,-0.656489,-0.625954,0.351145,-0.47373,5.336646,8.055811,-5.933594,-2.639014,9.662427,-4.56145,-8.071362,-7.037768,hungry
1616136766.243282,1,19.0,30.0,50.0,51.0,30.0,0.631226,0.706665,-0.28772,0.138977,-0.259542,-1.015267,0.29771,-1.910474,2.448804,7.919434,-7.394263,-5.510108,9.529638,-4.265967,-7.347608,-10.179224,hungry
1616136766.252972,1,21.0,29.0,52.0,52.0,31.0,0.623962,0.709106,-0.302673,0.127197,0.312977,-1.427481,0.229008,-2.908179,0.072974,7.07605,-8.377612,-7.844068,8.926709,-3.719263,-6.020923,-12.698608,hungry
1616136766.2629125,1,21.0,30.0,52.0,55.0,34.0,0.60791,0.717651,-0.320129,0.113281,0.793893,-1.778626,0.221374,-3.279028,-0.893628,5.664429,-8.686255,-8.73291,7.968482,-3.271851,-4.248023,-13.652051,hungry
1616136766.2731376,1,16.0,29.0,52.0,54.0,31.0,0.585083,0.729797,-0.339661,0.098267,1.091603,-1.984733,0.282443,-3.073267,-0.557471,3.659448,-8.372828,-8.271143,6.559253,-2.892627,-2.150928,-12.980932,hungry
1616136766.282983,1,17.0,29.0,56.0,52.0,35.0,0.558899,0.742615,-0.359497,0.08313,1.175573,-1.984733,0.29771,-2.418896,0.782373,1.221411,-7.566528,-6.766211,4.762427,-2.589966,-0.110059,-10.907763,hungry
1616136766.2931657,1,20.0,32.0,52.0,56.0,36.0,0.53302,0.754456,-0.376709,0.068481,1.068702,-1.763359,0.198473,-1.386499,2.70481,-1.642505,-6.334351,-4.670312,2.495459,-2.225098,1.692749,-7.766309,hungry
1616136766.3029332,1,19.0,63.0,50.0,55.0,35.0,0.511536,0.764343,-0.388611,0.05542,0.801527,-1.343511,-0.007634,0.040674,4.860522,-4.292285,-4.684668,-2.380615,0.318213,-1.790845,2.670117,-4.167871,hungry
1616136766.3131025,1,17.0,32.0,52.0,56.0,34.0,0.497253,0.771973,-0.393433,0.044434,0.465649,-0.847328,-0.274809,1.2573,6.58916,-6.800903,-3.249121,-0.590967,-1.885352,-1.235767,3.458472,-0.980957,hungry
1616136766.323037,1,19.0,31.0,56.0,57.0,33.0,0.487915,0.778748,-0.392761,0.034363,0.198473,-0.526718,-0.48855,1.764526,7.248315,-9.823926,-2.515796,0.0646,-4.713379,-0.220117,5.148828,1.40564,hungry
1616136766.3329408,1,20.0,31.0,53.0,56.0,36.0,0.479736,0.785278,-0.390686,0.023743,0.061069,-0.519084,-0.541985,2.231079,7.497144,-12.416285,-1.807593,0.294287,-7.137061,0.967798,6.507812,3.314917,hungry
1616136766.3430133,1,21.0,28.0,54.0,55.0,31.0,0.472168,0.790527,-0.389832,0.012146,-0.015267,-0.633588,-0.48855,3.095996,7.704102,-14.321973,-0.699829,0.480908,-8.894409,2.313623,7.027002,5.008862,hungry
1616136766.353036,1,19.0,33.0,54.0,56.0,35.0,0.463989,0.794922,-0.390808,0.000671,0.015267,-0.717557,-0.419847,4.220508,7.653857,-15.721631,0.655566,0.429468,-10.140943,3.854443,6.964795,6.328369,hungry
1616136766.362909,1,20.0,29.0,54.0,53.0,32.0,0.455139,0.799255,-0.392334,-0.008484,0.122137,-0.633588,-0.374046,5.599829,7.858423,-16.750439,2.232275,0.662744,-11.011841,5.21582,6.336743,7.700513,hungry
1616136766.3729937,1,18.0,31.0,53.0,55.0,32.0,0.446655,0.803711,-0.392822,-0.014404,0.19084,-0.442748,-0.366412,6.725537,8.570215,-17.506495,3.513501,1.422388,-11.620752,5.894116,5.531641,9.167163,hungry
1616136766.3830333,1,17.0,31.0,54.0,56.0,33.0,0.440247,0.8078,-0.391418,-0.018066,0.160305,-0.251908,-0.366412,7.451684,9.709082,-17.586645,4.359277,2.599536,-11.592041,5.750562,4.459765,10.350293,hungry
1616136766.3931031,1,17.0,31.0,56.0,54.0,33.0,0.437134,0.810852,-0.38855,-0.020691,0.045802,-0.10687,-0.351145,7.742383,10.761816,-17.030371,4.74209,3.655859,-10.984326,5.167969,3.380713,10.877856,hungry
1616136766.403092,1,18.0,31.0,56.0,56.0,35.0,0.436951,0.812683,-0.384766,-0.02301,-0.091603,-0.015267,-0.343511,7.710083,11.546582,-15.927393,4.780371,4.411914,-9.880152,4.380811,2.335156,10.735498,hungry
1616136766.4128716,1,17.0,31.0,56.0,57.0,36.0,0.439575,0.813293,-0.38031,-0.02533,-0.21374,0.053435,-0.335878,7.470825,12.034668,-14.363843,4.597339,4.837793,-8.363256,3.51709,1.302759,10.018921,hungry
1616136766.4228616,1,22.0,31.0,56.0,57.0,36.0,0.444458,0.812744,-0.375549,-0.027832,-0.320611,0.091603,-0.305344,7.016235,12.139941,-12.575391,4.187012,4.854541,-6.662134,2.680884,0.447412,8.835791,hungry
1616136766.432918,1,20.0,33.0,54.0,57.0,35.0,0.450562,0.811401,-0.370972,-0.030396,-0.381679,0.10687,-0.267176,6.395361,11.766699,-10.796509,3.602026,4.379614,-4.99331,2.001392,-0.124414,7.283008,hungry
1616136766.4429665,1,21.0,31.0,56.0,56.0,35.0,0.456543,0.809692,-0.367126,-0.032715,-0.366412,0.091603,-0.206107,5.717065,10.960401,-9.1875,2.950049,3.478809,-3.49436,1.539624,-0.43186,5.517285,hungry
1616136766.45238,1,20.0,33.0,57.0,57.0,33.0,0.461121,0.808289,-0.364441,-0.034363,-0.259542,0.068702,-0.145038,5.051929,9.938769,-7.801001,2.30166,2.387793,-2.191602,1.211841,-0.587378,3.7396,hungry
1616136766.462925,1,20.0,31.0,56.0,57.0,33.0,0.463684,0.807556,-0.36261,-0.035156,-0.114504,0.045802,-0.099237,4.427466,8.992505,-6.635816,1.687964,1.403247,-1.074268,0.885254,-0.69624,2.167676,hungry
1616136766.4728413,1,20.0,31.0,58.0,57.0,33.0,0.464355,0.807739,-0.36145,-0.0354,0.015267,0.015267,-0.068702,3.822144,8.387182,-5.690747,1.092212,0.784766,-0.141162,0.427075,-0.81228,0.991724,hungry
1616136766.4820633,1,19.0,32.0,56.0,55.0,33.0,0.463867,0.80835,-0.360596,-0.035583,0.083969,-0.015267,-0.053435,3.268262,8.147924,-4.982544,0.552686,0.546704,0.574219,-0.117236,-0.924731,0.251221,hungry
1616136766.492818,1,20.0,39.0,56.0,57.0,37.0,0.463013,0.809082,-0.360046,-0.036377,0.091603,-0.053435,-0.053435,2.761035,8.12041,-4.598535,0.069385,0.520386,0.972583,-0.614893,-0.907983,-0.129199,hungry
1616136766.5037854,1,19.0,31.0,54.0,54.0,35.0,0.462036,0.809753,-0.359619,-0.038025,0.061069,-0.099237,-0.061069,2.393775,8.144336,-4.504028,-0.258398,0.543115,1.082642,-0.913965,-0.790747,-0.265576,hungry
1616136766.512109,1,19.0,35.0,54.0,57.0,36.0,0.461121,0.810303,-0.359253,-0.040344,0.030534,-0.122137,-0.083969,2.16648,8.060596,-4.673902,-0.439038,0.452197,0.924731,-0.936694,-0.534741,-0.293091,hungry
1616136766.522128,1,19.0,29.0,54.0,56.0,36.0,0.459839,0.811035,-0.359009,-0.042847,0.022901,-0.137405,-0.091603,2.056421,7.882349,-5.068677,-0.497656,0.270361,0.550293,-0.733325,-0.169873,-0.234473,hungry
1616136766.5322175,1,20.0,31.0,53.0,57.0,33.0,0.458008,0.811951,-0.359009,-0.045105,0.045802,-0.137405,-0.083969,2.045654,7.659839,-5.578296,-0.458179,0.052637,0.069385,-0.393579,0.218921,-0.11604,hungry
1616136766.5430362,1,18.0,33.0,53.0,57.0,36.0,0.455566,0.81311,-0.359314,-0.046753,0.091603,-0.137405,-0.061069,2.127002,7.492358,-6.121411,-0.336157,-0.096899,-0.43186,-0.020337,0.546704,0.090918,hungry
1616136766.552861,1,17.0,29.0,57.0,58.0,31.0,0.452515,0.814392,-0.360107,-0.047729,0.129771,-0.122137,-0.022901,2.256201,7.43374,-6.623853,-0.174658,-0.12561,-0.881665,0.295483,0.77041,0.375635,hungry
1616136766.562904,1,20.0,32.0,56.0,57.0,36.0,0.449341,0.815735,-0.361084,-0.048035,0.152672,-0.099237,0.0,2.424878,7.527051,-7.013843,0.011963,0.002393,-1.21543,0.49646,0.839795,0.723755,hungry
1616136766.5722003,1,18.0,33.0,57.0,55.0,33.0,0.446533,0.816895,-0.361938,-0.047668,0.145038,-0.053435,0.015267,2.59834,7.726831,-7.2854,0.193799,0.238062,-1.437939,0.587378,0.795532,1.086231,hungry
1616136766.5823596,1,19.0,31.0,56.0,57.0,36.0,0.444458,0.817749,-0.36261,-0.046936,0.10687,-0.015267,0.015267,2.747876,7.951734,-7.467237,0.340942,0.494067,-1.58269,0.608911,0.710596,1.409229,hungry
1616136766.5921223,1,19.0,30.0,57.0,56.0,39.0,0.443176,0.81842,-0.362854,-0.046021,0.068702,0.015267,0.007634,2.83999,8.126391,-7.555762,0.425879,0.689062,-1.646094,0.583789,0.631641,1.619775,hungry
1616136766.6021943,1,21.0,32.0,54.0,57.0,37.0,0.442627,0.818848,-0.36261,-0.045227,0.022901,0.038168,-0.015267,2.909375,8.241236,-7.515088,0.489282,0.815869,-1.594653,0.535937,0.510815,1.701123,hungry
1616136766.612152,1,20.0,32.0,57.0,55.0,36.0,0.442871,0.81897,-0.362,-0.044617,-0.022901,0.045802,-0.038168,2.969189,8.286695,-7.383496,0.541919,0.860132,-1.467847,0.498853,0.376831,1.671216,hungry
1616136766.622345,1,21.0,33.0,60.0,58.0,36.0,0.443604,0.819031,-0.361145,-0.044312,-0.045802,0.045802,-0.045802,3.013452,8.225683,-7.231567,0.583789,0.790747,-1.326685,0.513208,0.279932,1.543213,hungry
1616136766.6321046,1,19.0,34.0,57.0,56.0,36.0,0.444458,0.81897,-0.360168,-0.044128,-0.053435,0.045802,-0.053435,3.048145,8.104858,-7.059302,0.618481,0.657959,-1.169971,0.551489,0.197388,1.355396,hungry
1616136766.642237,1,20.0,33.0,56.0,57.0,36.0,0.44519,0.81897,-0.359253,-0.043884,-0.045802,0.038168,-0.053435,3.079248,7.988818,-6.857129,0.648389,0.533545,-0.979761,0.568237,0.092114,1.153223,hungry
1616136766.652095,1,19.0,37.0,57.0,57.0,42.0,0.445801,0.819092,-0.358398,-0.043579,-0.022901,0.045802,-0.053435,3.075659,7.911059,-6.651367,0.643604,0.447412,-0.783569,0.535937,-0.00957,0.968994,hungry
1616136766.6621466,1,18.0,32.0,56.0,57.0,33.0,0.446228,0.819214,-0.357544,-0.043213,-0.007634,0.038168,-0.045802,3.025415,7.906274,-6.452783,0.590967,0.437842,-0.592163,0.428271,-0.105273,0.833813,hungry
1616136766.672033,1,15.0,33.0,54.0,57.0,33.0,0.446594,0.819336,-0.356873,-0.042969,-0.007634,0.030534,-0.038168,2.939282,7.956519,-6.261377,0.504834,0.483301,-0.406738,0.267969,-0.196191,0.735718,hungry
1616136766.6822867,1,21.0,33.0,54.0,57.0,36.0,0.446899,0.819397,-0.356384,-0.042908,-0.007634,0.007634,-0.022901,2.836401,8.045044,-6.102271,0.403149,0.567041,-0.252417,0.087329,-0.269165,0.683081,hungry
1616136766.6920662,1,18.0,33.0,58.0,57.0,32.0,0.447205,0.819336,-0.356079,-0.043091,-0.007634,0.0,-0.015267,2.751465,8.157495,-5.963501,0.321802,0.674707,-0.119629,-0.081348,-0.349316,0.665137,hungry
1616136766.7019546,1,19.0,33.0,57.0,57.0,35.0,0.447571,0.819214,-0.355835,-0.043396,-0.015267,-0.007634,-0.015267,2.667725,8.261572,-5.886939,0.242847,0.771606,-0.050244,-0.218921,-0.381616,0.679492,hungry
1616136766.7123215,1,20.0,30.0,56.0,47.0,26.0,0.447998,0.819031,-0.355713,-0.043823,-0.030534,-0.015267,-0.007634,2.59834,8.334546,-5.880957,0.178247,0.836206,-0.052637,-0.300269,-0.362476,0.714185,hungry
1616136766.7219837,1,19.0,32.0,58.0,56.0,26.0,0.448486,0.818787,-0.355591,-0.04425,-0.038168,-0.015267,-0.007634,2.555274,8.334546,-5.921631,0.13877,0.827832,-0.101685,-0.30625,-0.299072,0.72854,hungry
1616136766.7323031,1,19.0,32.0,58.0,56.0,33.0,0.448853,0.818481,-0.355713,-0.044617,-0.030534,-0.015267,0.0,2.526562,8.285498,-5.998193,0.112451,0.772803,-0.186621,-0.261987,-0.203369,0.729736,hungry
1616136766.7422042,1,19.0,31.0,57.0,56.0,32.0,0.449158,0.818298,-0.355896,-0.044922,-0.030534,-0.015267,0.007634,2.52417,8.219702,-6.077148,0.111255,0.702222,-0.270361,-0.191406,-0.119629,0.726147,hungry
1616136766.7520523,1,19.0,32.0,56.0,57.0,33.0,0.44928,0.818054,-0.35614,-0.045044,-0.022901,-0.015267,0.015267,2.539722,8.119214,-6.147729,0.12561,0.600537,-0.343335,-0.096899,-0.04187,0.693848,hungry
1616136766.7621694,1,17.0,33.0,55.0,57.0,33.0,0.44928,0.817932,-0.356506,-0.044983,-0.007634,-0.007634,0.015267,2.573218,8.005567,-6.211133,0.154321,0.488086,-0.406738,0.00957,0.021533,0.653174,hungry
1616136766.7719605,1,18.0,31.0,54.0,52.0,33.0,0.449158,0.81781,-0.356873,-0.044678,0.0,0.0,0.022901,2.599536,7.890723,-6.267358,0.173462,0.378027,-0.460571,0.104077,0.086133,0.605322,hungry
1616136766.7821062,1,19.0,33.0,54.0,57.0,31.0,0.448792,0.817871,-0.3573,-0.04425,0.015267,0.0,0.022901,2.612695,7.816553,-6.30564,0.178247,0.312231,-0.491675,0.154321,0.126807,0.574219,hungry
1616136766.7920103,1,19.0,29.0,54.0,56.0,33.0,0.448364,0.817932,-0.357788,-0.043762,0.022901,-0.007634,0.030534,2.627051,7.803393,-6.310425,0.184229,0.307446,-0.488086,0.159106,0.122021,0.57063,hungry
1616136766.802218,1,20.0,31.0,57.0,57.0,33.0,0.447998,0.817993,-0.358215,-0.043396,0.022901,-0.007634,0.022901,2.639014,7.829712,-6.294873,0.189014,0.342139,-0.465356,0.133984,0.090918,0.584985,hungry
1616136766.8119404,1,21.0,33.0,56.0,57.0,36.0,0.447754,0.817932,-0.358582,-0.043152,0.007634,-0.007634,0.022901,2.64978,7.860816,-6.286499,0.193799,0.379224,-0.452197,0.112451,0.065796,0.606519,hungry
1616136766.8220403,1,20.0,31.0,58.0,57.0,36.0,0.447693,0.817871,-0.358887,-0.042969,-0.007634,-0.007634,0.015267,2.66294,7.869189,-6.27334,0.202173,0.38999,-0.437842,0.10647,0.046655,0.608911,hungry
1616136766.832044,1,19.0,35.0,60.0,57.0,35.0,0.447815,0.817688,-0.359009,-0.042908,-0.015267,0.0,0.0,2.680884,7.848853,-6.255395,0.216528,0.369653,-0.42229,0.122021,0.034692,0.587378,hungry
1616136766.8421612,1,19.0,32.0,56.0,57.0,35.0,0.448059,0.817627,-0.358948,-0.042908,-0.022901,0.0,-0.007634,2.677295,7.830908,-6.242236,0.211743,0.34812,-0.41272,0.126807,0.038281,0.563452,hungry
1616136766.8520668,1,22.0,34.0,58.0,57.0,41.0,0.448364,0.817505,-0.358765,-0.04303,-0.030534,0.0,-0.022901,2.660547,7.824927,-6.2219,0.196191,0.337354,-0.398364,0.11604,0.04187,0.543115,hungry
1616136766.8619869,1,18.0,32.0,58.0,56.0,33.0,0.44873,0.817444,-0.358521,-0.043335,-0.038168,-0.007634,-0.022901,2.64978,7.789038,-6.2219,0.19021,0.294287,-0.404346,0.137573,0.0646,0.512012,hungry
1616136766.8720982,1,17.0,30.0,54.0,56.0,35.0,0.448975,0.817383,-0.358276,-0.04364,-0.030534,-0.007634,-0.022901,2.644995,7.748364,-6.230273,0.19021,0.248828,-0.418701,0.168677,0.089722,0.485693,hungry
1616136766.882087,1,21.0,32.0,59.0,57.0,38.0,0.449097,0.817383,-0.358093,-0.043884,-0.022901,-0.007634,-0.022901,2.627051,7.712476,-6.26018,0.177051,0.209351,-0.451001,0.193799,0.133984,0.471338,hungry
1616136766.892273,1,19.0,32.0,58.0,57.0,35.0,0.448975,0.817444,-0.358032,-0.044128,-0.007634,-0.015267,-0.015267,2.605518,7.702905,-6.300855,0.161499,0.19978,-0.490479,0.203369,0.174658,0.483301,hungry
1616136766.9020815,1,17.0,32.0,57.0,57.0,34.0,0.448669,0.817566,-0.358032,-0.044312,0.007634,-0.015267,-0.015267,2.586377,7.766309,-6.322388,0.147144,0.265576,-0.507227,0.162695,0.173462,0.540723,hungry
1616136766.9122374,1,22.0,32.0,56.0,57.0,33.0,0.448364,0.817749,-0.358093,-0.044434,0.007634,-0.015267,-0.007634,2.564844,7.857226,-6.351099,0.129199,0.358887,-0.529956,0.107666,0.16748,0.620874,hungry
1616136766.922054,1,21.0,29.0,56.0,57.0,36.0,0.44812,0.817871,-0.358093,-0.044617,0.007634,-0.015267,-0.007634,2.572021,7.956519,-6.378613,0.141162,0.459375,-0.553882,0.071777,0.142358,0.715381,hungry
1616136766.9322577,1,20.0,33.0,58.0,57.0,28.0,0.448059,0.817932,-0.358093,-0.044678,0.0,-0.007634,-0.007634,2.582788,8.049829,-6.406128,0.153125,0.552686,-0.579004,0.039478,0.120825,0.803906,hungry
1616136766.9419346,1,17.0,26.0,56.0,56.0,36.0,0.448059,0.817932,-0.358032,-0.044617,-0.007634,0.0,-0.007634,2.588769,8.089307,-6.445605,0.159106,0.592163,-0.619678,0.038281,0.131592,0.860132,hungry
1616136766.9521525,1,17.0,32.0,58.0,57.0,36.0,0.44812,0.817993,-0.357849,-0.044556,-0.007634,0.007634,-0.007634,2.599536,8.107251,-6.468335,0.169873,0.610107,-0.642407,0.045459,0.135181,0.890039,hungry
1616136766.962046,1,17.0,29.0,56.0,57.0,36.0,0.448303,0.817993,-0.357666,-0.044373,-0.015267,0.015267,-0.007634,2.60791,8.11084,-6.468335,0.175854,0.611304,-0.645996,0.050244,0.133984,0.894824,hungry
1616136766.9721303,1,19.0,31.0,58.0,57.0,35.0,0.448547,0.817993,-0.357422,-0.044128,-0.015267,0.022901,-0.015267,2.604321,8.097681,-6.442017,0.168677,0.596948,-0.623267,0.044263,0.128003,0.868506,hungry
1616136766.9819098,1,20.0,33.0,57.0,58.0,38.0,0.448853,0.817932,-0.357056,-0.044006,-0.022901,0.022901,-0.015267,2.585181,8.082129,-6.394165,0.14834,0.577808,-0.581396,0.022729,0.118433,0.823047,hungry
1616136766.992153,1,20.0,29.0,54.0,56.0,37.0,0.44928,0.817871,-0.356689,-0.044006,-0.030534,0.015267,-0.015267,2.563648,8.0594,-6.32478,0.128003,0.549097,-0.519189,0.0,0.096899,0.759644,hungry
1616136767.0021148,1,19.0,31.0,56.0,56.0,37.0,0.449707,0.817749,-0.356384,-0.044067,-0.030534,0.007634,-0.015267,2.552881,8.009155,-6.235059,0.117236,0.492871,-0.437842,-0.008374,0.066992,0.665137,hungry
1616136767.012007,1,19.0,30.0,53.0,57.0,36.0,0.450134,0.817627,-0.35614,-0.044189,-0.030534,0.0,-0.015267,2.538525,7.926611,-6.170459,0.104077,0.404346,-0.38042,0.007178,0.0646,0.559863,hungry
1616136767.0219483,1,19.0,32.0,56.0,57.0,34.0,0.450317,0.817566,-0.356079,-0.044312,-0.022901,-0.007634,-0.007634,2.532544,7.848853,-6.122607,0.099292,0.322998,-0.334961,0.029907,0.063403,0.470142,hungry
1616136767.0320332,1,19.0,32.0,57.0,57.0,36.0,0.450378,0.817505,-0.356079,-0.044434,-0.007634,-0.015267,-0.007634,2.536133,7.802197,-6.080737,0.104077,0.275146,-0.295483,0.044263,0.049048,0.411523,hungry
1616136767.0419898,1,21.0,32.0,57.0,56.0,40.0,0.450256,0.817505,-0.356201,-0.044495,0.0,-0.015267,0.0,2.560059,7.792627,-6.058008,0.129199,0.266772,-0.270361,0.057422,0.019141,0.395972,hungry
1616136767.0518944,1,21.0,32.0,59.0,58.0,37.0,0.450195,0.817505,-0.356323,-0.044495,0.0,-0.007634,0.0,2.582788,7.81416,-6.069971,0.150732,0.289502,-0.281128,0.0646,0.004785,0.424683,hungry
1616136767.0618718,1,20.0,32.0,55.0,57.0,36.0,0.450073,0.817566,-0.356323,-0.044434,0.0,-0.007634,0.0,2.600732,7.848853,-6.099878,0.168677,0.325391,-0.308643,0.069385,0.001196,0.47373,hungry
1616136767.0719614,1,19.0,33.0,56.0,57.0,36.0,0.450012,0.817627,-0.356323,-0.044373,0.0,0.0,-0.007634,2.610303,7.899096,-6.139356,0.178247,0.376831,-0.346924,0.063403,0.004785,0.53833,hungry
1616136767.0821383,1,19.0,35.0,54.0,57.0,33.0,0.450073,0.817627,-0.356323,-0.044373,-0.007634,0.0,-0.007634,2.611499,7.9625,-6.156104,0.178247,0.439038,-0.363672,0.035889,-0.003589,0.595752,hungry
1616136767.0920005,1,19.0,31.0,56.0,57.0,36.0,0.450256,0.817505,-0.356201,-0.044556,-0.022901,-0.007634,-0.007634,2.593555,8.025904,-6.160889,0.163892,0.500049,-0.373242,-0.002393,-0.008374,0.6448,hungry
1616136767.102162,1,20.0,32.0,58.0,63.0,33.0,0.450623,0.817383,-0.356018,-0.044922,-0.038168,-0.015267,-0.015267,2.581592,8.060596,-6.146533,0.156714,0.527563,-0.366064,-0.023926,-0.017944,0.659155,hungry
1616136767.1120546,1,21.0,29.0,56.0,57.0,36.0,0.451111,0.817139,-0.355896,-0.04541,-0.045802,-0.015267,-0.022901,2.587573,8.035474,-6.133374,0.16748,0.492871,-0.362476,0.0,-0.015552,0.634033,hungry
1616136767.1220634,1,20.0,31.0,56.0,57.0,34.0,0.451416,0.816956,-0.355774,-0.045959,-0.038168,-0.022901,-0.022901,2.605518,7.936182,-6.135767,0.192603,0.386401,-0.372046,0.081348,0.010767,0.563452,hungry
1616136767.131945,1,19.0,33.0,58.0,57.0,39.0,0.451477,0.816956,-0.355774,-0.046265,-0.015267,-0.022901,-0.015267,2.610303,7.838086,-6.145337,0.202173,0.285913,-0.381616,0.147144,0.045459,0.494067,hungry
1616136767.1420298,1,20.0,32.0,57.0,56.0,33.0,0.451355,0.817017,-0.355774,-0.046509,0.0,-0.022901,-0.015267,2.615088,7.801001,-6.141748,0.211743,0.248828,-0.376831,0.172266,0.047852,0.46416,hungry
1616136767.1519942,1,19.0,31.0,58.0,57.0,36.0,0.45105,0.817139,-0.355835,-0.046631,0.007634,-0.022901,-0.007634,2.612695,7.815356,-6.152514,0.212939,0.265576,-0.382812,0.166284,0.045459,0.480908,hungry
1616136767.161818,1,20.0,33.0,56.0,57.0,39.0,0.450684,0.817261,-0.355957,-0.046692,0.015267,-0.015267,0.0,2.616284,7.845263,-6.186011,0.218921,0.300269,-0.410327,0.162695,0.049048,0.526367,hungry
1616136769.058998,1,20.0,29.0,57.0,57.0,33.0,0.562561,0.761536,-0.279541,0.159424,-0.015267,0.0,0.0,5.756543,7.839282,-3.320899,0.294287,0.31582,-0.221313,0.057422,0.069385,0.476123,hungry
1616136769.0692303,1,18.0,31.0,58.0,57.0,36.0,0.562683,0.761414,-0.27948,0.159424,-0.015267,0.0,-0.007634,5.740991,7.826123,-3.30415,0.278735,0.301465,-0.208154,0.052637,0.0646,0.452197,hungry
1616136769.0790396,1,15.0,33.0,58.0,57.0,36.0,0.562805,0.761353,-0.27948,0.159424,-0.015267,0.0,-0.007634,5.726636,7.822534,-3.279028,0.26438,0.29668,-0.185425,0.043066,0.047852,0.433057,hungry
1616136769.0892174,1,21.0,35.0,56.0,30.0,33.0,0.562988,0.76123,-0.27948,0.159302,-0.015267,-0.007634,-0.007634,5.703906,7.829712,-3.258691,0.242847,0.301465,-0.168677,0.021533,0.035889,0.419897,hungry
1616136769.0992496,1,20.0,32.0,58.0,57.0,37.0,0.563049,0.761169,-0.279541,0.15918,-0.015267,-0.007634,-0.007634,5.694336,7.838086,-3.263477,0.234473,0.309839,-0.174658,0.010767,0.04187,0.423486,hungry
1616136769.1091554,1,21.0,32.0,38.0,57.0,33.0,0.56311,0.761169,-0.279602,0.159058,-0.007634,-0.007634,0.0,5.689551,7.840478,-3.271851,0.229687,0.311035,-0.183032,0.007178,0.050244,0.423486,hungry
1616136769.119047,1,21.0,32.0,58.0,56.0,33.0,0.56311,0.761108,-0.279663,0.158997,-0.007634,-0.007634,0.0,5.689551,7.858423,-3.274243,0.230884,0.328979,-0.185425,-0.001196,0.049048,0.439038,hungry
1616136769.1292388,1,17.0,31.0,54.0,58.0,36.0,0.56311,0.761108,-0.279785,0.158997,-0.007634,-0.007634,0.0,5.677588,7.879956,-3.286206,0.217725,0.350513,-0.196191,-0.023926,0.057422,0.452197,hungry
1616136769.1392856,1,17.0,32.0,58.0,57.0,33.0,0.56311,0.761108,-0.279846,0.158997,-0.007634,-0.007634,0.0,5.691943,7.896704,-3.289795,0.230884,0.368457,-0.19978,-0.025122,0.053833,0.47373,hungry
1616136769.149131,1,18.0,33.0,60.0,57.0,36.0,0.56311,0.761047,-0.279907,0.159058,-0.007634,0.0,0.0,5.714673,7.919434,-3.280225,0.252417,0.392383,-0.191406,-0.022729,0.035889,0.501245,hungry
1616136769.1592505,1,19.0,28.0,54.0,54.0,35.0,0.563171,0.760986,-0.279907,0.159119,-0.007634,0.0,0.0,5.719458,7.9302,-3.27544,0.256006,0.403149,-0.187817,-0.026318,0.029907,0.510815,hungry
1616136769.169123,1,21.0,32.0,54.0,57.0,35.0,0.563293,0.760925,-0.279907,0.159119,-0.015267,0.0,-0.007634,5.72185,7.929004,-3.27544,0.258398,0.400757,-0.19021,-0.022729,0.0323,0.510815,hungry
1616136769.179231,1,19.0,35.0,58.0,57.0,35.0,0.563354,0.760864,-0.279907,0.159058,-0.015267,-0.007634,-0.007634,5.730225,7.915845,-3.286206,0.266772,0.386401,-0.202173,-0.007178,0.044263,0.508423,hungry
1616136769.189229,1,19.0,33.0,60.0,57.0,37.0,0.563477,0.760742,-0.279968,0.158997,-0.015267,-0.007634,-0.007634,5.748169,7.917041,-3.290991,0.284717,0.387598,-0.210547,0.005981,0.047852,0.521582,hungry
1616136769.199161,1,19.0,33.0,58.0,59.0,39.0,0.56366,0.76062,-0.279968,0.158936,-0.015267,0.0,-0.007634,5.763721,7.896704,-3.298169,0.300269,0.364868,-0.221313,0.033496,0.058618,0.516797,hungry
1616136769.2091513,1,20.0,36.0,58.0,64.0,35.0,0.563782,0.760498,-0.280029,0.158936,-0.015267,0.0,0.0,5.775683,7.882349,-3.302954,0.312231,0.350513,-0.228491,0.05144,0.065796,0.514404,hungry
1616136769.2191963,1,19.0,32.0,59.0,57.0,35.0,0.563965,0.760376,-0.280029,0.159058,-0.015267,0.007634,0.0,5.781665,7.879956,-3.293384,0.314624,0.346924,-0.223706,0.055029,0.062207,0.512012,hungry
1616136769.2290626,1,20.0,32.0,59.0,57.0,39.0,0.564087,0.760254,-0.280029,0.159119,-0.015267,0.007634,0.0,5.77688,7.879956,-3.274243,0.308643,0.346924,-0.206958,0.049048,0.047852,0.502441,hungry
1616136769.2390175,1,20.0,33.0,58.0,57.0,39.0,0.56427,0.760132,-0.280029,0.159241,-0.015267,0.007634,0.0,5.772095,7.887134,-3.250317,0.301465,0.354102,-0.187817,0.038281,0.029907,0.498853,hungry
1616136769.2490094,1,20.0,32.0,31.0,57.0,37.0,0.564453,0.76001,-0.279968,0.159302,-0.015267,0.007634,0.0,5.758935,7.890723,-3.240747,0.288306,0.356494,-0.181836,0.025122,0.027515,0.491675,hungry
1616136769.259177,1,20.0,32.0,56.0,64.0,31.0,0.564636,0.759827,-0.279968,0.159302,-0.015267,0.0,-0.007634,5.742188,7.890723,-3.237158,0.270361,0.355298,-0.183032,0.011963,0.033496,0.480908,hungry
1616136769.2690868,1,19.0,32.0,56.0,59.0,38.0,0.564819,0.759705,-0.279968,0.159241,-0.015267,0.0,-0.007634,5.730225,7.885938,-3.241943,0.259595,0.349316,-0.192603,0.008374,0.046655,0.472534,hungry
1616136769.2791317,1,19.0,33.0,60.0,55.0,36.0,0.564941,0.759644,-0.280029,0.159119,-0.022901,-0.007634,-0.007634,5.732617,7.887134,-3.245532,0.261987,0.34812,-0.197388,0.010767,0.050244,0.474927,hungry
1616136769.2891824,1,20.0,29.0,58.0,57.0,37.0,0.565186,0.75946,-0.280029,0.158997,-0.022901,-0.007634,-0.007634,5.727832,7.900293,-3.250317,0.258398,0.358887,-0.206958,0.002393,0.058618,0.484497,hungry
1616136769.2990172,1,19.0,33.0,60.0,57.0,36.0,0.565369,0.759338,-0.280029,0.158875,-0.022901,0.0,-0.007634,5.719458,7.921826,-3.255103,0.251221,0.379224,-0.215332,-0.013159,0.0646,0.497656,hungry
1616136769.3091042,1,21.0,37.0,59.0,57.0,37.0,0.565674,0.759155,-0.280029,0.158752,-0.030534,0.0,-0.007634,5.71228,7.933789,-3.259888,0.245239,0.387598,-0.226099,-0.022729,0.07417,0.504834,hungry
1616136769.319091,1,20.0,33.0,58.0,57.0,36.0,0.565979,0.758972,-0.280029,0.15863,-0.030534,0.0,-0.007634,5.715869,7.929004,-3.255103,0.248828,0.379224,-0.227295,-0.014355,0.076563,0.500049,hungry
1616136769.3290946,1,19.0,31.0,54.0,57.0,36.0,0.566223,0.758789,-0.280029,0.15863,-0.022901,0.0,0.0,5.718262,7.917041,-3.24314,0.251221,0.366064,-0.220117,-0.004785,0.072974,0.489282,hungry
1616136769.3389995,1,19.0,37.0,58.0,57.0,36.0,0.566406,0.758606,-0.280029,0.15863,-0.015267,0.0,0.0,5.719458,7.894311,-3.219214,0.251221,0.342139,-0.200977,0.007178,0.059814,0.465356,hungry
1616136769.3489509,1,17.0,33.0,58.0,57.0,38.0,0.566528,0.758484,-0.28009,0.158752,-0.015267,0.0,0.0,5.72544,7.870386,-3.200073,0.25481,0.319409,-0.185425,0.022729,0.049048,0.44502,hungry
1616136769.359002,1,22.0,32.0,58.0,60.0,39.0,0.566589,0.758423,-0.280151,0.158875,-0.007634,0.0,0.0,5.72544,7.850049,-3.198877,0.252417,0.299072,-0.185425,0.0323,0.053833,0.428271,hungry
1616136769.3691497,1,19.0,32.0,58.0,57.0,36.0,0.566589,0.758362,-0.280212,0.158936,0.0,-0.007634,0.0,5.718262,7.829712,-3.207251,0.244043,0.279932,-0.194995,0.038281,0.068188,0.411523,hungry
1616136769.3788955,1,21.0,34.0,58.0,57.0,37.0,0.566467,0.758423,-0.280334,0.158997,0.0,-0.007634,0.0,5.729028,7.817749,-3.209644,0.252417,0.270361,-0.193799,0.050244,0.066992,0.407935,hungry
1616136769.3890722,1,18.0,33.0,58.0,58.0,37.0,0.566406,0.758423,-0.280396,0.158997,0.0,-0.007634,0.0,5.733813,7.829712,-3.209644,0.257202,0.283521,-0.193799,0.046655,0.063403,0.421094,hungry
1616136769.39908,1,20.0,33.0,57.0,56.0,37.0,0.566406,0.758423,-0.280334,0.158997,-0.007634,0.0,-0.007634,5.743384,7.857226,-3.221606,0.266772,0.311035,-0.205762,0.038281,0.066992,0.451001,hungry
1616136769.4089863,1,20.0,32.0,56.0,57.0,39.0,0.566528,0.758362,-0.280334,0.158997,-0.015267,0.0,-0.007634,5.756543,7.884741,-3.214429,0.279932,0.337354,-0.200977,0.0323,0.053833,0.477319,hungry
1616136769.419172,1,20.0,32.0,54.0,58.0,35.0,0.56665,0.758301,-0.280273,0.158936,-0.015267,0.0,-0.007634,5.774487,7.88833,-3.198877,0.299072,0.33855,-0.187817,0.045459,0.035889,0.484497,hungry
1616136769.4289153,1,21.0,33.0,58.0,57.0,39.0,0.566833,0.758179,-0.280212,0.158997,-0.015267,0.0,-0.007634,5.780469,7.876367,-3.192895,0.303857,0.325391,-0.185425,0.057422,0.035889,0.477319,hungry
1616136769.4390843,1,21.0,35.0,60.0,58.0,39.0,0.566956,0.758118,-0.280151,0.159119,-0.007634,0.007634,0.0,5.785254,7.859619,-3.16897,0.307446,0.308643,-0.165088,0.069385,0.019141,0.459375,hungry
1616136769.4491043,1,21.0,31.0,57.0,57.0,36.0,0.567017,0.757996,-0.28009,0.159302,-0.007634,0.015267,0.0,5.780469,7.834497,-3.129492,0.300269,0.284717,-0.129199,0.075366,-0.007178,0.425879,hungry
1616136769.4588745,1,17.0,33.0,59.0,57.0,37.0,0.567078,0.757935,-0.279968,0.159607,0.0,0.015267,0.0,5.763721,7.798608,-3.086426,0.279932,0.250024,-0.088525,0.076563,-0.033496,0.375635,hungry
1616136769.469077,1,19.0,32.0,58.0,57.0,33.0,0.567017,0.757935,-0.279907,0.159973,0.007634,0.015267,0.0,5.752954,7.761523,-3.02063,0.265576,0.215332,-0.023926,0.081348,-0.08374,0.321802,hungry
1616136769.4790893,1,19.0,35.0,58.0,57.0,36.0,0.566895,0.757996,-0.279785,0.160339,0.015267,0.015267,0.0,5.737402,7.70769,-2.948853,0.246436,0.163892,0.046655,0.092114,-0.136377,0.248828,hungry
1616136769.4890368,1,20.0,29.0,58.0,57.0,37.0,0.56665,0.758118,-0.279663,0.160828,0.030534,0.015267,0.0,5.714673,7.634717,-2.871094,0.217725,0.095703,0.126807,0.104077,-0.191406,0.156714,hungry
1616136769.4989493,1,20.0,33.0,56.0,57.0,37.0,0.566284,0.758362,-0.27948,0.161377,0.045802,0.015267,0.0,5.683569,7.573706,-2.790942,0.181836,0.039478,0.211743,0.104077,-0.252417,0.066992,hungry
1616136769.5088775,1,20.0,31.0,58.0,57.0,35.0,0.565796,0.758667,-0.279236,0.161926,0.053435,0.007634,0.0,5.635718,7.529443,-2.680884,0.130396,0.001196,0.328979,0.078955,-0.343335,-0.026318,hungry
1616136769.5188682,1,22.0,35.0,58.0,57.0,39.0,0.565247,0.759094,-0.278931,0.162476,0.068702,0.007634,0.0,5.578296,7.47561,-2.540918,0.070581,-0.045459,0.478516,0.050244,-0.460571,-0.142358,hungry
1616136769.528918,1,19.0,32.0,54.0,57.0,37.0,0.564575,0.759583,-0.278625,0.163086,0.076336,0.007634,0.0,5.504126,7.420581,-2.360278,-0.005981,-0.093311,0.669922,0.005981,-0.613696,-0.281128,hungry
1616136769.539198,1,22.0,33.0,58.0,57.0,36.0,0.563965,0.76001,-0.278259,0.163696,0.083969,0.007634,0.0,5.417993,7.365552,-2.124609,-0.095703,-0.142358,0.915161,-0.047852,-0.814673,-0.446216,hungry
1616136769.5489285,1,21.0,32.0,58.0,57.0,37.0,0.563538,0.760376,-0.277771,0.164429,0.076336,0.015267,0.0,5.285205,7.334448,-1.800415,-0.233276,-0.168677,1.244141,-0.160303,-1.088623,-0.645996,hungry
1616136769.5588422,1,20.0,31.0,57.0,56.0,39.0,0.563477,0.760498,-0.2771,0.1651,0.061069,0.022901,0.0,5.093799,7.371533,-1.34104,-0.427075,-0.130396,1.699927,-0.362476,-1.483398,-0.86731,hungry
1616136769.5689938,1,19.0,35.0,60.0,57.0,37.0,0.564209,0.760193,-0.276123,0.165649,0.022901,0.030534,-0.015267,4.856934,7.436133,-0.765625,-0.66394,-0.072974,2.256201,-0.616089,-1.971484,-1.125708,hungry
1616136769.5790603,1,20.0,31.0,58.0,58.0,37.0,0.565857,0.759338,-0.275024,0.165833,-0.030534,0.038168,-0.022901,4.539917,7.461255,-0.11604,-0.977368,-0.065796,2.867505,-0.905591,-2.487085,-1.473828,hungry
1616136769.58904,1,20.0,33.0,59.0,57.0,38.0,0.568481,0.757874,-0.273743,0.16571,-0.091603,0.038168,-0.038168,4.164282,7.416992,0.631641,-1.347021,-0.137573,3.557764,-1.201074,-3.054126,-1.926025,hungry
1616136769.5989144,1,20.0,32.0,58.0,57.0,39.0,0.572205,0.755676,-0.2724,0.165039,-0.152672,0.030534,-0.045802,3.744385,7.267456,1.460669,-1.754956,-0.325391,4.307837,-1.471436,-3.657056,-2.488281,hungry
1616136769.609012,1,21.0,35.0,60.0,57.0,37.0,0.576843,0.752869,-0.271118,0.163818,-0.21374,0.015267,-0.061069,3.176147,6.949243,2.280127,-2.306445,-0.691455,5.030396,-1.762134,-4.179834,-3.240747,hungry
1616136769.6189528,1,17.0,33.0,55.0,57.0,36.0,0.581848,0.749878,-0.27002,0.161743,-0.244275,-0.030534,-0.083969,2.563648,6.35708,3.0302,-2.892627,-1.338647,5.681177,-1.932007,-4.588965,-4.197778,hungry
1616136769.629004,1,20.0,33.0,59.0,57.0,36.0,0.586426,0.747314,-0.269043,0.158752,-0.21374,-0.099237,-0.122137,1.819556,5.48977,3.562549,-3.597241,-2.262183,6.127393,-2.043262,-4.738501,-5.382104,hungry
1616136769.6389403,1,20.0,35.0,57.0,57.0,36.0,0.589539,0.746033,-0.268127,0.154541,-0.122137,-0.19084,-0.175573,0.997705,4.495654,3.867603,-4.359277,-3.312524,6.385791,-2.140161,-4.663135,-6.66333,hungry
1616136769.6489255,1,21.0,35.0,58.0,58.0,36.0,0.590698,0.746582,-0.267395,0.148621,0.0,-0.320611,-0.244275,0.196191,3.521875,3.908276,-5.073462,-4.342529,6.434839,-2.231079,-4.360474,-7.872778,hungry
1616136769.6591775,1,19.0,32.0,58.0,56.0,36.0,0.589111,0.749512,-0.266968,0.140808,0.167939,-0.480916,-0.312977,-0.456982,2.668921,3.673804,-5.607007,-5.24812,6.281714,-2.263379,-3.848462,-8.858521,hungry
1616136769.6689372,1,20.0,31.0,57.0,56.0,33.0,0.58429,0.755005,-0.266968,0.131287,0.366412,-0.633588,-0.366412,-0.948657,2.050439,3.088818,-5.947949,-5.908472,5.858228,-2.271753,-3.061304,-9.488965,hungry
1616136769.6789217,1,17.0,33.0,57.0,57.0,33.0,0.5755,0.763245,-0.267822,0.120117,0.587786,-0.80916,-0.389313,-1.259692,1.664038,1.92124,-6.077148,-6.314013,4.945459,-2.191602,-1.793237,-9.654053,hungry
1616136769.6888463,1,17.0,32.0,57.0,57.0,37.0,0.561951,0.774231,-0.270447,0.107483,0.816794,-1.015267,-0.351145,-1.303955,1.690356,0.272754,-5.913257,-6.267358,3.655859,-2.031299,-0.239258,-9.132471,hungry
1616136769.6988611,1,21.0,35.0,58.0,57.0,37.0,0.544189,0.786804,-0.275513,0.093811,0.984733,-1.198473,-0.259542,-0.996509,2.327979,-1.649683,-5.380908,-5.556763,2.172461,-1.821948,1.232178,-7.725635,hungry
1616136769.7089405,1,19.0,37.0,58.0,58.0,39.0,0.523315,0.799744,-0.283203,0.079285,1.068702,-1.358779,-0.137405,-0.477319,3.399853,-4.024316,-4.624854,-4.362866,0.283521,-1.533643,2.733521,-5.537622,hungry
1616136769.7190225,1,21.0,36.0,60.0,57.0,36.0,0.500305,0.812073,-0.293396,0.064209,1.076336,-1.473282,-0.015267,0.265576,4.82583,-6.613086,-3.63313,-2.767017,-1.799219,-1.140064,3.932202,-2.70481,hungry
1616136769.7289891,1,21.0,35.0,58.0,57.0,36.0,0.4776,0.82251,-0.304688,0.049438,0.969466,-1.450382,0.061069,1.327881,6.584375,-8.874072,-2.320801,-0.819458,-3.593652,-0.674707,4.27793,0.452197,hungry
1616136769.7390082,1,21.0,33.0,57.0,57.0,37.0,0.45813,0.8302,-0.31543,0.036194,0.763359,-1.282443,0.083969,2.542114,8.286695,-10.731909,-0.878076,1.055127,-5.071069,-0.126807,4.001587,3.399853,hungry
1616136769.748934,1,20.0,33.0,58.0,55.0,35.0,0.442932,0.835571,-0.324036,0.024902,0.541985,-1.038168,0.030534,3.596045,9.589453,-12.235644,0.374438,2.493066,-6.29248,0.434253,3.573315,5.743384,hungry
1616136769.758265,1,20.0,36.0,58.0,57.0,37.0,0.431885,0.839417,-0.329529,0.015503,0.335878,-0.778626,-0.083969,4.396362,10.55127,-13.339819,1.351807,3.544605,-7.200464,0.910376,3.111548,7.463647,hungry
1616136769.768917,1,20.0,36.0,59.0,57.0,37.0,0.424683,0.842285,-0.331848,0.007385,0.152672,-0.580153,-0.198473,4.957422,11.1542,-14.208325,2.073169,4.1906,-7.944556,1.387695,2.819653,8.664721,hungry
1616136769.7782676,1,20.0,32.0,58.0,55.0,37.0,0.420166,0.84436,-0.332275,-0.000122,0.0,-0.465649,-0.251908,5.394067,11.442505,-14.896192,2.659351,4.48728,-8.557055,1.945166,2.666528,9.460254,hungry
1616136769.788157,1,19.0,32.0,58.0,57.0,35.0,0.417358,0.845703,-0.332458,-0.007141,-0.099237,-0.419847,-0.236641,5.865405,11.456861,-15.466822,3.263477,4.492065,-9.08103,2.671314,2.578003,9.974658,hungry
1616136769.7982152,1,21.0,35.0,61.0,58.0,42.0,0.415405,0.846313,-0.333069,-0.013184,-0.129771,-0.381679,-0.19084,6.366651,11.320483,-15.859204,3.872388,4.343726,-9.444702,3.434546,2.451196,10.258179,hungry
1616136769.8088417,1,21.0,35.0,57.0,57.0,40.0,0.413879,0.846497,-0.334229,-0.017822,-0.129771,-0.312977,-0.122137,6.828418,11.21521,-15.890307,4.411914,4.231275,-9.454272,3.99082,2.113843,10.310816,hungry
1616136769.818816,1,19.0,33.0,54.0,57.0,42.0,0.413147,0.846375,-0.335388,-0.020569,-0.114504,-0.206107,-0.083969,7.095191,11.156591,-15.558935,4.71936,4.166675,-9.112134,4.200171,1.67959,10.107447,hungry
1616136769.8289351,1,21.0,33.0,58.0,57.0,37.0,0.413208,0.84613,-0.335938,-0.021667,-0.099237,-0.083969,-0.061069,7.111938,11.102758,-14.902173,4.750464,4.10686,-8.457764,4.069776,1.227393,9.637304,hungry
1616136769.8390777,1,22.0,35.0,60.0,57.0,36.0,0.414246,0.845581,-0.335938,-0.021545,-0.122137,0.015267,-0.038168,6.893018,10.962793,-14.019312,4.521973,3.954932,-7.59165,3.709692,0.852954,8.899195,hungry
1616136769.8488815,1,22.0,35.0,61.0,57.0,36.0,0.416321,0.844788,-0.335571,-0.020508,-0.145038,0.091603,-0.015267,6.480298,10.664917,-12.980932,4.080542,3.635522,-6.585571,3.226392,0.601733,7.902686,hungry
1616136769.858912,1,22.0,37.0,59.0,57.0,39.0,0.419006,0.843689,-0.334961,-0.018982,-0.160305,0.137405,0.007634,5.959912,10.223486,-11.865992,3.521875,3.16897,-5.513696,2.711987,0.436646,6.729126,hungry
1616136769.86806,1,19.0,33.0,57.0,59.0,38.0,0.422058,0.842529,-0.334106,-0.01709,-0.167939,0.175573,0.007634,5.380908,9.654053,-10.768994,2.898608,2.572021,-4.466943,2.226294,0.37085,5.464648,hungry
1616136769.8783946,1,21.0,35.0,57.0,57.0,37.0,0.425049,0.841492,-0.333069,-0.015015,-0.152672,0.19084,0.007634,4.770801,9.010449,-9.752149,2.243042,1.900903,-3.497949,1.781274,0.388794,4.189404,hungry
1616136769.8881152,1,19.0,35.0,60.0,58.0,37.0,0.427734,0.840576,-0.332031,-0.012939,-0.129771,0.183206,0.007634,4.164282,8.403931,-8.79751,1.593457,1.271655,-2.586377,1.336255,0.404346,2.981152,hungry
1616136769.898069,1,21.0,36.0,58.0,59.0,27.0,0.429993,0.839844,-0.330994,-0.01123,-0.10687,0.160305,0.007634,3.603223,7.857226,-7.932593,0.997705,0.705811,-1.759741,0.927124,0.403149,1.887744,hungry
1616136769.9082315,1,16.0,33.0,58.0,59.0,38.0,0.431885,0.839233,-0.3302,-0.009888,-0.083969,0.122137,0.007634,3.124707,7.393066,-7.181323,0.491675,0.224902,-1.038379,0.574219,0.376831,0.946265,hungry
1616136769.9181266,1,21.0,35.0,57.0,59.0,37.0,0.43335,0.838745,-0.329529,-0.009033,-0.068702,0.083969,0.007634,2.70481,7.030591,-6.55686,0.053833,-0.150732,-0.439038,0.256006,0.346924,0.177051,hungry
1616136769.9281669,1,22.0,37.0,58.0,57.0,40.0,0.434509,0.838318,-0.329102,-0.008728,-0.061069,0.045802,0.0,2.351904,6.7052,-6.091504,-0.30625,-0.490479,0.005981,0.025122,0.364868,-0.446216,hungry
1616136769.9383366,1,20.0,35.0,61.0,58.0,39.0,0.43512,0.838074,-0.328857,-0.008911,-0.038168,0.007634,0.0,2.106665,6.415698,-5.803198,-0.551489,-0.788355,0.283521,-0.088525,0.42229,-0.904395,hungry
1616136769.9482875,1,21.0,36.0,61.0,43.0,42.0,0.435059,0.838074,-0.328979,-0.009338,-0.007634,-0.030534,0.0,1.958325,6.168067,-5.681177,-0.692651,-1.038379,0.406738,-0.100488,0.513208,-1.203467,hungry
1616136769.95831,1,21.0,33.0,60.0,58.0,39.0,0.434204,0.838379,-0.329285,-0.009949,0.030534,-0.053435,0.0,1.912866,6.0281,-5.69314,-0.724951,-1.169971,0.407935,-0.055029,0.586182,-1.307544,hungry
1616136769.968093,1,19.0,32.0,58.0,57.0,38.0,0.432739,0.838928,-0.329773,-0.010498,0.068702,-0.076336,0.0,1.941577,6.034082,-5.81875,-0.681885,-1.148438,0.307446,-0.001196,0.630444,-1.21543,hungry
1616136769.9780867,1,18.0,37.0,57.0,58.0,37.0,0.430786,0.839661,-0.330444,-0.011108,0.091603,-0.083969,0.0,2.038476,6.182422,-6.023315,-0.568237,-0.978564,0.135181,0.047852,0.624463,-0.95105,hungry
1616136769.9881587,1,21.0,33.0,57.0,57.0,38.0,0.42865,0.840454,-0.331177,-0.01178,0.099237,-0.091603,0.0,2.177246,6.451587,-6.280518,-0.410327,-0.685474,-0.084937,0.080151,0.575415,-0.553882,hungry
1616136769.998104,1,20.0,32.0,61.0,57.0,39.0,0.426697,0.841248,-0.331726,-0.012451,0.091603,-0.091603,-0.007634,2.348315,6.820044,-6.541308,-0.220117,-0.295483,-0.312231,0.084937,0.468945,-0.072974,hungry
1616136770.008162,1,20.0,36.0,58.0,58.0,35.0,0.425171,0.841797,-0.332214,-0.013367,0.061069,-0.091603,-0.022901,2.560059,7.206445,-6.76023,0.011963,0.104077,-0.507227,0.10647,0.307446,0.401953,hungry
1616136770.0180676,1,19.0,36.0,60.0,57.0,39.0,0.424316,0.842102,-0.332458,-0.014221,0.022901,-0.068702,-0.022901,2.781372,7.511499,-6.970777,0.250024,0.415112,-0.703418,0.181836,0.178247,0.814673,hungry
1616136770.0281131,1,20.0,33.0,61.0,57.0,41.0,0.424011,0.842224,-0.33252,-0.014893,-0.007634,-0.045802,-0.030534,2.972778,7.708887,-7.157397,0.45459,0.611304,-0.885254,0.290698,0.10647,1.125708,hungry
1616136770.0382636,1,21.0,33.0,60.0,57.0,35.0,0.423889,0.842346,-0.332397,-0.015259,-0.015267,-0.022901,-0.030534,3.118726,7.834497,-7.287793,0.608911,0.735718,-1.014453,0.382812,0.056226,1.337451,hungry
1616136770.048144,1,21.0,35.0,60.0,57.0,38.0,0.424011,0.842407,-0.332153,-0.01532,-0.015267,0.0,-0.030534,3.221606,7.945752,-7.341626,0.712988,0.84458,-1.069482,0.42229,-0.00957,1.478613,hungry
1616136770.0581274,1,19.0,35.0,58.0,55.0,37.0,0.424377,0.842346,-0.331726,-0.015198,-0.022901,0.015267,-0.030534,3.263477,8.071362,-7.296167,0.754858,0.965405,-1.031201,0.376831,-0.108862,1.551587,hungry
1616136770.0681086,1,20.0,33.0,54.0,57.0,39.0,0.425049,0.842224,-0.331177,-0.015015,-0.038168,0.030534,-0.022901,3.258691,8.126391,-7.180127,0.746484,1.012061,-0.925928,0.314624,-0.196191,1.515698,hungry
1616136770.0781243,1,22.0,34.0,59.0,57.0,35.0,0.425903,0.842041,-0.330688,-0.014709,-0.038168,0.038168,-0.022901,3.209644,8.12041,-7.047339,0.691455,0.995313,-0.806299,0.244043,-0.239258,1.414014,hungry
1616136770.0881906,1,19.0,29.0,58.0,58.0,36.0,0.426697,0.841797,-0.330139,-0.014343,-0.038168,0.038168,-0.022901,3.116333,8.079737,-6.888232,0.590967,0.946265,-0.661548,0.149536,-0.261987,1.260889,hungry
1616136770.0980403,1,20.0,37.0,59.0,58.0,40.0,0.42749,0.841614,-0.32959,-0.014038,-0.038168,0.038168,-0.015267,2.985938,8.043848,-6.732715,0.455786,0.900806,-0.519189,0.025122,-0.26438,1.102978,hungry
1616136770.1081915,1,19.0,35.0,59.0,57.0,40.0,0.428345,0.841431,-0.329102,-0.013916,-0.038168,0.030534,-0.015267,2.857934,8.012744,-6.565234,0.324194,0.857739,-0.364868,-0.099292,-0.279932,0.940283,hungry
1616136770.117978,1,19.0,37.0,58.0,57.0,36.0,0.429199,0.841125,-0.328674,-0.014038,-0.045802,0.015267,-0.015267,2.740698,7.940967,-6.426465,0.206958,0.773999,-0.240454,-0.181836,-0.266772,0.77041,hungry
1616136770.1279974,1,20.0,36.0,59.0,57.0,41.0,0.429932,0.840881,-0.32843,-0.014282,-0.045802,0.007634,-0.015267,2.646191,7.801001,-6.340332,0.113647,0.62207,-0.166284,-0.194995,-0.203369,0.588574,hungry
1616136770.1379294,1,20.0,33.0,60.0,57.0,37.0,0.43042,0.840637,-0.328308,-0.014526,-0.030534,-0.007634,-0.007634,2.617481,7.652661,-6.278125,0.086133,0.466553,-0.113647,-0.14834,-0.160303,0.435449,hungry
1616136770.148289,1,19.0,36.0,58.0,58.0,36.0,0.430603,0.840515,-0.328308,-0.014587,-0.015267,-0.007634,0.0,2.597144,7.535425,-6.235059,0.065796,0.346924,-0.07417,-0.112451,-0.126807,0.317017,hungry
1616136770.1581092,1,20.0,32.0,59.0,58.0,41.0,0.430603,0.840515,-0.328369,-0.014587,0.0,-0.007634,0.0,2.568433,7.445703,-6.227881,0.037085,0.257202,-0.066992,-0.088525,-0.078955,0.239258,hungry
1616136770.168072,1,21.0,36.0,60.0,58.0,40.0,0.430359,0.840637,-0.32843,-0.014587,0.015267,-0.007634,0.0,2.554077,7.405029,-6.24104,0.023926,0.220117,-0.075366,-0.076563,-0.050244,0.214136,hungry
1616136770.1779444,1,21.0,32.0,58.0,57.0,37.0,0.430054,0.840759,-0.328552,-0.014587,0.015267,-0.015267,0.0,2.548096,7.421777,-6.243433,0.017944,0.240454,-0.071777,-0.093311,-0.057422,0.224902,hungry
1616136770.1881063,1,19.0,32.0,59.0,57.0,39.0,0.42981,0.84082,-0.328613,-0.014709,0.007634,-0.015267,-0.007634,2.555274,7.469629,-6.242236,0.028711,0.290698,-0.066992,-0.113647,-0.088525,0.261987,hungry
1616136770.19802,1,20.0,33.0,58.0,57.0,40.0,0.429749,0.84082,-0.328674,-0.014954,0.0,-0.022901,-0.007634,2.57561,7.531836,-6.25061,0.052637,0.352905,-0.075366,-0.12561,-0.122021,0.319409,hungry
1616136770.2083194,1,18.0,32.0,58.0,58.0,35.0,0.429932,0.84082,-0.328552,-0.015381,-0.022901,-0.022901,-0.022901,2.599536,7.571313,-6.272143,0.08374,0.386401,-0.099292,-0.111255,-0.136377,0.367261,hungry
1616136770.2178934,1,19.0,36.0,58.0,57.0,37.0,0.430176,0.840698,-0.328369,-0.01593,-0.030534,-0.022901,-0.030534,2.628247,7.561743,-6.32478,0.122021,0.37085,-0.156714,-0.055029,-0.110059,0.400757,hungry
1616136770.2281246,1,20.0,32.0,56.0,57.0,37.0,0.430359,0.840698,-0.328247,-0.016479,-0.030534,-0.030534,-0.030534,2.66294,7.503125,-6.418091,0.165088,0.305054,-0.252417,0.043066,-0.039478,0.424683,hungry
1616136770.2381165,1,20.0,33.0,59.0,57.0,37.0,0.430298,0.840698,-0.328186,-0.016968,-0.015267,-0.030534,-0.022901,2.715576,7.469629,-6.504224,0.227295,0.269165,-0.33855,0.13877,0.0,0.467749,hungry
1616136770.248031,1,20.0,36.0,60.0,57.0,40.0,0.430115,0.840759,-0.328186,-0.017273,-0.007634,-0.022901,-0.015267,2.770606,7.495947,-6.574805,0.288306,0.29668,-0.406738,0.192603,0.002393,0.546704,hungry
1616136770.2581728,1,20.0,31.0,57.0,57.0,39.0,0.429932,0.840881,-0.328186,-0.017456,0.0,-0.015267,-0.015267,2.813672,7.553369,-6.635816,0.334961,0.354102,-0.46416,0.216528,-0.005981,0.636426,hungry
1616136770.2679756,1,19.0,33.0,58.0,57.0,39.0,0.429749,0.841003,-0.328125,-0.017517,0.007634,-0.007634,-0.015267,2.83999,7.635913,-6.69563,0.364868,0.439038,-0.521582,0.211743,-0.017944,0.742895,hungry
1616136770.2780726,1,20.0,35.0,58.0,58.0,36.0,0.429688,0.841064,-0.328064,-0.017456,0.0,0.0,-0.015267,2.84956,7.713672,-6.74707,0.373242,0.517993,-0.571826,0.191406,-0.019141,0.833813,hungry
1616136770.288135,1,18.0,36.0,58.0,58.0,38.0,0.429749,0.841125,-0.327881,-0.017395,-0.007634,0.007634,-0.015267,2.851953,7.757935,-6.791333,0.376831,0.56106,-0.616089,0.185425,-0.007178,0.894824,hungry
1616136770.2979102,1,20.0,37.0,62.0,57.0,39.0,0.42981,0.841125,-0.327759,-0.017212,-0.007634,0.015267,-0.007634,2.861523,7.766309,-6.812866,0.384009,0.569434,-0.638818,0.193799,0.0,0.917554,hungry
1616136770.3080287,1,20.0,35.0,60.0,57.0,36.0,0.429932,0.841125,-0.327576,-0.016907,-0.007634,0.022901,-0.007634,2.844775,7.761523,-6.823633,0.362476,0.564648,-0.651978,0.183032,0.023926,0.916357,hungry
1616136770.3179607,1,18.0,35.0,59.0,57.0,36.0,0.429993,0.841187,-0.327393,-0.016541,-0.007634,0.022901,-0.007634,2.795727,7.751953,-6.800903,0.308643,0.556274,-0.630444,0.13877,0.043066,0.882861,hungry
1616136770.3279326,1,19.0,39.0,61.0,58.0,37.0,0.430176,0.841187,-0.327209,-0.016235,-0.007634,0.022901,0.0,2.739502,7.754346,-6.749463,0.247632,0.557471,-0.581396,0.07417,0.04187,0.837402,hungry
1616136770.3382063,1,21.0,36.0,58.0,58.0,38.0,0.43042,0.841125,-0.327087,-0.016052,-0.015267,0.015267,0.0,2.678491,7.754346,-6.680078,0.183032,0.555078,-0.515601,0.004785,0.033496,0.777588,hungry
1616136770.3479702,1,21.0,36.0,59.0,57.0,41.0,0.430725,0.841003,-0.326965,-0.015991,-0.022901,0.007634,0.0,2.623462,7.708887,-6.601123,0.12561,0.50603,-0.442627,-0.035889,0.034692,0.681885,hungry
1616136770.358089,1,20.0,33.0,60.0,57.0,39.0,0.430969,0.840881,-0.326904,-0.015991,-0.022901,0.0,0.0,2.581592,7.64668,-6.52456,0.08374,0.440234,-0.369653,-0.055029,0.033496,0.576611,hungry
1616136770.3678515,1,20.0,32.0,58.0,57.0,36.0,0.431213,0.840759,-0.326843,-0.016052,-0.022901,0.0,-0.007634,2.542114,7.576098,-6.457568,0.043066,0.367261,-0.307446,-0.066992,0.043066,0.47373,hungry
1616136770.3780298,1,21.0,33.0,59.0,58.0,37.0,0.431335,0.840698,-0.326843,-0.016174,-0.015267,-0.007634,-0.007634,2.536133,7.492358,-6.43125,0.038281,0.281128,-0.283521,-0.0323,0.0646,0.393579,hungry
1616136770.387987,1,19.0,28.0,60.0,57.0,37.0,0.431335,0.840698,-0.326843,-0.016174,-0.007634,-0.007634,0.0,2.558862,7.451684,-6.420484,0.061011,0.240454,-0.272754,0.002393,0.059814,0.362476,hungry
1616136770.3978102,1,17.0,32.0,58.0,57.0,37.0,0.431213,0.840759,-0.326904,-0.016113,0.0,0.0,0.0,2.573218,7.445703,-6.444409,0.075366,0.235669,-0.294287,0.022729,0.069385,0.376831,hungry
1616136770.4079547,1,17.0,33.0,58.0,58.0,36.0,0.431091,0.84082,-0.326904,-0.016052,0.007634,0.0,0.0,2.594751,7.463647,-6.491065,0.096899,0.256006,-0.33855,0.043066,0.080151,0.424683,hungry
1616136770.4178183,1,21.0,37.0,58.0,57.0,37.0,0.430969,0.840881,-0.326965,-0.015991,0.007634,-0.007634,0.0,2.646191,7.519873,-6.538916,0.147144,0.313428,-0.384009,0.065796,0.061011,0.508423,hungry
1616136770.4279172,1,22.0,36.0,61.0,57.0,39.0,0.430908,0.840942,-0.326904,-0.01593,0.0,0.0,-0.007634,2.688061,7.595239,-6.57002,0.189014,0.38999,-0.413916,0.066992,0.026318,0.594556,hungry
1616136770.4378643,1,19.0,33.0,58.0,57.0,39.0,0.430969,0.840942,-0.326782,-0.01593,-0.007634,0.0,-0.015267,2.70481,7.668213,-6.602319,0.206958,0.461768,-0.447412,0.052637,0.010767,0.672314,hungry
1616136770.4473147,1,17.0,35.0,60.0,60.0,39.0,0.431152,0.840881,-0.326599,-0.016113,-0.015267,-0.007634,-0.015267,2.716773,7.734009,-6.616675,0.221313,0.523975,-0.465356,0.037085,-0.008374,0.733325,hungry
1616136770.4580672,1,20.0,33.0,58.0,58.0,39.0,0.431458,0.840759,-0.326538,-0.016357,-0.030534,-0.007634,-0.015267,2.747876,7.768701,-6.615479,0.256006,0.553882,-0.468945,0.049048,-0.038281,0.766821,hungry
1616136770.4680212,1,20.0,35.0,60.0,57.0,35.0,0.431763,0.840637,-0.326477,-0.016541,-0.030534,-0.007634,-0.007634,2.782568,7.745972,-6.622656,0.291895,0.525171,-0.482104,0.096899,-0.035889,0.762036,hungry
1616136770.477894,1,22.0,39.0,58.0,57.0,37.0,0.431946,0.840515,-0.326477,-0.016479,-0.015267,0.0,-0.007634,2.808887,7.692139,-6.613086,0.31582,0.470142,-0.476123,0.143555,-0.031104,0.723755,hungry
1616136770.4872909,1,22.0,33.0,60.0,47.0,36.0,0.432068,0.840515,-0.326477,-0.016235,-0.007634,0.007634,0.0,2.829224,7.66582,-6.592749,0.331372,0.443823,-0.455786,0.163892,-0.043066,0.69624,hungry
1616136770.4978812,1,21.0,37.0,62.0,27.0,49.0,0.432129,0.840515,-0.326416,-0.015869,0.0,0.015267,0.0,2.814868,7.669409,-6.566431,0.311035,0.448608,-0.430664,0.137573,-0.05144,0.679492,hungry
1616136770.5071754,1,20.0,33.0,58.0,57.0,37.0,0.432129,0.840515,-0.326355,-0.015503,0.0,0.015267,0.0,2.777783,7.671802,-6.538916,0.267969,0.453394,-0.403149,0.092114,-0.049048,0.65437,hungry
1616136770.517293,1,21.0,35.0,61.0,57.0,37.0,0.43219,0.840515,-0.326294,-0.015198,0.0,0.007634,0.0,2.743091,7.686157,-6.494653,0.228491,0.468945,-0.360083,0.038281,-0.063403,0.629248,hungry
1616136770.5273063,1,21.0,33.0,58.0,57.0,39.0,0.432312,0.840454,-0.326355,-0.015076,-0.007634,0.007634,0.0,2.707202,7.700513,-6.449194,0.19021,0.482104,-0.31582,-0.010767,-0.078955,0.600537,hungry
1616136770.5373397,1,19.0,36.0,58.0,57.0,36.0,0.432434,0.840393,-0.326355,-0.015076,-0.007634,-0.007634,0.0,2.680884,7.694531,-6.421679,0.162695,0.474927,-0.290698,-0.035889,-0.078955,0.573022,hungry
1616136770.5478458,1,21.0,33.0,58.0,57.0,37.0,0.432556,0.840271,-0.326355,-0.015137,-0.015267,-0.007634,0.0,2.667725,7.689746,-6.395361,0.149536,0.468945,-0.267969,-0.050244,-0.084937,0.550293,hungry
1616136772.485038,1,17.0,26.0,50.0,55.0,31.0,0.565369,0.759399,-0.278992,0.160522,-0.015267,0.0,-0.007634,5.726636,7.767505,-3.186914,0.245239,0.229687,-0.156714,0.065796,0.04187,0.361279,hungry
1616136772.4950197,1,19.0,29.0,52.0,52.0,27.0,0.56543,0.759338,-0.278992,0.160461,-0.007634,-0.007634,-0.007634,5.731421,7.756738,-3.190503,0.251221,0.217725,-0.161499,0.078955,0.046655,0.35769,hungry
1616136772.5052316,1,17.0,26.0,52.0,52.0,29.0,0.56543,0.759338,-0.278992,0.160461,-0.007634,-0.007634,-0.007634,5.749365,7.754346,-3.202466,0.269165,0.215332,-0.173462,0.094507,0.055029,0.369653,hungry
