"Alphabet","timestamp","user_id","flex_1","flex_2","flex_3","flex_4","flex_5","Qw","Qx","Qy","Qz","GYRx","GYRy","GYRz","ACCx","ACCy","ACCz","ACCx_body","ACCy_body","ACCz_body","ACCx_world","ACCy_world","ACCz_world"
"I","1617445790.2623477","7","59","44","44","42","-34","0.690186","-0.239502","-0.682312","-0.026917","0.038168","-0.007634","-0.030534","8.714966","-2.546899","-0.553882","-0.641211","0.332568","-0.104077","0.173462","0.069385","-0.704614"
"I","1617445790.252513","7","58","41","45","42","-31","0.690125","-0.240295","-0.682129","-0.026978","0.038168","-0.007634","-0.038168","8.71377","-2.616284","-0.631641","-0.640015","0.272754","-0.179443","0.22251","-0.010767","-0.681885"
"I","1617445790.2425191","7","57","43","45","46","-33","0.690002","-0.241211","-0.681946","-0.0271","0.045802","-0.007634","-0.038168","8.729321","-2.665332","-0.702222","-0.620874","0.234473","-0.246436","0.271558","-0.0646","-0.649585"
"I","1617445790.2325814","7","58","42","45","48","-36","0.68988","-0.242126","-0.681641","-0.027161","0.038168","-0.007634","-0.045802","8.759229","-2.709595","-0.75127","-0.586182","0.200977","-0.294287","0.305054","-0.102881","-0.604126"
"I","1617445790.222449","7","59","42","43","44","-30","0.68988","-0.243042","-0.681396","-0.027161","0.030534","-0.007634","-0.045802","8.789136","-2.735913","-0.77041","-0.552686","0.186621","-0.312231","0.319409","-0.113647","-0.567041"
"I","1617445790.2124605","7","59","41","45","43","-33","0.689941","-0.243774","-0.68103","-0.027161","0.022901","-0.015267","-0.038168","8.811865","-2.741894","-0.775195","-0.526367","0.191406","-0.319409","0.328979","-0.105273","-0.543115"
"I","1617445790.2031703","7","59","43","43","45","-36","0.690186","-0.244263","-0.680603","-0.027039","0.007634","-0.030534","-0.030534","8.810669","-2.694043","-0.73811","-0.525171","0.248828","-0.288306","0.320605","-0.043066","-0.56106"
"I","1617445790.1923728","7","59","45","42","44","-32","0.690613","-0.244629","-0.680054","-0.026917","-0.007634","-0.053435","-0.022901","8.744873","-2.64021","-0.691455","-0.588574","0.312231","-0.253613","0.30625","0.004785","-0.642407"
"I","1617445790.1825588","7","59","43","44","7","5","0.691284","-0.244751","-0.679321","-0.026855","-0.007634","-0.061069","-0.015267","8.647974","-2.615088","-0.642407","-0.684277","0.343335","-0.22251","0.281128","0.015552","-0.745288"
"I","1617445790.1724646","7","67","43","46","54","-16","0.692078","-0.244812","-0.678528","-0.026917","-0.007634","-0.061069","-0.007634","8.6073","-2.599536","-0.582593","-0.724951","0.362476","-0.184229","0.247632","0.034692","-0.791943"
"I","1617445790.1625836","7","59","41","45","48","-34","0.692871","-0.244751","-0.677734","-0.026978","-0.015267","-0.061069","-0.007634","8.619263","-2.578003","-0.520386","-0.712988","0.386401","-0.143555","0.217725","0.075366","-0.789551"
"I","1617445790.1525102","7","59","44","48","46","-33","0.693542","-0.244629","-0.677063","-0.026978","-0.015267","-0.053435","-0.007634","8.637207","-2.572021","-0.465356","-0.695044","0.394775","-0.10647","0.186621","0.101685","-0.776392"
"I","1617445790.142475","7","61","41","42","45","-33","0.694214","-0.244507","-0.676392","-0.026917","-0.022901","-0.053435","-0.007634","8.646777","-2.604321","-0.455786","-0.685474","0.364868","-0.11604","0.184229","0.075366","-0.758447"
"I","1617445790.1325266","7","62","44","45","46","-37","0.694824","-0.244385","-0.675842","-0.026794","-0.022901","-0.038168","-0.007634","8.716162","-2.656958","-0.449805","-0.616089","0.31582","-0.12561","0.179443","0.049048","-0.678296"
"I","1617445790.1225295","7","57","43","44","43","-34","0.695312","-0.244263","-0.675415","-0.026611","-0.030534","-0.030534","-0.015267","8.81665","-2.720361","-0.425879","-0.514404","0.256006","-0.114844","0.155518","0.031104","-0.563452"
"I","1617445790.1124768","7","57","43","44","46","-35","0.69574","-0.244141","-0.674988","-0.026245","-0.030534","-0.022901","-0.015267","8.902783","-2.795727","-0.399561","-0.427075","0.185425","-0.100488","0.123218","0","-0.459375"
"I","1617445790.1025438","7","57","41","45","46","-35","0.696106","-0.24408","-0.674683","-0.02594","-0.022901","-0.030534","-0.015267","8.969775","-2.887842","-0.38042","-0.358887","0.098096","-0.090918","0.087329","-0.052637","-0.368457"
"I","1617445790.0924256","7","58","43","45","47","-31","0.696594","-0.243958","-0.674255","-0.025635","-0.030534","-0.030534","-0.015267","9.012842","-3.013452","-0.368457","-0.314624","-0.020337","-0.090918","0.047852","-0.143555","-0.290698"
"I","1617445790.0825322","7","61","44","42","46","-32","0.69696","-0.243774","-0.673889","-0.02533","-0.030534","-0.022901","-0.015267","9.066675","-3.066089","-0.312231","-0.259595","-0.070581","-0.045459","-0.005981","-0.154321","-0.223706"
"I","1617445790.0725002","7","59","41","46","47","-33","0.697449","-0.243408","-0.673584","-0.025024","-0.045802","-0.030534","-0.007634","9.090601","-3.082837","-0.240454","-0.235669","-0.084937","0.013159","-0.063403","-0.13877","-0.198584"
"I","1617445790.062641","7","56","43","43","45","-34","0.697937","-0.24292","-0.673279","-0.024658","-0.053435","-0.030534","0","9.065478","-3.090015","-0.165088","-0.261987","-0.092114","0.075366","-0.126807","-0.129199","-0.22251"
"I","1617445790.0523894","7","56","39","44","44","-37","0.698425","-0.242249","-0.672974","-0.024353","-0.061069","-0.030534","0.007634","9.03916","-3.093604","-0.099292","-0.288306","-0.098096","0.126807","-0.179443","-0.123218","-0.246436"
"I","1617445790.0425332","7","57","42","46","46","-36","0.698914","-0.241394","-0.672791","-0.023987","-0.061069","-0.022901","0.007634","9.035571","-3.075659","-0.046655","-0.293091","-0.084937","0.16748","-0.212939","-0.098096","-0.256006"
"I","1617445790.032487","7","59","43","44","46","-33","0.69928","-0.24054","-0.672791","-0.02356","-0.061069","-0.007634","0.007634","9.035571","-3.044556","0.001196","-0.29668","-0.057422","0.205762","-0.239258","-0.061011","-0.269165"
"I","1617445790.022534","7","56","44","42","44","-11","0.699463","-0.239746","-0.672852","-0.023132","-0.053435","-0.007634","0.015267","9.009253","-3.029004","0.04187","-0.322998","-0.046655","0.24165","-0.270361","-0.045459","-0.297876"
"I","1617445790.0126054","7","58","43","46","44","-35","0.699585","-0.239014","-0.672974","-0.022827","-0.045802","0","0.015267","8.968579","-3.02063","0.061011","-0.366064","-0.044263","0.257202","-0.288306","-0.050244","-0.339746"
"I","1617445790.0026755","7","58","42","43","45","-33","0.699585","-0.238403","-0.673218","-0.022705","-0.030534","0.007634","0.015267","8.954224","-3.001489","0.070581","-0.382812","-0.031104","0.266772","-0.294287","-0.040674","-0.360083"
"I","1617445789.9923596","7","59","42","44","42","-33","0.699463","-0.237854","-0.673523","-0.022644","-0.022901","0.015267","0.015267","8.950635","-2.966797","0.076563","-0.387598","-0.004785","0.276343","-0.294287","-0.015552","-0.373242"
"I","1617445789.9825132","7","57","42","47","44","-33","0.69928","-0.237366","-0.67395","-0.022583","-0.022901","0.015267","0.015267","8.953028","-2.908179","0.084937","-0.388794","0.046655","0.290698","-0.289502","0.033496","-0.38999"
"I","1617445789.9724324","7","59","44","44","47","-33","0.698975","-0.236938","-0.674377","-0.022522","-0.022901","0.015267","0.007634","8.931494","-2.835205","0.082544","-0.411523","0.112451","0.29668","-0.272754","0.087329","-0.43186"
"I","1617445789.9627073","7","60","41","44","48","-33","0.69873","-0.236633","-0.674744","-0.022461","-0.015267","0.015267","0.007634","8.903979","-2.77898","0.080151","-0.440234","0.163892","0.300269","-0.260791","0.126807","-0.474927"
"I","1617445789.9524384","7","59","41","42","46","-35","0.698425","-0.236511","-0.67511","-0.022339","-0.007634","0.022901","0","8.902783","-2.729932","0.068188","-0.441431","0.211743","0.29668","-0.240454","0.16748","-0.490479"
"I","1617445789.942504","7","58","43","45","42","-35","0.69812","-0.236511","-0.675476","-0.022217","0","0.015267","-0.007634","8.871679","-2.694043","0.05144","-0.47373","0.247632","0.289502","-0.223706","0.186621","-0.532349"
"I","1617445789.9324872","7","59","41","44","44","-33","0.697815","-0.236633","-0.67572","-0.022095","0.007634","0.007634","-0.007634","8.78435","-2.689258","0.022729","-0.559863","0.253613","0.269165","-0.209351","0.159106","-0.616089"
"I","1617445789.922444","7","63","42","42","48","-35","0.697571","-0.236938","-0.675842","-0.022156","0.015267","0.007634","-0.015267","8.717359","-2.677295","-0.001196","-0.625659","0.267969","0.251221","-0.192603","0.147144","-0.683081"
"I","1617445789.9126532","7","56","41","45","43","-36","0.697266","-0.237366","-0.676025","-0.022217","0.015267","0.007634","-0.015267","8.663526","-2.655762","-0.023926","-0.678296","0.293091","0.236865","-0.174658","0.14834","-0.740503"
"I","1617445789.9025674","7","59","45","46","50","-32","0.697021","-0.237732","-0.676147","-0.022217","0.015267","0.007634","-0.015267","8.638403","-2.650977","-0.055029","-0.702222","0.301465","0.212939","-0.150732","0.139966","-0.765625"
"I","1617445789.892614","7","59","43","45","44","-33","0.696655","-0.23822","-0.676331","-0.022156","0.015267","0.007634","-0.022901","8.645581","-2.660547","-0.099292","-0.692651","0.297876","0.178247","-0.118433","0.12561","-0.754858"
"I","1617445789.8825707","7","61","41","44","46","-32","0.69635","-0.238708","-0.676514","-0.022095","0.007634","0.015267","-0.022901","8.663526","-2.686865","-0.16748","-0.672314","0.277539","0.118433","-0.068188","0.090918","-0.727344"
"I","1617445789.8726892","7","59","43","42","46","-34","0.696045","-0.239136","-0.676636","-0.021851","0.007634","0.015267","-0.030534","8.71377","-2.719165","-0.24165","-0.618481","0.252417","0.052637","-0.010767","0.061011","-0.666333"
"I","1617445789.8626726","7","58","41","45","45","-35","0.695801","-0.239624","-0.676758","-0.021484","0.007634","0.007634","-0.030534","8.743677","-2.780176","-0.327783","-0.586182","0.202173","-0.025122","0.045459","-0.002393","-0.618481"
"I","1617445789.852684","7","57","44","46","46","-33","0.695557","-0.240173","-0.676819","-0.021179","0.015267","0.007634","-0.038168","8.766406","-2.890234","-0.42229","-0.559863","0.102881","-0.112451","0.094507","-0.114844","-0.559863"
"I","1617445789.8427615","7","57","43","44","43","-34","0.695312","-0.240845","-0.676819","-0.020935","0.022901","0.007634","-0.038168","8.808276","-3.019433","-0.504834","-0.513208","-0.014355","-0.189014","0.128003","-0.233276","-0.477319"
"I","1617445789.83253","7","60","43","46","47","-29","0.695129","-0.241455","-0.676758","-0.020874","0.030534","0.007634","-0.030534","8.844165","-3.148633","-0.5802","-0.474927","-0.135181","-0.259595","0.153125","-0.354102","-0.400757"
"I","1617445789.8226883","7","59","43","44","46","-33","0.695007","-0.242004","-0.676758","-0.020874","0.022901","0.007634","-0.022901","8.892016","-3.233569","-0.62207","-0.425879","-0.212939","-0.29668","0.163892","-0.42229","-0.328979"
"I","1617445789.8127124","7","56","41","44","47","-31","0.694885","-0.24231","-0.676758","-0.021057","0.007634","0.007634","-0.015267","8.926709","-3.258691","-0.629248","-0.38999","-0.236865","-0.301465","0.162695","-0.435449","-0.287109"
"I","1617445789.8026197","7","59","43","43","46","-31","0.694885","-0.24231","-0.676758","-0.021118","-0.007634","0.007634","-0.007634","8.950635","-3.207251","-0.60293","-0.366064","-0.186621","-0.275146","0.15791","-0.373242","-0.281128"
"I","1617445789.7932425","7","57","43","45","47","-33","0.694946","-0.242004","-0.676758","-0.021179","-0.022901","0.007634","0.007634","8.991308","-3.121118","-0.549097","-0.326587","-0.105273","-0.223706","0.142358","-0.271558","-0.270361"
"I","1617445789.7826886","7","59","43","45","44","-33","0.695068","-0.241516","-0.676819","-0.021118","-0.030534","0","0.007634","9.014038","-3.042163","-0.480908","-0.30625","-0.031104","-0.15791","0.110059","-0.175854","-0.276343"
"I","1617445789.7724996","7","60","43","45","44","-35","0.69519","-0.241028","-0.67688","-0.021057","-0.030534","-0.007634","0.015267","9.005664","-2.973975","-0.401953","-0.31582","0.029907","-0.082544","0.061011","-0.096899","-0.30625"
"I","1617445789.762586","7","57","43","44","48","-32","0.695435","-0.24054","-0.676819","-0.020996","-0.015267","-0.022901","0.015267","8.943457","-2.935693","-0.328979","-0.38042","0.063403","-0.015552","0.004785","-0.062207","-0.38042"
"I","1617445789.752688","7","57","47","43","45","-33","0.695679","-0.240234","-0.676636","-0.021118","-0.007634","-0.022901","0.007634","8.864502","-2.959619","-0.269165","-0.460571","0.035889","0.035889","-0.058618","-0.090918","-0.449805"
"I","1617445789.743322","7","60","42","46","46","-32","0.695923","-0.240112","-0.676453","-0.021362","0.007634","-0.022901","0.007634","8.820239","-2.996704","-0.212939","-0.50603","-0.003589","0.084937","-0.122021","-0.120825","-0.482104"
"I","1617445789.7325256","7","59","43","43","48","-32","0.696106","-0.240051","-0.67627","-0.021729","0.007634","-0.022901","0.007634","8.78435","-2.991919","-0.187817","-0.544312","-0.003589","0.105273","-0.144751","-0.124414","-0.519189"
"I","1617445789.723457","7","58","44","46","44","-32","0.696228","-0.23999","-0.676147","-0.022034","0","-0.015267","0.007634","8.791529","-2.984741","-0.168677","-0.53833","-0.001196","0.120825","-0.15791","-0.114844","-0.515601"
"I","1617445789.7126136","7","61","42","43","42","-35","0.696289","-0.239868","-0.676147","-0.022278","-0.007634","-0.007634","0.007634","8.821436","-2.963208","-0.160303","-0.510815","0.014355","0.126807","-0.155518","-0.090918","-0.494067"
"I","1617445789.7026455","7","57","44","46","48","-31","0.696289","-0.239624","-0.67627","-0.022461","-0.015267","0","0.007634","8.872876","-2.90459","-0.14834","-0.461768","0.066992","0.139966","-0.144751","-0.023926","-0.46416"
"I","1617445789.6933107","7","60","43","44","46","-35","0.696228","-0.239319","-0.676392","-0.0224","-0.022901","0","0","8.899195","-2.83042","-0.119629","-0.435449","0.137573","0.169873","-0.144751","0.055029","-0.460571"
"I","1617445789.6833792","7","59","43","44","46","-35","0.696167","-0.239014","-0.676575","-0.022278","-0.022901","0","0.007634","8.870483","-2.787354","-0.101685","-0.465356","0.178247","0.189014","-0.150732","0.089722","-0.502441"
"I","1617445789.6724648","7","64","41","45","48","-24","0.696167","-0.23877","-0.676636","-0.022156","-0.015267","0","0.007634","8.853735","-2.769409","-0.092114","-0.482104","0.193799","0.198584","-0.155518","0.101685","-0.522778"
"I","1617445789.6633985","7","59","43","45","46","-33","0.696167","-0.238464","-0.676758","-0.022156","-0.015267","-0.007634","0.007634","8.84895","-2.733521","-0.071777","-0.488086","0.226099","0.218921","-0.163892","0.136377","-0.539526"
"I","1617445789.65332","7","59","43","46","43","-38","0.696167","-0.238281","-0.676819","-0.022095","-0.015267","-0.015267","0.007634","8.79751","-2.695239","-0.046655","-0.540723","0.261987","0.244043","-0.179443","0.161499","-0.600537"
"I","1617445789.643442","7","61","42","37","43","-32","0.696228","-0.238159","-0.676819","-0.022095","-0.007634","-0.007634","0.007634","8.744873","-2.701221","-0.039478","-0.593359","0.25481","0.250024","-0.191406","0.142358","-0.649585"
"I","1617445789.632629","7","61","41","45","47","-31","0.696228","-0.238098","-0.676819","-0.022217","0","-0.007634","0","8.740088","-2.727539","-0.023926","-0.599341","0.226099","0.265576","-0.216528","0.120825","-0.647192"
"I","1617445789.622676","7","60","42","46","51","-33","0.696167","-0.238098","-0.67688","-0.022339","0","-0.007634","0","8.73291","-2.734717","-0.025122","-0.606519","0.217725","0.265576","-0.220117","0.111255","-0.650781"
"I","1617445789.6126735","7","57","43","45","44","-32","0.696045","-0.23822","-0.677002","-0.0224","0","0","0","8.734106","-2.734717","-0.020337","-0.605322","0.217725","0.27395","-0.227295","0.114844","-0.650781"
"I","1617445789.603501","7","59","43","48","48","-35","0.695862","-0.238281","-0.677124","-0.022461","0","0.007634","-0.007634","8.75564","-2.737109","-0.039478","-0.583789","0.214136","0.259595","-0.212939","0.112451","-0.628052"
"I","1617445789.5933769","7","59","44","45","47","-33","0.695618","-0.238403","-0.677307","-0.022461","0.007634","0.007634","-0.007634","8.77478","-2.74668","-0.087329","-0.564648","0.204565","0.217725","-0.175854","0.094507","-0.606519"
"I","1617445789.5834515","7","61","41","43","47","-33","0.695312","-0.238586","-0.677551","-0.0224","0.007634","0.015267","-0.007634","8.80708","-2.762231","-0.14834","-0.531152","0.191406","0.165088","-0.128003","0.072974","-0.568237"
"I","1617445789.5734518","7","59","42","46","44","-35","0.695007","-0.23877","-0.677856","-0.0224","0","0.022901","-0.007634","8.864502","-2.764624","-0.230884","-0.47373","0.19021","0.092114","-0.056226","0.062207","-0.510815"
"I","1617445789.563407","7","61","42","44","44","-33","0.694641","-0.239014","-0.678162","-0.022278","0","0.015267","-0.015267","8.913549","-2.76582","-0.320605","-0.423486","0.191406","0.011963","0.022729","0.049048","-0.460571"
"I","1617445789.5533612","7","65","45","45","70","-9","0.694336","-0.239258","-0.678406","-0.022156","0.007634","0.007634","-0.015267","8.915942","-2.783765","-0.42229","-0.419897","0.177051","-0.080151","0.104077","0.003589","-0.449805"
"I","1617445789.5433426","7","61","44","45","46","-32","0.694092","-0.239502","-0.678528","-0.022034","0.015267","0.007634","-0.015267","8.907568","-2.83042","-0.527563","-0.425879","0.133984","-0.179443","0.18064","-0.071777","-0.439038"
"I","1617445789.533605","7","58","44","44","48","-38","0.693909","-0.239807","-0.678589","-0.022095","0.015267","0.007634","-0.015267","8.917139","-2.874683","-0.626855","-0.415112","0.092114","-0.27395","0.25481","-0.139966","-0.41272"
"I","1617445789.5233457","7","60","45","47","46","-33","0.693726","-0.240173","-0.67865","-0.022156","0.015267","0.007634","-0.007634","8.927905","-2.929712","-0.691455","-0.403149","0.040674","-0.332568","0.291895","-0.203369","-0.384009"
"I","1617445789.513479","7","57","41","44","44","-34","0.693604","-0.240417","-0.678711","-0.022278","0.015267","0.015267","-0.007634","8.945849","-2.959619","-0.721362","-0.385205","0.011963","-0.358887","0.307446","-0.233276","-0.356494"
"I","1617445789.503416","7","59","42","42","44","-35","0.693481","-0.24054","-0.678772","-0.022339","0","0.015267","-0.007634","8.975757","-2.928516","-0.704614","-0.355298","0.043066","-0.339746","0.303857","-0.19021","-0.33855"
"I","1617445789.4934986","7","60","43","46","46","-33","0.693481","-0.24054","-0.678833","-0.022339","-0.007634","0","-0.007634","8.970972","-2.871094","-0.65437","-0.360083","0.100488","-0.288306","0.276343","-0.122021","-0.362476"
"I","1617445789.483348","7","58","42","42","44","-33","0.693542","-0.24054","-0.678711","-0.022278","0","-0.015267","0","8.865698","-2.836401","-0.606519","-0.46416","0.136377","-0.242847","0.238062","-0.104077","-0.47373"
"I","1617445789.4736366","7","58","42","43","43","-33","0.693848","-0.24054","-0.678406","-0.0224","0.007634","-0.022901","0","8.772388","-2.824439","-0.555078","-0.558667","0.14834","-0.19978","0.194995","-0.10647","-0.569434"
"I","1617445789.463395","7","61","41","44","45","-34","0.694092","-0.24054","-0.678101","-0.022644","0.007634","-0.022901","0","8.730517","-2.817261","-0.491675","-0.600537","0.153125","-0.143555","0.139966","-0.093311","-0.6125"
"I","1617445789.453422","7","57","43","45","45","-32","0.694336","-0.240601","-0.677856","-0.022888","0.007634","-0.022901","0","8.725733","-2.80769","-0.416309","-0.606519","0.161499","-0.075366","0.078955","-0.063403","-0.623267"
"I","1617445789.4435754","7","57","41","45","42","-34","0.69458","-0.240601","-0.677612","-0.023071","0","-0.015267","0","8.728125","-2.786157","-0.344531","-0.605322","0.181836","-0.00957","0.025122","-0.020337","-0.630444"
"I","1617445789.4333873","7","59","44","40","46","-35","0.694824","-0.240479","-0.677429","-0.023193","-0.015267","-0.015267","0","8.734106","-2.740698","-0.266772","-0.600537","0.226099","0.059814","-0.022729","0.044263","-0.642407"
"I","1617445789.4233327","7","61","43","45","47","-34","0.695007","-0.240295","-0.677307","-0.023193","-0.015267","-0.015267","0.007634","8.740088","-2.702417","-0.19978","-0.594556","0.261987","0.122021","-0.068188","0.101685","-0.649585"
"I","1617445789.4135556","7","60","44","44","46","-35","0.695129","-0.240051","-0.677185","-0.023254","-0.015267","-0.015267","0.015267","8.747266","-2.696435","-0.178247","-0.587378","0.26438","0.13877","-0.082544","0.111255","-0.643604"
"I","1617445789.403438","7","60","45","46","45","-33","0.695251","-0.239807","-0.677246","-0.023315","-0.015267","-0.007634","0.015267","8.773584","-2.697632","-0.200977","-0.564648","0.259595","0.114844","-0.059814","0.105273","-0.619678"
"I","1617445789.3934674","7","60","43","45","45","-35","0.695251","-0.239441","-0.677307","-0.023438","-0.022901","0","0.015267","8.832202","-2.696435","-0.252417","-0.507227","0.25481","0.062207","-0.007178","0.099292","-0.56106"
"I","1617445789.3836267","7","60","43","45","48","-33","0.69519","-0.239075","-0.67749","-0.023438","-0.022901","0","0.015267","8.882446","-2.696435","-0.324194","-0.458179","0.248828","-0.007178","0.057422","0.08374","-0.510815"
"I","1617445789.3735693","7","60","40","47","45","-31","0.69519","-0.23877","-0.677612","-0.023376","-0.022901","0","0.015267","8.913549","-2.71438","-0.427075","-0.428271","0.228491","-0.110059","0.14834","0.037085","-0.472534"
"I","1617445789.363391","7","60","47","45","46","-36","0.695129","-0.238464","-0.677795","-0.023315","-0.015267","0.015267","0.007634","8.967382","-2.764624","-0.522778","-0.375635","0.173462","-0.203369","0.220117","-0.028711","-0.403149"
"I","1617445789.353479","7","58","42","45","43","-31","0.694946","-0.238281","-0.67804","-0.023254","-0.007634","0.022901","0.007634","9.06189","-2.83042","-0.604126","-0.281128","0.105273","-0.279932","0.275146","-0.089722","-0.289502"
"I","1617445789.34346","7","58","41","44","44","-34","0.694702","-0.238159","-0.678345","-0.023254","0","0.030534","0.007634","9.169556","-2.891431","-0.651978","-0.174658","0.04187","-0.320605","0.299072","-0.129199","-0.16748"
"I","1617445789.3335326","7","59","42","42","43","-35","0.694397","-0.238098","-0.678711","-0.023254","0","0.022901","0","9.222193","-2.926123","-0.651978","-0.123218","0.004785","-0.312231","0.282324","-0.143555","-0.107666"
"I","1617445789.3235085","7","59","40","45","48","-37","0.694214","-0.238037","-0.678894","-0.023315","0","0.015267","0","9.200659","-2.945264","-0.607715","-0.144751","-0.015552","-0.263184","0.227295","-0.150732","-0.123218"
"I","1617445789.313727","7","57","43","46","48","-32","0.694153","-0.237915","-0.678955","-0.023438","-0.007634","0.007634","0","9.154004","-2.927319","-0.532349","-0.192603","-0.001196","-0.186621","0.15791","-0.124414","-0.175854"
"I","1617445789.30347","7","60","41","44","46","-33","0.694214","-0.23761","-0.679016","-0.023438","-0.022901","0","0","9.100171","-2.851953","-0.419897","-0.247632","0.068188","-0.075366","0.075366","-0.038281","-0.253613"
"I","1617445789.2936456","7","60","42","45","44","-32","0.694397","-0.237244","-0.678955","-0.023315","-0.030534","-0.007634","0","9.026001","-2.743091","-0.284717","-0.322998","0.174658","0.052637","-0.011963","0.080151","-0.361279"
"I","1617445789.2836747","7","58","43","42","44","-33","0.694702","-0.236755","-0.678833","-0.023071","-0.038168","-0.015267","0.007634","8.937475","-2.64021","-0.156714","-0.411523","0.276343","0.173462","-0.095703","0.187817","-0.479712"
"I","1617445789.2734823","7","60","45","45","46","-31","0.694946","-0.236328","-0.678711","-0.022888","-0.022901","-0.015267","0.007634","8.874072","-2.563648","-0.049048","-0.476123","0.350513","0.27395","-0.168677","0.271558","-0.567041"
"I","1617445789.26372","7","57","45","46","46","-31","0.695068","-0.236206","-0.67865","-0.022766","0","-0.015267","0.007634","8.821436","-2.552881","0.028711","-0.52876","0.361279","0.349316","-0.239258","0.293091","-0.623267"
"I","1617445789.25336","7","58","44","45","50","-69","0.695068","-0.236267","-0.678589","-0.022949","0.022901","-0.007634","0.007634","8.795117","-2.600732","0.069385","-0.555078","0.312231","0.388794","-0.295483","0.256006","-0.634033"
"I","1617445789.2434993","7","59","43","44","43","-33","0.694885","-0.236633","-0.678711","-0.023315","0.038168","0","0","8.779566","-2.650977","0.089722","-0.571826","0.260791","0.415112","-0.33855","0.215332","-0.636426"
"I","1617445789.2333937","7","58","42","44","46","-31","0.694458","-0.237244","-0.678894","-0.023804","0.053435","0.015267","-0.007634","8.802295","-2.703613","0.094507","-0.5479","0.208154","0.430664","-0.368457","0.181836","-0.599341"
"I","1617445789.2235403","7","61","43","46","44","-33","0.693909","-0.237976","-0.679199","-0.024231","0.045802","0.022901","-0.015267","8.836987","-2.769409","0.058618","-0.513208","0.143555","0.409131","-0.368457","0.126807","-0.546704"
"I","1617445789.2137198","7","58","42","44","46","-35","0.693298","-0.238586","-0.679626","-0.024536","0.030534","0.030534","-0.015267","8.895605","-2.784961","0.022729","-0.453394","0.129199","0.38999","-0.350513","0.124414","-0.484497"
"I","1617445789.203549","7","56","44","44","51","-35","0.692688","-0.239014","-0.680054","-0.024597","0","0.030534","-0.015267","8.942261","-2.715576","-0.008374","-0.405542","0.200977","0.374438","-0.305054","0.196191","-0.460571"
"I","1617445789.1936874","7","59","41","44","47","-35","0.6922","-0.239197","-0.680481","-0.024353","-0.015267","0.015267","-0.015267","8.921924","-2.623462","-0.044263","-0.423486","0.29668","0.352905","-0.252417","0.266772","-0.50603"
"I","1617445789.1835446","7","60","42","42","44","-32","0.691895","-0.239197","-0.680786","-0.023926","-0.022901","0","-0.007634","8.866895","-2.585181","-0.114844","-0.477319","0.33855","0.290698","-0.183032","0.26438","-0.567041"
"I","1617445789.1734045","7","60","41","43","45","-32","0.691772","-0.239258","-0.680908","-0.023621","-0.015267","0","-0.007634","8.803492","-2.622266","-0.214136","-0.539526","0.30625","0.194995","-0.110059","0.183032","-0.613696"
"I","1617445789.1636093","7","59","42","46","46","-33","0.69165","-0.239319","-0.68103","-0.023376","0","0","-0.015267","8.75205","-2.668921","-0.327783","-0.58977","0.263184","0.084937","-0.026318","0.089722","-0.643604"
"I","1617445789.153623","7","59","44","43","45","-33","0.691467","-0.239624","-0.681091","-0.023193","0.015267","0.015267","-0.022901","8.712573","-2.732324","-0.443823","-0.626855","0.204565","-0.025122","0.05144","-0.011963","-0.656763"
"I","1617445789.143555","7","57","41","44","44","-31","0.691101","-0.240234","-0.681274","-0.023071","0.038168","0.030534","-0.022901","8.743677","-2.847168","-0.558667","-0.592163","0.098096","-0.130396","0.113647","-0.135181","-0.587378"
"I","1617445789.1336603","7","58","44","45","46","-34","0.690491","-0.241028","-0.681641","-0.023132","0.053435","0.053435","-0.030534","8.828613","-2.977563","-0.672314","-0.504834","-0.023926","-0.226099","0.166284","-0.252417","-0.462964"
"I","1617445789.1236472","7","58","43","46","44","-33","0.689636","-0.241943","-0.68219","-0.023254","0.053435","0.053435","-0.030534","8.900391","-3.080444","-0.771606","-0.430664","-0.120825","-0.302661","0.208154","-0.344531","-0.358887"
"I","1617445789.11368","7","60","43","42","46","-35","0.688843","-0.242676","-0.682678","-0.023376","0.038168","0.053435","-0.030534","8.906372","-3.117529","-0.846973","-0.421094","-0.153125","-0.35769","0.247632","-0.391187","-0.336157"
"I","1617445789.1037395","7","57","44","44","45","-33","0.688232","-0.243164","-0.683105","-0.023438","0.007634","0.045802","-0.022901","8.909961","-3.078052","-0.879272","-0.416309","-0.111255","-0.373242","0.278735","-0.358887","-0.342139"
"I","1617445789.093613","7","57","42","45","45","-31","0.687866","-0.243347","-0.683472","-0.023132","-0.015267","0.022901","-0.022901","8.868091","-2.983545","-0.872095","-0.455786","-0.011963","-0.355298","0.295483","-0.277539","-0.410327"
"I","1617445789.0835614","7","58","42","43","43","-35","0.687805","-0.243286","-0.683533","-0.022766","-0.022901","0","-0.015267","8.730517","-2.933301","-0.882861","-0.592163","0.040674","-0.364868","0.314624","-0.275146","-0.556274"
"I","1617445789.0735044","7","59","41","44","47","-33","0.688049","-0.243103","-0.683411","-0.022522","-0.022901","-0.015267","-0.007634","8.625244","-2.932105","-0.88645","-0.697437","0.044263","-0.374438","0.318213","-0.307446","-0.656763"
"I","1617445789.064005","7","57","43","44","44","-35","0.688354","-0.24292","-0.683167","-0.022339","-0.007634","-0.015267","-0.007634","8.564234","-2.941675","-0.872095","-0.758447","0.035889","-0.367261","0.303857","-0.330176","-0.712988"
"I","1617445789.053542","7","59","41","45","45","-33","0.688599","-0.242859","-0.682922","-0.0224","0.007634","-0.015267","0","8.552271","-2.979956","-0.857739","-0.77041","-0.001196","-0.360083","0.282324","-0.363672","-0.714185"
"I","1617445789.043505","7","60","42","47","46","-33","0.688782","-0.24292","-0.682739","-0.022644","0.015267","-0.007634","0","8.570215","-3.02063","-0.826636","-0.753662","-0.043066","-0.333765","0.244043","-0.386401","-0.68667"
"I","1617445789.0336375","7","61","43","46","47","-33","0.688843","-0.242981","-0.682617","-0.023071","0.022901","-0.007634","0.007634","8.601318","-3.045752","-0.787158","-0.723755","-0.072974","-0.29668","0.19978","-0.38999","-0.650781"
"I","1617445789.0234902","7","57","43","44","48","-33","0.688904","-0.243103","-0.682495","-0.023621","0.022901","-0.007634","0.007634","8.636011","-3.060107","-0.729736","-0.691455","-0.093311","-0.24165","0.143555","-0.376831","-0.617285"
"I","1617445789.014368","7","59","43","44","39","-28","0.688965","-0.242981","-0.682434","-0.02417","0.007634","-0.022901","0.015267","8.661133","-3.019433","-0.659155","-0.668726","-0.061011","-0.173462","0.093311","-0.317017","-0.608911"
"I","1617445789.0037165","7","59","43","45","44","-35","0.689331","-0.242493","-0.682251","-0.02478","-0.022901","-0.038168","0.030534","8.665918","-2.885449","-0.576611","-0.668726","0.058618","-0.100488","0.068188","-0.183032","-0.649585"
"I","1617445788.993626","7","60","43","44","44","-32","0.68988","-0.24176","-0.681946","-0.025146","-0.038168","-0.053435","0.030534","8.645581","-2.740698","-0.492871","-0.693848","0.191406","-0.0323","0.05144","-0.046655","-0.716577"
"I","1617445788.9839966","7","59","43","44","50","-34","0.690552","-0.240906","-0.681519","-0.025391","-0.030534","-0.061069","0.038168","8.619263","-2.650977","-0.433057","-0.723755","0.270361","0.007178","0.040674","0.028711","-0.77041"
"I","1617445788.9737654","7","58","40","43","43","-34","0.691284","-0.240173","-0.68103","-0.025757","-0.007634","-0.061069","0.038168","8.656347","-2.648584","-0.403149","-0.691455","0.260791","0.016748","0.028711","0.034692","-0.736914"
"I","1617445788.9638774","7","61","41","43","46","-32","0.691895","-0.239746","-0.680542","-0.026428","0.015267","-0.053435","0.038168","8.741284","-2.725147","-0.384009","-0.611304","0.173462","0.019141","0","-0.016748","-0.635229"
"I","1617445788.953549","7","59","41","43","47","-33","0.692322","-0.239624","-0.680115","-0.027283","0.030534","-0.045802","0.030534","8.829809","-2.801709","-0.35769","-0.526367","0.086133","0.033496","-0.038281","-0.062207","-0.52876"
"I","1617445788.944389","7","61","44","45","45","-35","0.692627","-0.239624","-0.679749","-0.028198","0.030534","-0.038168","0.022901","8.888428","-2.828027","-0.320605","-0.471338","0.049048","0.061011","-0.072974","-0.068188","-0.466553"
"I","1617445788.9336395","7","59","41","44","42","-33","0.692871","-0.239685","-0.679443","-0.029053","0.022901","-0.038168","0.015267","8.92312","-2.817261","-0.266772","-0.440234","0.050244","0.10647","-0.112451","-0.040674","-0.439038"
"I","1617445788.9242654","7","58","42","43","45","-34","0.693115","-0.239685","-0.679199","-0.029663","0.015267","-0.022901","0.007634","8.957812","-2.77898","-0.203369","-0.407935","0.081348","0.162695","-0.150732","0.015552","-0.418701"
"I","1617445788.9142728","7","57","42","45","46","-33","0.693298","-0.239685","-0.679016","-0.03009","0.007634","-0.022901","0.007634","8.991308","-2.727539","-0.142358","-0.376831","0.128003","0.218921","-0.184229","0.087329","-0.405542"
"I","1617445788.9044604","7","59","44","44","44","-35","0.69342","-0.239563","-0.678894","-0.030396","0","-0.022901","0.007634","9.027197","-2.686865","-0.107666","-0.342139","0.163892","0.250024","-0.197388","0.141162","-0.382812"
"I","1617445788.8935027","7","59","43","44","43","-37","0.693481","-0.239502","-0.678772","-0.030579","-0.007634","-0.022901","0.007634","9.034375","-2.659351","-0.113647","-0.334961","0.189014","0.240454","-0.178247","0.161499","-0.382812"
"I","1617445788.884509","7","57","41","44","42","-33","0.693665","-0.23938","-0.67865","-0.030701","-0.007634","-0.030534","0.007634","9.015234","-2.655762","-0.141162","-0.355298","0.19021","0.208154","-0.149536","0.144751","-0.401953"
"I","1617445788.874292","7","59","44","45","46","-37","0.693848","-0.239258","-0.678528","-0.030823","-0.007634","-0.022901","0.007634","9.015234","-2.666528","-0.183032","-0.356494","0.177051","0.161499","-0.111255","0.11604","-0.397168"
"I","1617445788.8637538","7","56","37","44","46","-33","0.69397","-0.239136","-0.678406","-0.030945","-0.007634","-0.007634","0.007634","9.051123","-2.668921","-0.233276","-0.320605","0.172266","0.107666","-0.061011","0.101685","-0.360083"
"I","1617445788.8536296","7","61","41","44","43","-34","0.69397","-0.238953","-0.678467","-0.031067","-0.007634","0.007634","0.007634","9.114527","-2.667725","-0.27395","-0.258398","0.168677","0.066992","-0.019141","0.100488","-0.297876"
"I","1617445788.8443177","7","59","44","44","46","-35","0.693787","-0.238892","-0.678711","-0.031128","0","0.015267","0.015267","9.186304","-2.695239","-0.295483","-0.187817","0.13877","0.05144","-0.010767","0.088525","-0.221313"
"I","1617445788.8343575","7","59","42","43","46","-28","0.693542","-0.238831","-0.678955","-0.031311","0.007634","0.015267","0.015267","9.199463","-2.743091","-0.311035","-0.175854","0.086133","0.04187","-0.020337","0.04187","-0.193799"
"I","1617445788.824484","7","59","41","44","46","-35","0.693298","-0.238708","-0.67926","-0.031555","0","0.015267","0.015267","9.171948","-2.740698","-0.300269","-0.205762","0.082544","0.058618","-0.038281","0.037085","-0.22251"
"I","1617445788.814319","7","61","44","44","44","-35","0.693054","-0.238464","-0.679565","-0.031677","-0.015267","0.007634","0.015267","9.131274","-2.674902","-0.250024","-0.247632","0.142358","0.114844","-0.071777","0.099292","-0.281128"
"I","1617445788.8043425","7","59","44","43","45","-31","0.692993","-0.238037","-0.67981","-0.031616","-0.030534","-0.007634","0.015267","9.014038","-2.587573","-0.214136","-0.366064","0.223706","0.153125","-0.086133","0.151929","-0.419897"
"I","1617445788.7945404","7","60","41","44","45","-31","0.693115","-0.237488","-0.67981","-0.031555","-0.038168","-0.015267","0.015267","8.887232","-2.511011","-0.189014","-0.494067","0.294287","0.174658","-0.089722","0.186621","-0.563452"
"I","1617445788.7842848","7","59","44","42","45","-33","0.693359","-0.237","-0.67981","-0.031372","-0.030534","-0.015267","0.007634","8.81665","-2.460767","-0.19021","-0.567041","0.340942","0.16748","-0.071777","0.205762","-0.645996"
"I","1617445788.7742572","7","59","41","44","47","-33","0.693481","-0.236694","-0.679749","-0.031128","-0.015267","-0.007634","0","8.808276","-2.477515","-0.224902","-0.575415","0.324194","0.129199","-0.043066","0.174658","-0.647192"
"I","1617445788.3544264","7","57","43","57","44","-35","0.695923","-0.236267","-0.677246","-0.034302","0.007634","-0.045802","-0.007634","8.795117","-2.383008","0.020337","-0.600537","0.384009","0.303857","-0.187817","0.290698","-0.692651"
"I","1617445788.3447657","7","59","44","46","47","-33","0.696106","-0.236755","-0.67688","-0.034485","0.053435","-0.022901","-0.015267","8.935083","-2.694043","-0.025122","-0.459375","0.077759","0.253613","-0.242847","0.038281","-0.468945"
"I","1617445788.334627","7","58","45","43","47","-32","0.695984","-0.237671","-0.676697","-0.034973","0.061069","-0.007634","-0.022901","9.053515","-2.90459","-0.057422","-0.339746","-0.12561","0.223706","-0.281128","-0.118433","-0.295483"
"I","1617445788.324637","7","59","41","46","47","-33","0.695679","-0.238586","-0.676636","-0.035583","0.045802","-0.007634","-0.015267","9.133667","-3.012256","-0.070581","-0.258398","-0.230884","0.217725","-0.307446","-0.191406","-0.187817"
"I","1617445788.3147886","7","59","43","44","45","-31","0.695496","-0.239014","-0.676636","-0.036072","0.007634","-0.007634","-0.007634","9.20664","-3.017041","-0.055029","-0.185425","-0.236865","0.238062","-0.322998","-0.168677","-0.117236"
"I","1617445788.3046434","7","63","41","45","44","-33","0.695496","-0.23877","-0.676758","-0.036316","-0.045802","-0.007634","0.007634","9.272436","-2.874683","0.002393","-0.122021","-0.100488","0.295483","-0.319409","-0.008374","-0.096899"
"I","1617445788.2945883","7","58","42","44","46","-32","0.695679","-0.237854","-0.67688","-0.036011","-0.091603","-0.015267","0.015267","9.301147","-2.653369","0.071777","-0.095703","0.111255","0.360083","-0.299072","0.208154","-0.132788"
"I","1617445788.284608","7","58","39","44","43","-37","0.696106","-0.236572","-0.67688","-0.0354","-0.10687","-0.038168","0.022901","9.255689","-2.457178","0.111255","-0.143555","0.300269","0.387598","-0.258398","0.372046","-0.23208"
"I","1617445788.2747242","7","58","41","42","44","-31","0.696777","-0.235229","-0.676758","-0.034729","-0.091603","-0.045802","0.022901","9.139648","-2.345923","0.084937","-0.261987","0.405542","0.345728","-0.192603","0.417505","-0.374438"
"I","1617445788.2646055","7","59","43","46","43","-33","0.697327","-0.234131","-0.676575","-0.03418","-0.068702","-0.030534","0.022901","9.108545","-2.308838","0.037085","-0.294287","0.437842","0.282324","-0.12561","0.413916","-0.411523"
"I","1617445788.2545712","7","59","43","45","45","-31","0.697632","-0.233459","-0.676514","-0.033752","-0.022901","-0.015267","0.015267","9.11333","-2.347119","-0.039478","-0.290698","0.397168","0.198584","-0.063403","0.34812","-0.394775"
"I","1617445788.244635","7","59","42","44","45","-31","0.697693","-0.233337","-0.676514","-0.033691","0.007634","0","0","9.143237","-2.442822","-0.12561","-0.261987","0.300269","0.111255","-0.015552","0.236865","-0.337354"
"I","1617445788.2345462","7","59","43","46","44","-23","0.697449","-0.233582","-0.676636","-0.033813","0.030534","0.015267","-0.007634","9.17793","-2.526562","-0.186621","-0.226099","0.217725","0.056226","0.007178","0.153125","-0.278735"
"I","1617445788.2247553","7","60","45","45","46","-35","0.697083","-0.23407","-0.67688","-0.033997","0.030534","0.022901","-0.007634","9.1875","-2.572021","-0.236865","-0.216528","0.174658","0.015552","0.031104","0.101685","-0.256006"
"I","1617445788.2146618","7","59","42","44","46","-33","0.696655","-0.234436","-0.677124","-0.034241","0.015267","0.022901","-0.007634","9.186304","-2.551685","-0.251221","-0.216528","0.193799","0.011963","0.04187","0.117236","-0.261987"
"I","1617445788.2045462","7","58","43","44","45","-35","0.696411","-0.234497","-0.677429","-0.034241","-0.015267","0.015267","-0.007634","9.16836","-2.464355","-0.228491","-0.235669","0.281128","0.043066","0.043066","0.200977","-0.305054"
"I","1617445788.194696","7","59","43","44","47","-35","0.696289","-0.234436","-0.677612","-0.033875","-0.038168","0.007634","-0.007634","9.112134","-2.361475","-0.18064","-0.290698","0.387598","0.094507","0.029907","0.300269","-0.38999"
"I","1617445788.1855028","7","59","42","44","46","-33","0.696289","-0.234253","-0.677673","-0.033325","-0.038168","0","-0.015267","9.026001","-2.310034","-0.141162","-0.374438","0.443823","0.133984","0.007178","0.342139","-0.48689"
"I","1617445788.1747882","7","61","43","44","46","-31","0.69635","-0.234192","-0.677612","-0.032654","-0.030534","-0.007634","-0.022901","8.933887","-2.33396","-0.112451","-0.46416","0.428271","0.161499","-0.031104","0.313428","-0.569434"
"I","1617445788.1647706","7","56","43","43","43","-34","0.696472","-0.234375","-0.67749","-0.031982","-0.007634","-0.007634","-0.038168","8.829809","-2.4177","-0.114844","-0.564648","0.356494","0.156714","-0.061011","0.220117","-0.645996"
"I","1617445788.1547563","7","59","44","44","45","-33","0.696533","-0.234924","-0.677307","-0.031433","0.015267","-0.007634","-0.045802","8.750854","-2.563648","-0.133984","-0.640015","0.226099","0.137573","-0.096899","0.075366","-0.680689"
"I","1617445788.1447232","7","59","43","44","44","-35","0.69635","-0.235718","-0.677185","-0.031128","0.038168","0.007634","-0.045802","8.716162","-2.727539","-0.163892","-0.669922","0.075366","0.112451","-0.130396","-0.075366","-0.666333"
"I","1617445788.1353402","7","58","43","44","45","-33","0.696045","-0.236755","-0.677124","-0.031006","0.045802","0.015267","-0.045802","8.695826","-2.869897","-0.208154","-0.685474","-0.05144","0.076563","-0.144751","-0.206958","-0.643604"
"I","1617445788.1246445","7","59","43","43","45","-35","0.695679","-0.237671","-0.677246","-0.031067","0.030534","0.022901","-0.045802","8.714966","-2.950049","-0.238062","-0.66394","-0.120825","0.057422","-0.150732","-0.270361","-0.601733"
"I","1617445788.1154792","7","60","41","44","45","-32","0.69519","-0.238342","-0.67749","-0.031006","0.007634","0.030534","-0.038168","8.740088","-2.930908","-0.259595","-0.635229","-0.094507","0.049048","-0.130396","-0.242847","-0.581396"
"I","1617445788.1045475","7","58","41","45","44","-35","0.694824","-0.238586","-0.677795","-0.030762","-0.015267","0.030534","-0.022901","8.74248","-2.841187","-0.288306","-0.631641","0","0.031104","-0.078955","-0.165088","-0.604126"
"I","1617445788.094802","7","58","45","45","44","-31","0.694519","-0.238525","-0.678162","-0.030334","-0.038168","0.030534","-0.015267","8.73291","-2.721558","-0.311035","-0.640015","0.122021","0.016748","-0.020337","-0.065796","-0.647192"
"I","1617445788.0854883","7","61","43","45","42","-33","0.694275","-0.238159","-0.678528","-0.029724","-0.045802","0.022901","-0.015267","8.735303","-2.606714","-0.332568","-0.636426","0.238062","0.002393","0.034692","0.031104","-0.6771"
"I","1617445788.074846","7","61","43","44","45","-31","0.694092","-0.237915","-0.678833","-0.029053","-0.030534","0.015267","-0.015267","8.685059","-2.557666","-0.38999","-0.684277","0.291895","-0.047852","0.096899","0.046655","-0.736914"
"I","1617445788.06528","7","59","43","44","45","-34","0.69397","-0.237854","-0.678955","-0.028564","0","0.007634","-0.015267","8.608496","-2.599536","-0.489282","-0.759644","0.25481","-0.144751","0.168677","-0.043066","-0.794336"
"I","1617445788.0554335","7","60","43","40","51","-33","0.693787","-0.238281","-0.679077","-0.02832","0.030534","0.022901","-0.022901","8.622851","-2.735913","-0.593359","-0.742895","0.126807","-0.24165","0.212939","-0.187817","-0.73811"
"I","1617445788.0453572","7","59","37","46","46","-32","0.693359","-0.238953","-0.679199","-0.028381","0.053435","0.022901","-0.030534","8.669507","-2.884253","-0.697437","-0.692651","-0.014355","-0.336157","0.253613","-0.333765","-0.6448"
"I","1617445788.0353608","7","59","43","51","44","-35","0.692932","-0.239807","-0.679382","-0.028687","0.053435","0.030534","-0.030534","8.735303","-2.987134","-0.764429","-0.625659","-0.111255","-0.38999","0.27395","-0.421094","-0.549097"
"I","1617445788.0254369","7","59","43","46","44","-29","0.692383","-0.240662","-0.679626","-0.02887","0.038168","0.038168","-0.030534","8.822632","-3.009863","-0.791943","-0.535937","-0.128003","-0.403149","0.285913","-0.416309","-0.458179"
"I","1617445788.015298","7","60","43","45","45","-33","0.691956","-0.241333","-0.67981","-0.028992","0.030534","0.038168","-0.030534","8.903979","-3.019433","-0.807495","-0.452197","-0.131592","-0.407935","0.295483","-0.398364","-0.375635"
"I","1617445788.005383","7","61","42","44","48","-31","0.691528","-0.24176","-0.680054","-0.029053","0.015267","0.030534","-0.022901","8.994898","-3.009863","-0.797925","-0.360083","-0.119629","-0.387598","0.288306","-0.354102","-0.291895"
"I","1617445787.9953558","7","59","43","44","48","-31","0.691284","-0.241943","-0.680237","-0.028992","-0.007634","0.015267","-0.015267","9.046338","-2.957227","-0.769214","-0.307446","-0.0646","-0.351709","0.278735","-0.276343","-0.258398"
"I","1617445787.9854493","7","59","43","45","45","-33","0.691345","-0.24176","-0.680298","-0.02887","-0.030534","0","-0.007634","9.034375","-2.890234","-0.720166","-0.320605","0","-0.303857","0.257202","-0.205762","-0.293091"
"I","1617445787.97544","7","57","40","45","46","-33","0.69165","-0.241394","-0.680115","-0.028625","-0.038168","-0.022901","0","8.980542","-2.800513","-0.648389","-0.374438","0.089722","-0.239258","0.227295","-0.117236","-0.373242"
"I","1617445787.965424","7","59","41","44","45","-35","0.692139","-0.240845","-0.67981","-0.028442","-0.038168","-0.030534","0.007634","8.924316","-2.728735","-0.56106","-0.43186","0.159106","-0.166284","0.179443","-0.045459","-0.452197"
"I","1617445787.955454","7","60","43","46","12","-35","0.692627","-0.240356","-0.679504","-0.028259","-0.030534","-0.030534","0.007634","8.909961","-2.692847","-0.461768","-0.447412","0.192603","-0.078955","0.110059","0.011963","-0.479712"
"I","1617445787.9454558","7","59","43","43","46","-33","0.693115","-0.23999","-0.679138","-0.028198","-0.015267","-0.030534","0","8.871679","-2.709595","-0.38042","-0.48689","0.174658","-0.010767","0.035889","0.00957","-0.515601"
"I","1617445787.9354384","7","59","42","42","42","-32","0.69342","-0.239929","-0.678833","-0.028259","0","-0.022901","0","8.864502","-2.738306","-0.300269","-0.494067","0.145947","0.059814","-0.039478","0.008374","-0.516797"
"I","1617445787.925516","7","59","43","44","47","-31","0.693665","-0.239929","-0.678589","-0.028442","0.007634","-0.022901","0","8.875269","-2.774194","-0.240454","-0.483301","0.108862","0.112451","-0.101685","0","-0.497656"
"I","1617445787.9155068","7","59","42","46","44","-35","0.693787","-0.239929","-0.678406","-0.028625","0","-0.015267","0","8.893213","-2.755054","-0.184229","-0.465356","0.126807","0.163892","-0.141162","0.039478","-0.48689"
"I","1617445787.9053583","7","60","42","45","46","-35","0.693909","-0.239929","-0.678284","-0.028809","0","-0.022901","0","8.899195","-2.741894","-0.150732","-0.460571","0.137573","0.194995","-0.166284","0.062207","-0.48689"
"I","1617445787.8954904","7","57","44","43","44","-34","0.694031","-0.239929","-0.678162","-0.028931","0","-0.015267","0","8.886035","-2.744287","-0.156714","-0.474927","0.133984","0.185425","-0.159106","0.05144","-0.498853"
"I","1617445787.885447","7","59","42","44","47","-35","0.694031","-0.23999","-0.678162","-0.029053","0","-0.007634","0","8.909961","-2.775391","-0.147144","-0.451001","0.102881","0.194995","-0.178247","0.034692","-0.467749"
"I","1617445787.8754337","7","59","44","45","46","-32","0.694031","-0.23999","-0.678162","-0.029053","-0.007634","-0.007634","-0.007634","8.921924","-2.795727","-0.15791","-0.439038","0.082544","0.184229","-0.174658","0.015552","-0.449805"
"I","1617445787.8733437","7","58","43","44","43","-33","0.694031","-0.23999","-0.678162","-0.028931","-0.015267","-0.007634","-0.007634","8.906372","-2.816064","-0.189014","-0.45459","0.063403","0.153125","-0.154321","-0.015552","-0.458179"
"I","1617445787.8718853","7","59","41","48","47","-35","0.694031","-0.239929","-0.678162","-0.028809","-0.015267","-0.007634","-0.007634","8.896802","-2.831616","-0.221313","-0.462964","0.049048","0.120825","-0.130396","-0.043066","-0.460571"
"I","1617445787.8454242","7","58","42","45","46","-35","0.694031","-0.239746","-0.678223","-0.028687","-0.015267","0","-0.007634","8.899195","-2.843579","-0.239258","-0.460571","0.035889","0.102881","-0.117236","-0.061011","-0.453394"
"I","1617445787.8357117","7","58","44","44","45","-35","0.694031","-0.239563","-0.678345","-0.028564","-0.015267","0.007634","0","8.920728","-2.853149","-0.259595","-0.440234","0.025122","0.08374","-0.102881","-0.071777","-0.430664"
"I","1617445787.825424","7","59","43","45","47","-33","0.693909","-0.23938","-0.678528","-0.028442","-0.015267","0.007634","0","8.941065","-2.86272","-0.279932","-0.419897","0.014355","0.065796","-0.087329","-0.082544","-0.406738"
"I","1617445787.8155067","7","57","45","45","48","-31","0.693848","-0.239197","-0.67865","-0.02832","-0.015267","0.007634","0","8.941065","-2.855542","-0.308643","-0.419897","0.020337","0.039478","-0.061011","-0.086133","-0.407935"
"I","1617445787.8055909","7","58","41","45","44","-32","0.693726","-0.239075","-0.678772","-0.02832","-0.007634","0","0","8.929102","-2.84956","-0.321802","-0.43186","0.023926","0.028711","-0.050244","-0.090918","-0.419897"
"I","1617445787.795414","7","60","43","42","46","-32","0.693665","-0.239014","-0.678894","-0.02832","0","0.007634","0","8.918335","-2.841187","-0.318213","-0.443823","0.031104","0.034692","-0.053833","-0.086133","-0.434253"
"I","1617445787.785301","7","58","41","42","44","-34","0.693542","-0.239014","-0.679016","-0.028503","0.007634","0.007634","0","8.936279","-2.825635","-0.300269","-0.427075","0.043066","0.055029","-0.066992","-0.062207","-0.42229"
"I","1617445787.7755015","7","60","44","45","44","-32","0.69342","-0.239014","-0.679138","-0.028687","0","0","0","8.942261","-2.759839","-0.260791","-0.42229","0.10647","0.098096","-0.08374","0.00957","-0.437842"
"I","1617445787.7654974","7","57","42","43","47","-33","0.693359","-0.239014","-0.679199","-0.028809","0","-0.007634","0","8.888428","-2.694043","-0.22251","-0.476123","0.169873","0.137573","-0.101685","0.0646","-0.509619"
"I","1617445787.7557232","7","61","39","44","48","-35","0.693359","-0.239014","-0.679138","-0.028992","0.007634","-0.015267","0","8.819043","-2.637817","-0.192603","-0.545508","0.223706","0.16748","-0.114844","0.104077","-0.592163"
"I","1617445787.7455325","7","59","42","46","42","-31","0.693359","-0.239136","-0.679077","-0.029236","0.015267","-0.015267","0","8.791529","-2.618677","-0.181836","-0.573022","0.24165","0.177051","-0.118433","0.11604","-0.624463"
"I","1617445787.7354288","7","59","43","44","47","-36","0.693359","-0.239319","-0.679077","-0.029541","0.022901","-0.007634","0","8.796313","-2.627051","-0.194995","-0.57063","0.230884","0.165088","-0.111255","0.102881","-0.618481"
"I","1617445787.725747","7","60","44","44","45","-33","0.693237","-0.239624","-0.679077","-0.029907","0.022901","-0.007634","0","8.821436","-2.64978","-0.22251","-0.545508","0.206958","0.139966","-0.094507","0.078955","-0.586182"
"I","1617445787.7154253","7","57","43","44","45","-33","0.693115","-0.239929","-0.679077","-0.030273","0.022901","-0.007634","0","8.836987","-2.664136","-0.279932","-0.529956","0.191406","0.086133","-0.049048","0.050244","-0.564648"
"I","1617445787.70556","7","58","43","45","47","-35","0.693054","-0.240173","-0.679016","-0.030579","0.015267","-0.007634","0","8.853735","-2.641406","-0.340942","-0.513208","0.212939","0.026318","0.014355","0.05144","-0.552686"
"I","1617445787.695492","7","59","43","45","48","-33","0.692993","-0.240356","-0.679016","-0.030823","0.007634","-0.015267","0","8.862109","-2.603125","-0.399561","-0.504834","0.251221","-0.029907","0.081348","0.066992","-0.553882"
"I","1617445787.685688","7","59","44","45","44","-33","0.693115","-0.240417","-0.678894","-0.031006","0","-0.015267","0","8.860913","-2.552881","-0.453394","-0.507227","0.300269","-0.087329","0.151929","0.087329","-0.568237"
"I","1617445787.6756115","7","57","42","44","48","-33","0.693237","-0.240417","-0.678711","-0.031006","-0.007634","-0.022901","-0.007634","8.840576","-2.512207","-0.507227","-0.526367","0.340942","-0.144751","0.218921","0.096899","-0.596948"
"I","1617445787.6656015","7","60","43","44","43","-31","0.693542","-0.24054","-0.678406","-0.030945","0","-0.022901","-0.015267","8.832202","-2.511011","-0.544312","-0.534741","0.346924","-0.189014","0.260791","0.082544","-0.605322"
"I","1617445787.6556969","7","60","42","44","48","-32","0.693726","-0.240784","-0.678101","-0.030823","0.015267","-0.022901","-0.022901","8.838183","-2.557666","-0.567041","-0.526367","0.30625","-0.217725","0.272754","0.038281","-0.583789"
"I","1617445787.6455376","7","62","42","46","44","-33","0.69397","-0.241272","-0.677673","-0.030701","0.022901","-0.022901","-0.030534","8.853735","-2.641406","-0.577808","-0.508423","0.23208","-0.234473","0.261987","-0.027515","-0.545508"
"I","1617445787.635563","7","59","40","44","48","-34","0.694153","-0.242065","-0.677185","-0.030762","0.038168","-0.030534","-0.038168","8.857325","-2.747876","-0.57063","-0.501245","0.136377","-0.233276","0.224902","-0.110059","-0.510815"
"I","1617445787.6255574","7","59","42","44","47","-32","0.694397","-0.242798","-0.676697","-0.030884","0.030534","-0.030534","-0.038168","8.870483","-2.835205","-0.53833","-0.485693","0.058618","-0.206958","0.172266","-0.165088","-0.47373"
"I","1617445787.6154397","7","63","43","45","46","-32","0.694702","-0.243408","-0.676147","-0.031067","0.022901","-0.038168","-0.030534","8.880054","-2.87229","-0.465356","-0.47373","0.029907","-0.142358","0.102881","-0.162695","-0.455786"
"I","1617445787.6056907","7","60","43","42","47","-33","0.695129","-0.243835","-0.675598","-0.031189","0.007634","-0.045802","-0.022901","8.876465","-2.847168","-0.363672","-0.476123","0.061011","-0.052637","0.029907","-0.101685","-0.470142"
"I","1617445787.5956717","7","60","43","45","44","-33","0.695679","-0.244019","-0.674927","-0.03125","-0.007634","-0.053435","-0.015267","8.842969","-2.813672","-0.267969","-0.508423","0.099292","0.026318","-0.031104","-0.047852","-0.514404"
"I","1617445787.5856457","7","60","42","44","43","-35","0.696289","-0.243958","-0.674316","-0.03125","-0.022901","-0.053435","-0.015267","8.841772","-2.787354","-0.179443","-0.509619","0.128003","0.098096","-0.087329","0.003589","-0.526367"
"I","1617445787.5755515","7","61","43","44","49","-30","0.69696","-0.243774","-0.673706","-0.031128","-0.030534","-0.053435","-0.007634","8.834595","-2.744287","-0.090918","-0.516797","0.174658","0.168677","-0.137573","0.070581","-0.549097"
"I","1617445787.565689","7","60","45","46","46","-32","0.697571","-0.24353","-0.673157","-0.030945","-0.030534","-0.045802","-0.007634","8.83938","-2.734717","-0.003589","-0.510815","0.186621","0.239258","-0.198584","0.108862","-0.5479"
"I","1617445787.555683","7","60","32","46","43","-36","0.698059","-0.243347","-0.672729","-0.030701","-0.022901","-0.038168","-0.015267","8.836987","-2.796924","0.066992","-0.513208","0.126807","0.29668","-0.27395","0.077759","-0.533545"
"I","1617445787.545692","7","61","43","49","47","-32","0.698364","-0.243408","-0.672424","-0.030518","-0.007634","-0.022901","-0.015267","8.81665","-2.908179","0.099292","-0.532349","0.020337","0.321802","-0.339746","-0.010767","-0.520386"
"I","1617445787.5355546","7","41","43","46","46","-33","0.698486","-0.243469","-0.672241","-0.030457","-0.007634","-0.007634","-0.007634","8.819043","-3.007471","0.131592","-0.52876","-0.075366","0.350513","-0.400757","-0.082544","-0.489282"
"I","1617445787.5257423","7","58","43","42","44","-31","0.698425","-0.243408","-0.672363","-0.030457","-0.015267","0.007634","0","8.84895","-3.049341","0.159106","-0.500049","-0.118433","0.38042","-0.441431","-0.100488","-0.449805"
"I","1617445787.515641","7","57","41","45","47","-35","0.698181","-0.243103","-0.672668","-0.030457","-0.022901","0.015267","0.015267","8.88125","-3.043359","0.153125","-0.467749","-0.117236","0.38042","-0.437842","-0.090918","-0.419897"
"I","1617445787.5056438","7","56","43","44","45","-33","0.697876","-0.242615","-0.673218","-0.030457","-0.038168","0.022901","0.030534","8.900391","-3.003882","0.120825","-0.452197","-0.086133","0.356494","-0.401953","-0.068188","-0.413916"
"I","1617445787.4955702","7","59","43","44","46","-33","0.697571","-0.24176","-0.673828","-0.030518","-0.045802","0.022901","0.038168","8.894409","-2.924927","0.062207","-0.462964","-0.021533","0.30625","-0.332568","-0.033496","-0.442627"
"I","1617445787.4854546","7","59","44","47","50","-29","0.697266","-0.240784","-0.6745","-0.030579","-0.045802","0.030534","0.045802","8.901587","-2.819653","-0.00957","-0.460571","0.065796","0.242847","-0.240454","0.019141","-0.465356"
"I","1617445787.475596","7","59","45","44","46","-33","0.696899","-0.239746","-0.675232","-0.03064","-0.038168","0.038168","0.045802","8.931494","-2.70481","-0.086133","-0.435449","0.163892","0.175854","-0.139966","0.087329","-0.467749"
"I","1617445787.4657226","7","60","42","45","45","-32","0.696411","-0.238831","-0.676025","-0.030701","-0.022901","0.045802","0.045802","8.986524","-2.633032","-0.185425","-0.384009","0.220117","0.089722","-0.034692","0.119629","-0.433057"
"I","1617445787.4554937","7","59","43","43","46","-34","0.695801","-0.238342","-0.676819","-0.030884","0.007634","0.053435","0.030534","9.065478","-2.636621","-0.288306","-0.308643","0.203369","0.003589","0.045459","0.094507","-0.354102"
"I","1617445787.4457877","7","57","43","43","43","-34","0.695068","-0.238281","-0.677551","-0.03125","0.038168","0.053435","0.022901","9.127686","-2.697632","-0.384009","-0.247632","0.132788","-0.071777","0.094507","0.020337","-0.272754"
"I","1617445787.435866","7","59","44","45","43","-35","0.694336","-0.238586","-0.678223","-0.031677","0.045802","0.045802","0.007634","9.171948","-2.738306","-0.419897","-0.205762","0.087329","-0.088525","0.096899","-0.013159","-0.218921"
"I","1617445787.425629","7","60","41","46","43","-34","0.693665","-0.239014","-0.678711","-0.032104","0.038168","0.038168","-0.007634","9.17793","-2.725147","-0.398364","-0.19978","0.096899","-0.049048","0.065796","0.010767","-0.216528"
"I","1617445787.4157813","7","58","42","48","46","-32","0.693176","-0.239502","-0.679077","-0.032349","0.030534","0.022901","-0.007634","9.149219","-2.702417","-0.375635","-0.228491","0.120825","-0.013159","0.039478","0.037085","-0.252417"
"I","1617445787.4057565","7","59","44","46","48","-34","0.692749","-0.240051","-0.679321","-0.032532","0.038168","0.022901","-0.015267","9.13606","-2.689258","-0.362476","-0.240454","0.136377","0.010767","0.021533","0.056226","-0.269165"
"I","1617445787.395701","7","60","43","42","48","-33","0.692322","-0.240723","-0.679504","-0.032715","0.038168","0.022901","-0.015267","9.132471","-2.721558","-0.360083","-0.24165","0.108862","0.023926","0","0.035889","-0.263184"
"I","1617445787.3857267","7","56","42","45","42","-35","0.691833","-0.241333","-0.679749","-0.032898","0.038168","0.022901","-0.015267","9.125293","-2.747876","-0.376831","-0.247632","0.086133","0.020337","-0.004785","0.013159","-0.261987"
"I","1617445787.3757248","7","59","43","56","44","-35","0.691406","-0.241882","-0.679993","-0.033081","0.022901","0.022901","-0.015267","9.127686","-2.734717","-0.394775","-0.244043","0.101685","0.014355","0.005981","0.025122","-0.263184"
"I","1617445787.365791","7","60","43","46","47","-35","0.690979","-0.24231","-0.680298","-0.033142","0.007634","0.022901","-0.015267","9.112134","-2.678491","-0.411523","-0.258398","0.160303","0.008374","0.033496","0.070581","-0.293091"
"I","1617445787.3555698","7","60","42","44","43","-33","0.690613","-0.242554","-0.680542","-0.03302","0","0.015267","-0.015267","9.07146","-2.609107","-0.435449","-0.29668","0.233276","-0.004785","0.070581","0.118433","-0.350513"
"I","1617445787.345888","7","61","42","46","51","-33","0.690369","-0.242737","-0.680725","-0.032776","0","0.015267","-0.015267","9.018824","-2.569629","-0.476123","-0.34812","0.277539","-0.038281","0.114844","0.130396","-0.411523"
"I","1617445787.3358717","7","60","42","44","48","-32","0.690125","-0.242981","-0.680908","-0.032532","0","0.015267","-0.022901","8.978149","-2.561255","-0.513208","-0.386401","0.290698","-0.068188","0.144751","0.118433","-0.449805"
"I","1617445787.326291","7","58","43","45","47","-33","0.68988","-0.243347","-0.681091","-0.032227","0.015267","0.015267","-0.022901","8.920728","-2.595947","-0.56106","-0.441431","0.263184","-0.108862","0.16748","0.063403","-0.492871"
"I","1617445787.3157706","7","59","44","44","44","-35","0.689575","-0.243896","-0.681152","-0.031982","0.022901","0.015267","-0.030534","8.869287","-2.653369","-0.596948","-0.489282","0.215332","-0.136377","0.172266","-0.002393","-0.522778"
"I","1617445787.305722","7","59","40","45","44","-33","0.68927","-0.244568","-0.681213","-0.031799","0.022901","0.015267","-0.038168","8.79751","-2.713184","-0.638818","-0.557471","0.165088","-0.169873","0.179443","-0.080151","-0.571826"
"I","1617445787.2964995","7","63","43","46","43","-37","0.689026","-0.245239","-0.681274","-0.031677","0.022901","0.022901","-0.038168","8.737696","-2.739502","-0.669922","-0.614893","0.14834","-0.193799","0.191406","-0.122021","-0.620874"
"I","1617445787.2865083","7","61","42","44","46","-32","0.688721","-0.24585","-0.681396","-0.031555","0.022901","0.022901","-0.030534","8.701807","-2.739502","-0.695044","-0.647192","0.156714","-0.210547","0.208154","-0.130396","-0.653174"
"I","1617445787.2756398","7","58","43","44","47","-32","0.688354","-0.246399","-0.681519","-0.031372","0.015267","0.030534","-0.030534","8.689844","-2.725147","-0.708203","-0.655566","0.179443","-0.214136","0.220117","-0.11604","-0.667529"
"I","1617445787.2663066","7","58","43","60","47","-32","0.688049","-0.246826","-0.681702","-0.03125","0.007634","0.022901","-0.022901","8.657544","-2.694043","-0.723755","-0.68667","0.216528","-0.221313","0.238062","-0.095703","-0.707007"
"I","1617445787.2564003","7","59","43","45","48","-34","0.687805","-0.247009","-0.681885","-0.031067","0","0.015267","-0.015267","8.620459","-2.636621","-0.745288","-0.721362","0.277539","-0.235669","0.272754","-0.058618","-0.757251"
"I","1617445787.2464235","7","59","43","44","48","-33","0.687622","-0.247131","-0.682007","-0.030884","-0.007634","0.007634","-0.015267","8.591748","-2.585181","-0.76084","-0.748877","0.332568","-0.246436","0.302661","-0.022729","-0.799121"
"I","1617445787.236412","7","60","43","45","41","-31","0.687622","-0.247253","-0.682007","-0.030701","0","0","-0.007634","8.564234","-2.585181","-0.77041","-0.775195","0.336157","-0.25481","0.309839","-0.031104","-0.825439"
"I","1617445787.2264063","7","61","41","46","44","-33","0.687622","-0.247437","-0.681946","-0.03064","0.007634","-0.007634","-0.015267","8.554663","-2.631836","-0.782373","-0.784766","0.293091","-0.266772","0.303857","-0.076563","-0.820654"
"I","1617445787.2165675","7","56","42","42","43","-36","0.687683","-0.247742","-0.681763","-0.030701","0.022901","-0.015267","-0.015267","8.548681","-2.695239","-0.799121","-0.789551","0.233276","-0.285913","0.297876","-0.137573","-0.806299"
"I","1617445787.2064912","7","56","42","44","44","-36","0.687805","-0.248169","-0.681458","-0.030823","0.022901","-0.015267","-0.022901","8.558252","-2.75625","-0.805103","-0.777588","0.177051","-0.295483","0.285913","-0.187817","-0.777588"
"I","1617445787.1964278","7","59","41","44","44","-34","0.687988","-0.248535","-0.681152","-0.030945","0.015267","-0.015267","-0.030534","8.570215","-2.800513","-0.785962","-0.764429","0.137573","-0.281128","0.257202","-0.212939","-0.754858"
"I","1617445787.1865582","7","61","44","44","44","-35","0.688171","-0.248962","-0.680786","-0.030945","0.007634","-0.015267","-0.030534","8.612085","-2.819653","-0.745288","-0.721362","0.124414","-0.245239","0.221313","-0.198584","-0.711792"
"I","1617445787.1763394","7","58","42","44","42","-34","0.688416","-0.249329","-0.68042","-0.030762","0","-0.022901","-0.030534","8.667114","-2.83999","-0.689062","-0.66394","0.113647","-0.196191","0.175854","-0.172266","-0.655566"
"I","1617445787.166484","7","60","42","43","44","-32","0.688721","-0.249634","-0.680054","-0.030518","0","-0.030534","-0.030534","8.686255","-2.892627","-0.643604","-0.642407","0.069385","-0.15791","0.124414","-0.19021","-0.624463"
"I","1617445787.1565194","7","57","43","44","46","-34","0.689087","-0.249817","-0.679565","-0.030457","-0.007634","-0.038168","-0.022901","8.704199","-2.963208","-0.598145","-0.62207","0.004785","-0.123218","0.068188","-0.227295","-0.587378"
"I","1617445787.1464798","7","59","42","44","48","-31","0.689575","-0.249817","-0.679077","-0.030457","-0.015267","-0.038168","-0.007634","8.735303","-2.994312","-0.541919","-0.590967","-0.022729","-0.080151","0.020337","-0.226099","-0.551489"
"I","1617445787.1367064","7","59","43","45","46","-33","0.690125","-0.249573","-0.678589","-0.030457","-0.030534","-0.045802","-0.007634","8.775976","-2.960815","-0.474927","-0.551489","0.00957","-0.027515","-0.013159","-0.165088","-0.526367"
"I","1617445787.1264384","7","59","40","44","47","-33","0.690796","-0.249084","-0.678101","-0.030396","-0.038168","-0.053435","0","8.775976","-2.905786","-0.411523","-0.552686","0.062207","0.016748","-0.034692","-0.101685","-0.545508"
"I","1617445787.1165688","7","59","41","45","44","-35","0.691467","-0.248596","-0.677612","-0.030273","-0.030534","-0.053435","0.007634","8.793921","-2.889038","-0.38042","-0.535937","0.077759","0.029907","-0.040674","-0.077759","-0.534741"
"I","1617445787.1064632","7","57","43","44","44","-33","0.692078","-0.24823","-0.677185","-0.030273","-0.015267","-0.038168","0.007634","8.853735","-2.933301","-0.358887","-0.478516","0.031104","0.035889","-0.059814","-0.099292","-0.466553"
"I","1617445787.0966177","7","57","43","45","44","-35","0.692444","-0.248047","-0.676819","-0.030457","0","-0.030534","0.007634","8.917139","-3.014648","-0.351709","-0.416309","-0.05144","0.0323","-0.082544","-0.154321","-0.381616"
"I","1617445787.0864325","7","59","45","46","48","-32","0.692688","-0.247986","-0.676575","-0.030762","0.007634","-0.022901","0.007634","8.985327","-3.106763","-0.349316","-0.349316","-0.147144","0.027515","-0.108862","-0.220117","-0.288306"
"I","1617445787.0764515","7","57","41","42","44","-35","0.692871","-0.247742","-0.676453","-0.03125","-0.007634","-0.015267","0.015267","9.078638","-3.105567","-0.301465","-0.258398","-0.154321","0.069385","-0.143555","-0.183032","-0.202173"
"I","1617445787.0664945","7","57","42","44","47","-35","0.693054","-0.247192","-0.676453","-0.031555","-0.038168","-0.015267","0.022901","9.137256","-3.003882","-0.240454","-0.203369","-0.063403","0.12561","-0.155518","-0.065796","-0.179443"
"I","1617445787.0564334","7","59","45","44","47","-34","0.693359","-0.246338","-0.676392","-0.031677","-0.053435","-0.030534","0.030534","9.138453","-2.867505","-0.165088","-0.205762","0.059814","0.191406","-0.169873","0.065796","-0.220117"
"I","1617445787.0465932","7","58","42","47","47","-33","0.693848","-0.2453","-0.676331","-0.031677","-0.061069","-0.030534","0.038168","9.10376","-2.762231","-0.111255","-0.245239","0.153125","0.233276","-0.177051","0.153125","-0.287109"
"I","1617445787.0366497","7","59","45","46","52","-35","0.694275","-0.244202","-0.67627","-0.031555","-0.061069","-0.038168","0.038168","9.067871","-2.679688","-0.100488","-0.284717","0.224902","0.23208","-0.153125","0.204565","-0.345728"
"I","1617445787.026507","7","60","45","45","47","-37","0.694763","-0.243164","-0.676147","-0.031494","-0.061069","-0.038168","0.030534","9.046338","-2.613892","-0.118433","-0.311035","0.279932","0.200977","-0.10647","0.233276","-0.385205"
"I","1617445787.016449","7","60","43","46","47","-31","0.69519","-0.242249","-0.676025","-0.031372","-0.038168","-0.022901","0.022901","9.063086","-2.597144","-0.161499","-0.29668","0.287109","0.145947","-0.052637","0.223706","-0.372046"
"I","1617445787.00639","7","59","42","45","46","-33","0.695435","-0.24176","-0.676025","-0.03125","-0.015267","-0.007634","0.015267","9.10376","-2.639014","-0.214136","-0.258398","0.24165","0.087329","-0.011963","0.172266","-0.320605"
"I","1617445786.9968438","7","59","43","42","46","-28","0.695435","-0.241638","-0.676025","-0.031311","0.007634","0","0.007634","9.152807","-2.731128","-0.257202","-0.209351","0.147144","0.044263","-0.003589","0.086133","-0.244043"
"I","1617445786.9864976","7","89","44","42","23","-34","0.695312","-0.241699","-0.676147","-0.031433","0.015267","0.007634","0","9.1875","-2.813672","-0.27395","-0.175854","0.063403","0.031104","-0.019141","0.016748","-0.186621"
"I","1617445786.9764674","7","61","43","45","47","-32","0.695129","-0.241882","-0.676208","-0.031555","0.007634","0.007634","-0.007634","9.180323","-2.843579","-0.252417","-0.181836","0.033496","0.056226","-0.053833","0","-0.184229"
"I","1617445786.9665627","7","59","42","44","44","-32","0.695068","-0.241882","-0.676331","-0.031616","-0.015267","0.007634","-0.007634","9.156397","-2.806494","-0.206958","-0.206958","0.069385","0.104077","-0.087329","0.04187","-0.221313"
"I","1617445786.9563694","7","56","43","41","47","-36","0.695007","-0.241699","-0.676453","-0.031494","-0.030534","0","-0.007634","9.137256","-2.695239","-0.14834","-0.226099","0.179443","0.163892","-0.102881","0.155518","-0.272754"
"I","1617445786.9467552","7","60","42","24","47","-32","0.695129","-0.241455","-0.676453","-0.031128","-0.030534","-0.007634","-0.007634","9.06189","-2.583984","-0.096899","-0.301465","0.291895","0.212939","-0.113647","0.251221","-0.38042"
"I","1617445786.93662","7","63","42","42","51","-35","0.695251","-0.241272","-0.676392","-0.030762","-0.022901","-0.007634","-0.015267","8.991308","-2.525366","-0.076563","-0.37085","0.354102","0.230884","-0.113647","0.293091","-0.465356"
"I","1617445786.9265058","7","59","43","42","47","-34","0.695312","-0.241211","-0.676392","-0.030334","-0.015267","0","-0.015267","8.961401","-2.500244","-0.075366","-0.399561","0.384009","0.230884","-0.105273","0.311035","-0.501245"
"I","1617445786.9166496","7","57","42","46","45","-33","0.69519","-0.241455","-0.676392","-0.029968","0","0.007634","-0.022901","8.931494","-2.502637","-0.086133","-0.425879","0.38999","0.223706","-0.098096","0.30625","-0.52876"
"I","1617445786.9065285","7","60","42","44","48","-32","0.695007","-0.241882","-0.676453","-0.029663","0.007634","0.007634","-0.030534","8.895605","-2.549292","-0.104077","-0.459375","0.351709","0.210547","-0.102881","0.257202","-0.549097"
"I","1617445786.8964183","7","60","43","45","47","-33","0.694702","-0.242493","-0.676514","-0.029297","0.015267","0.015267","-0.038168","8.851343","-2.628247","-0.14834","-0.498853","0.284717","0.174658","-0.096899","0.172266","-0.565845"
"I","1617445786.8866832","7","59","43","44","42","-33","0.694397","-0.243225","-0.676636","-0.028931","0.007634","0.015267","-0.038168","8.809473","-2.689258","-0.189014","-0.537134","0.236865","0.143555","-0.089722","0.10647","-0.587378"
"I","1617445786.876696","7","57","42","44","25","-32","0.694092","-0.243835","-0.676758","-0.028564","-0.007634","0.022901","-0.038168","8.779566","-2.731128","-0.224902","-0.563452","0.206958","0.11604","-0.076563","0.061011","-0.60293"
"I","1617445786.866429","7","58","41","44","44","-35","0.693787","-0.244141","-0.676941","-0.028015","-0.022901","0.030534","-0.030534","8.785547","-2.722754","-0.235669","-0.552686","0.224902","0.113647","-0.066992","0.078955","-0.598145"
"I","1617445786.3774817","7","54","44","46","47","-29","0.690674","-0.244934","-0.679626","-0.03241","0","0.038168","0.007634","9.040357","-2.792139","-0.41272","-0.314624","0.090918","0.015552","-0.002393","-0.004785","-0.327783"
"I","1617445786.3674994","7","60","43","45","50","-33","0.690308","-0.244934","-0.680054","-0.032288","-0.007634","0.030534","-0.007634","9.087011","-2.883057","-0.37085","-0.267969","0","0.068188","-0.081348","-0.050244","-0.258398"
"I","1617445786.3575292","7","57","43","46","43","-35","0.689941","-0.244934","-0.68042","-0.032104","-0.007634","0.015267","-0.007634","9.063086","-2.911767","-0.334961","-0.291895","-0.027515","0.114844","-0.136377","-0.0646","-0.275146"
"I","1617445786.3474884","7","60","42","43","48","-33","0.689758","-0.244873","-0.680664","-0.031982","-0.015267","0","-0.007634","8.970972","-2.916553","-0.321802","-0.384009","-0.0323","0.132788","-0.161499","-0.088525","-0.362476"
"I","1617445786.337607","7","59","44","46","44","-34","0.689758","-0.24469","-0.680725","-0.031799","-0.022901","-0.007634","-0.007634","8.896802","-2.883057","-0.313428","-0.458179","0","0.141162","-0.162695","-0.077759","-0.443823"
"I","1617445786.3273983","7","57","44","45","45","-33","0.689819","-0.244507","-0.680725","-0.031677","-0.022901","-0.015267","0","8.829809","-2.853149","-0.331372","-0.525171","0.029907","0.122021","-0.13877","-0.078955","-0.515601"
"I","1617445786.3175778","7","59","45","46","52","-35","0.689941","-0.244202","-0.680725","-0.031677","-0.015267","-0.007634","0.007634","8.805883","-2.826831","-0.374438","-0.550293","0.052637","0.075366","-0.088525","-0.08374","-0.544312"
"I","1617445786.307573","7","59","43","46","43","-31","0.68988","-0.244019","-0.680786","-0.031738","0","0","0.007634","8.836987","-2.808887","-0.439038","-0.519189","0.066992","0.011963","-0.021533","-0.086133","-0.515601"
"I","1617445786.2974477","7","56","43","44","45","-33","0.689758","-0.244019","-0.680969","-0.03186","0.015267","0.015267","0.007634","8.887232","-2.841187","-0.535937","-0.471338","0.0323","-0.080151","0.052637","-0.137573","-0.455786"
"I","1617445786.2873745","7","61","43","45","48","-35","0.689392","-0.244202","-0.681213","-0.032227","0.030534","0.022901","0","8.956616","-2.886646","-0.618481","-0.401953","-0.016748","-0.153125","0.10647","-0.187817","-0.37085"
"I","1617445786.2775145","7","60","43","42","44","-32","0.688965","-0.244446","-0.681519","-0.032593","0.030534","0.030534","0","8.984131","-2.88186","-0.666333","-0.374438","-0.015552","-0.19021","0.143555","-0.193799","-0.343335"
"I","1617445786.267415","7","61","41","41","47","-33","0.688599","-0.244751","-0.681824","-0.03302","0.030534","0.022901","0","8.988916","-2.834009","-0.674707","-0.37085","0.027515","-0.189014","0.159106","-0.154321","-0.351709"
"I","1617445786.2574928","7","59","43","43","46","-35","0.688232","-0.244934","-0.682068","-0.033325","0.015267","0.015267","0.007634","8.948242","-2.781372","-0.660352","-0.411523","0.076563","-0.165088","0.153125","-0.113647","-0.406738"
"I","1617445786.2475371","7","59","44","45","43","-35","0.688049","-0.244934","-0.682251","-0.03363","0","0.007634","0.007634","8.909961","-2.706006","-0.624463","-0.451001","0.147144","-0.124414","0.139966","-0.047852","-0.466553"
"I","1617445786.237526","7","56","43","46","46","-37","0.687988","-0.244751","-0.682373","-0.033691","-0.022901","-0.007634","0.007634","8.841772","-2.597144","-0.577808","-0.520386","0.252417","-0.076563","0.131592","0.04187","-0.565845"
"I","1617445786.2275877","7","60","43","45","46","-35","0.68811","-0.244385","-0.682373","-0.03363","-0.030534","-0.015267","0.007634","8.74248","-2.508618","-0.565845","-0.620874","0.337354","-0.068188","0.149536","0.090918","-0.68667"
"I","1617445786.2175157","7","60","43","44","48","-31","0.688354","-0.244019","-0.682312","-0.033508","-0.022901","-0.015267","0.007634","8.665918","-2.479907","-0.592163","-0.699829","0.363672","-0.100488","0.183032","0.080151","-0.769214"
"I","1617445786.2076223","7","59","42","46","43","-33","0.688538","-0.243896","-0.68219","-0.033386","0","-0.007634","0","8.669507","-2.544507","-0.647192","-0.69624","0.300269","-0.160303","0.214136","0.002393","-0.744092"
"I","1617445786.197565","7","59","41","45","47","-33","0.688477","-0.244019","-0.682129","-0.033386","0.022901","0.007634","-0.007634","8.704199","-2.660547","-0.710596","-0.659155","0.185425","-0.22251","0.230884","-0.110059","-0.672314"
"I","1617445786.1875887","7","59","41","44","43","-35","0.688293","-0.244385","-0.68219","-0.033508","0.030534","0.022901","-0.015267","8.761621","-2.793335","-0.790747","-0.601733","0.055029","-0.297876","0.25481","-0.238062","-0.575415"
"I","1617445786.1775887","7","59","42","44","46","-33","0.687927","-0.244934","-0.682373","-0.033752","0.038168","0.030534","-0.015267","8.851343","-2.892627","-0.830225","-0.510815","-0.040674","-0.327783","0.252417","-0.307446","-0.459375"
"I","1617445786.1676557","7","58","43","45","48","-31","0.6875","-0.245361","-0.682617","-0.033997","0.022901","0.030534","-0.015267","8.924316","-2.929712","-0.849365","-0.436646","-0.077759","-0.336157","0.251221","-0.322998","-0.376831"
"I","1617445786.157495","7","60","41","44","44","-35","0.687195","-0.245605","-0.682861","-0.03418","0.007634","0.022901","-0.007634","8.980542","-2.897412","-0.814673","-0.38042","-0.046655","-0.293091","0.227295","-0.263184","-0.333765"
"I","1617445786.147598","7","47","44","46","47","-35","0.687012","-0.245544","-0.683044","-0.034302","-0.007634","0.007634","0.007634","9.005664","-2.823242","-0.769214","-0.356494","0.022729","-0.242847","0.209351","-0.175854","-0.333765"
"I","1617445786.1375067","7","57","40","41","44","-33","0.687073","-0.245239","-0.683105","-0.034363","-0.022901","-0.007634","0.015267","8.979345","-2.731128","-0.693848","-0.384009","0.111255","-0.168677","0.172266","-0.076563","-0.38999"
"I","1617445786.1276386","7","56","40","42","44","-33","0.687378","-0.244751","-0.682983","-0.034363","-0.030534","-0.022901","0.015267","8.908765","-2.646191","-0.600537","-0.456982","0.19021","-0.08374","0.119629","0.003589","-0.48689"
"I","1617445786.1175854","7","58","43","43","46","-34","0.687805","-0.244263","-0.682678","-0.034424","-0.022901","-0.038168","0.015267","8.833399","-2.60791","-0.517993","-0.533545","0.223706","-0.013159","0.062207","0.038281","-0.573022"
"I","1617445786.1076396","7","60","56","45","47","-34","0.688293","-0.243896","-0.682373","-0.034607","-0.007634","-0.038168","0.015267","8.764013","-2.621069","-0.455786","-0.606519","0.205762","0.035889","0.004785","0.021533","-0.640015"
"I","1617445786.097661","7","60","48","44","45","-34","0.68866","-0.243713","-0.682007","-0.034912","0.007634","-0.030534","0.007634","8.741284","-2.659351","-0.405542","-0.630444","0.162695","0.07417","-0.047852","-0.007178","-0.653174"
"I","1617445786.0876591","7","59","44","42","47","-33","0.688843","-0.243713","-0.681824","-0.035339","0.015267","-0.015267","0.007634","8.801099","-2.684473","-0.374438","-0.573022","0.132788","0.100488","-0.080151","-0.007178","-0.590967"
"I","1617445786.0775466","7","57","43","43","46","-35","0.688904","-0.243713","-0.681702","-0.035767","0.007634","-0.007634","0.007634","8.901587","-2.671314","-0.349316","-0.47373","0.141162","0.123218","-0.090918","0.037085","-0.498853"
"I","1617445786.0676892","7","59","42","45","46","-33","0.688904","-0.24353","-0.681763","-0.036072","-0.015267","-0.015267","0.007634","8.960205","-2.601929","-0.308643","-0.416309","0.203369","0.162695","-0.100488","0.123218","-0.46416"
"I","1617445786.0575693","7","59","41","41","44","-36","0.689087","-0.243225","-0.681702","-0.036133","-0.030534","-0.022901","0.007634","8.960205","-2.52417","-0.291895","-0.418701","0.277539","0.174658","-0.082544","0.192603","-0.488086"
"I","1617445786.0475168","7","57","40","42","46","-33","0.689331","-0.242798","-0.68158","-0.036072","-0.038168","-0.022901","0.007634","8.969775","-2.465552","-0.27395","-0.410327","0.332568","0.186621","-0.072974","0.247632","-0.49646"
"I","1617445786.0376425","7","59","43","44","47","-35","0.689697","-0.242371","-0.681458","-0.035828","-0.038168","-0.030534","0.007634","8.963794","-2.451196","-0.277539","-0.417505","0.345728","0.174658","-0.057422","0.253613","-0.50603"
"I","1617445786.0274642","7","60","43","45","45","-33","0.690002","-0.242065","-0.681213","-0.035583","-0.022901","-0.038168","0","8.925512","-2.502637","-0.300269","-0.455786","0.295483","0.142358","-0.050244","0.186621","-0.526367"
"I","1617445786.0177286","7","57","43","45","44","-35","0.690369","-0.241943","-0.680908","-0.035461","-0.015267","-0.030534","0","8.907568","-2.573218","-0.364868","-0.47373","0.227295","0.068188","-0.00957","0.092114","-0.520386"
"I","1617445786.0075831","7","56","42","47","44","-34","0.690613","-0.241882","-0.680664","-0.0354","-0.007634","-0.015267","-0.007634","8.959009","-2.639014","-0.43186","-0.42229","0.162695","-0.003589","0.034692","0.022729","-0.449805"
"I","1617445785.9976134","7","60","43","45","43","-32","0.690735","-0.241821","-0.680603","-0.0354","-0.007634","-0.007634","-0.007634","9.047534","-2.679688","-0.474927","-0.333765","0.120825","-0.050244","0.068188","-0.005981","-0.351709"
"I","1617445785.987809","7","58","43","46","43","-34","0.690735","-0.241821","-0.680603","-0.0354","-0.015267","0","0","9.114527","-2.683276","-0.50603","-0.266772","0.117236","-0.081348","0.099292","-0.002393","-0.284717"
"I","1617445785.9775052","7","57","43","44","45","-35","0.690796","-0.241638","-0.680603","-0.035278","-0.030534","0","-0.007634","9.139648","-2.648584","-0.491675","-0.24165","0.151929","-0.068188","0.102881","0.039478","-0.271558"
"I","1617445785.9677255","7","58","45","47","46","-36","0.690918","-0.241272","-0.680603","-0.034973","-0.045802","-0.007634","-0.007634","9.137256","-2.578003","-0.436646","-0.244043","0.22251","-0.016748","0.081348","0.120825","-0.295483"
"I","1617445785.957591","7","58","42","44","46","-35","0.691223","-0.240845","-0.680481","-0.034424","-0.053435","-0.015267","-0.015267","9.104956","-2.521777","-0.374438","-0.276343","0.281128","0.037085","0.05144","0.184229","-0.345728"
"I","1617445785.947716","7","58","41","44","45","-28","0.691589","-0.24054","-0.680237","-0.033752","-0.045802","-0.030534","-0.015267","9.012842","-2.530151","-0.332568","-0.366064","0.279932","0.070581","0.011963","0.169873","-0.433057"
"I","1617445785.9375918","7","86","42","46","42","-36","0.692078","-0.240356","-0.67981","-0.033203","-0.038168","-0.038168","-0.022901","8.914746","-2.578003","-0.321802","-0.462964","0.239258","0.068188","-0.007178","0.10647","-0.514404"
"I","1617445785.927715","7","68","41","46","48","-35","0.692627","-0.240173","-0.679382","-0.032776","-0.038168","-0.038168","-0.022901","8.892016","-2.585181","-0.305054","-0.484497","0.238062","0.070581","-0.011963","0.100488","-0.534741"
"I","1617445785.9176738","7","57","43","45","42","-35","0.693115","-0.239868","-0.679016","-0.032288","-0.045802","-0.030534","-0.022901","8.893213","-2.534936","-0.267969","-0.482104","0.293091","0.095703","-0.015552","0.159106","-0.549097"
"I","1617445785.907713","7","57","42","44","48","-34","0.693604","-0.239563","-0.67865","-0.031738","-0.045802","-0.022901","-0.022901","8.890821","-2.4823","-0.233276","-0.483301","0.351709","0.117236","-0.015552","0.217725","-0.568237"
"I","1617445785.8975613","7","57","42","43","46","-37","0.693909","-0.23938","-0.678406","-0.031128","-0.030534","-0.015267","-0.022901","8.897998","-2.497852","-0.215332","-0.47373","0.343335","0.128003","-0.028711","0.217725","-0.556274"
"I","1617445785.887854","7","57","41","48","44","-36","0.694092","-0.239441","-0.678162","-0.03064","-0.015267","-0.007634","-0.015267","8.936279","-2.592358","-0.214136","-0.433057","0.257202","0.123218","-0.052637","0.150732","-0.492871"
"I","1617445785.8777456","7","61","40","42","50","-35","0.694153","-0.239624","-0.678101","-0.030334","-0.007634","-0.007634","-0.015267","8.978149","-2.679688","-0.209351","-0.38999","0.177051","0.128003","-0.08374","0.093311","-0.428271"
"I","1617445785.867667","7","59","44","41","44","-37","0.694214","-0.239624","-0.67804","-0.030151","-0.022901","-0.015267","-0.015267","8.979345","-2.692847","-0.19978","-0.387598","0.166284","0.136377","-0.095703","0.087329","-0.423486"
"I","1617445785.8576376","7","58","43","45","46","-36","0.694458","-0.239441","-0.677917","-0.029785","-0.045802","-0.022901","-0.007634","8.963794","-2.642602","-0.171069","-0.403149","0.220117","0.159106","-0.098096","0.13877","-0.45459"
"I","1617445785.8478117","7","57","43","45","45","-34","0.694824","-0.239014","-0.677673","-0.029297","-0.053435","-0.030534","-0.007634","8.918335","-2.600732","-0.161499","-0.447412","0.26438","0.159106","-0.086133","0.165088","-0.509619"
"I","1617445785.8376763","7","57","43","46","46","-34","0.695251","-0.238525","-0.677429","-0.028748","-0.061069","-0.030534","-0.007634","8.88125","-2.601929","-0.171069","-0.483301","0.265576","0.137573","-0.069385","0.14834","-0.543115"
"I","1617445785.8285334","7","58","41","44","46","-35","0.69574","-0.238037","-0.677124","-0.028137","-0.053435","-0.022901","-0.007634","8.865698","-2.635425","-0.177051","-0.498853","0.236865","0.119629","-0.065796","0.112451","-0.549097"
"I","1617445785.817659","7","57","42","44","44","-35","0.696045","-0.23761","-0.677002","-0.027527","-0.045802","-0.007634","-0.015267","8.893213","-2.688061","-0.185425","-0.470142","0.187817","0.104077","-0.066992","0.070581","-0.507227"
"I","1617445785.8075986","7","57","41","44","44","-32","0.696228","-0.237305","-0.676941","-0.026978","-0.038168","0","-0.015267","8.960205","-2.753857","-0.185425","-0.401953","0.12561","0.099292","-0.080151","0.033496","-0.423486"
"I","1617445785.7976203","7","59","41","43","44","-34","0.696228","-0.237183","-0.677002","-0.026489","-0.022901","0.007634","-0.015267","9.008057","-2.831616","-0.197388","-0.352905","0.052637","0.087329","-0.090918","-0.021533","-0.354102"
"I","1617445785.7879832","7","57","41","46","46","-33","0.696045","-0.237061","-0.677185","-0.026184","-0.015267","0.015267","-0.007634","9.021215","-2.906982","-0.229687","-0.33855","-0.020337","0.059814","-0.089722","-0.092114","-0.318213"
"I","1617445785.7777996","7","59","44","46","42","-35","0.695862","-0.236877","-0.67749","-0.02594","-0.030534","0.022901","0","9.057104","-2.915356","-0.24165","-0.302661","-0.028711","0.053833","-0.08374","-0.090918","-0.281128"
"I","1617445785.7675724","7","59","43","42","46","-35","0.69574","-0.23645","-0.677795","-0.025635","-0.045802","0.015267","0","9.042749","-2.848364","-0.228491","-0.318213","0.034692","0.070581","-0.077759","-0.033496","-0.31582"
"I","1617445785.7575953","7","59","44","44","43","-49","0.69574","-0.23584","-0.67804","-0.025146","-0.061069","0.007634","0","8.959009","-2.763428","-0.223706","-0.403149","0.117236","0.076563","-0.061011","0.016748","-0.421094"
"I","1617445785.748142","7","57","43","44","46","-34","0.695801","-0.235168","-0.678162","-0.024597","-0.053435","0","0","8.88125","-2.713184","-0.234473","-0.479712","0.166284","0.063403","-0.037085","0.033496","-0.508423"
"I","1617445785.738445","7","58","39","44","44","-34","0.695923","-0.23468","-0.678284","-0.023987","-0.038168","0","-0.007634","8.805883","-2.721558","-0.256006","-0.556274","0.160303","0.039478","-0.023926","-0.001196","-0.579004"
"I","1617445785.728469","7","57","42","44","43","-37","0.695984","-0.234375","-0.678345","-0.02356","-0.022901","0.007634","-0.007634","8.766406","-2.772998","-0.299072","-0.594556","0.110059","-0.003589","-0.004785","-0.072974","-0.599341"
"I","1617445785.718473","7","56","42","44","47","-33","0.695923","-0.234253","-0.678406","-0.023254","-0.015267","0.015267","-0.015267","8.793921","-2.831616","-0.320605","-0.565845","0.053833","-0.023926","-0.002393","-0.122021","-0.555078"
"I","1617445785.708447","7","60","44","46","45","-34","0.69574","-0.234375","-0.678589","-0.022949","0","0.022901","-0.022901","8.834595","-2.883057","-0.318213","-0.523975","0.007178","-0.015552","-0.022729","-0.14834","-0.501245"
"I","1617445785.697783","7","57","42","43","43","-36","0.695496","-0.234619","-0.678772","-0.022705","0.007634","0.022901","-0.022901","8.870483","-2.948853","-0.312231","-0.485693","-0.052637","-0.002393","-0.053833","-0.186621","-0.447412"
"I","1617445785.688521","7","59","43","44","46","-33","0.69519","-0.234924","-0.679016","-0.022522","0","0.022901","-0.030534","8.902783","-2.995508","-0.30625","-0.452197","-0.093311","0.010767","-0.076563","-0.208154","-0.404346"
"I","1617445785.6786234","7","56","42","45","44","-33","0.694946","-0.235107","-0.679199","-0.022278","-0.015267","0.007634","-0.022901","8.919531","-2.979956","-0.279932","-0.434253","-0.072974","0.044263","-0.099292","-0.173462","-0.393579"
"I","1617445785.6678991","7","59","41","44","42","-33","0.694885","-0.235046","-0.67926","-0.021973","-0.030534","0","-0.015267","8.901587","-2.917749","-0.265576","-0.449805","-0.008374","0.059814","-0.092114","-0.114844","-0.428271"
"I","1617445785.658528","7","57","43","42","47","-36","0.695007","-0.234863","-0.67926","-0.021606","-0.030534","-0.015267","-0.015267","8.874072","-2.856738","-0.259595","-0.477319","0.053833","0.063403","-0.076563","-0.066992","-0.472534"
"I","1617445785.6485703","7","56","41","42","44","-31","0.69519","-0.234558","-0.679199","-0.021301","-0.038168","-0.015267","-0.007634","8.854932","-2.783765","-0.260791","-0.49646","0.128003","0.057422","-0.046655","-0.008374","-0.513208"
"I","1617445785.6383853","7","57","41","44","46","-37","0.695435","-0.234253","-0.679016","-0.020935","-0.030534","-0.015267","-0.007634","8.864502","-2.738306","-0.276343","-0.48689","0.175854","0.035889","-0.00957","0.027515","-0.517993"
"I","1617445785.6278763","7","58","42","44","42","-33","0.695618","-0.234131","-0.678894","-0.020691","-0.015267","-0.015267","-0.015267","8.878858","-2.737109","-0.289502","-0.471338","0.179443","0.017944","0.008374","0.028711","-0.503638"
"I","1617445785.6177628","7","57","43","44","46","-36","0.695679","-0.234192","-0.678772","-0.020508","0","0","-0.015267","8.908765","-2.775391","-0.307446","-0.440234","0.144751","-0.001196","0.016748","0","-0.462964"
"I","1617445785.6084106","7","59","41","43","43","-27","0.695618","-0.234497","-0.678772","-0.020508","0.015267","0.007634","-0.015267","8.979345","-2.825635","-0.303857","-0.368457","0.098096","0.003589","0.001196","-0.017944","-0.38042"
"I","1617445785.5985377","7","57","45","44","48","-32","0.695374","-0.234863","-0.678894","-0.020508","0.022901","0.015267","-0.015267","9.049927","-2.860327","-0.309839","-0.29668","0.066992","0.003589","-0.002393","-0.025122","-0.302661"
"I","1617445785.5885422","7","55","43","45","44","-36","0.695068","-0.235229","-0.679077","-0.020569","0.015267","0.015267","-0.015267","9.097778","-2.878272","-0.299072","-0.247632","0.05144","0.022729","-0.021533","-0.017944","-0.251221"
"I","1617445785.578547","7","59","43","43","44","-32","0.694824","-0.235474","-0.67926","-0.020569","0","0.007634","-0.015267","9.085815","-2.817261","-0.260791","-0.259595","0.114844","0.068188","-0.043066","0.050244","-0.283521"
"I","1617445785.568344","7","59","43","44","47","-34","0.694702","-0.235535","-0.679321","-0.020508","-0.015267","-0.007634","-0.007634","8.994898","-2.733521","-0.234473","-0.349316","0.19978","0.096899","-0.046655","0.108862","-0.395972"
"I","1617445785.5586169","7","57","42","45","46","-33","0.694763","-0.235474","-0.679321","-0.020264","-0.022901","-0.015267","-0.007634","8.870483","-2.661743","-0.227295","-0.472534","0.27395","0.104077","-0.037085","0.142358","-0.535937"
"I","1617445785.5484118","7","56","42","44","46","-35","0.694946","-0.235291","-0.679138","-0.02002","-0.022901","-0.015267","-0.015267","8.783154","-2.618677","-0.239258","-0.558667","0.319409","0.086133","-0.011963","0.150732","-0.630444"
"I","1617445785.5384417","7","58","41","44","42","-36","0.695129","-0.235291","-0.679016","-0.019653","-0.015267","-0.007634","-0.015267","8.748462","-2.621069","-0.272754","-0.593359","0.322998","0.047852","0.021533","0.130396","-0.66394"
"I","1617445785.52853","7","58","41","42","48","-37","0.695129","-0.235474","-0.678955","-0.019348","0","0.007634","-0.022901","8.760425","-2.685669","-0.313428","-0.579004","0.26438","0.008374","0.038281","0.068188","-0.631641"
"I","1617445785.518569","7","57","41","44","46","-35","0.694946","-0.235901","-0.679016","-0.019104","0.015267","0.015267","-0.030534","8.790332","-2.771802","-0.374438","-0.546704","0.186621","-0.046655","0.065796","-0.010767","-0.575415"
"I","1617445785.508588","7","57","42","44","42","-36","0.694641","-0.23645","-0.679138","-0.018921","0.015267","0.022901","-0.030534","8.832202","-2.850757","-0.42229","-0.501245","0.11604","-0.086133","0.081348","-0.07417","-0.508423"
"I","1617445785.498541","7","56","42","44","46","-33","0.694275","-0.237061","-0.679321","-0.018677","0.015267","0.022901","-0.030534","8.852539","-2.916553","-0.452197","-0.477319","0.059814","-0.105273","0.082544","-0.12561","-0.467749"
"I","1617445785.4886236","7","59","42","45","44","-32","0.69397","-0.23761","-0.679443","-0.018494","0.015267","0.015267","-0.030534","8.836987","-2.982349","-0.47373","-0.490479","0.002393","-0.118433","0.072974","-0.185425","-0.462964"
"I","1617445785.4785612","7","59","42","42","43","-38","0.693726","-0.238037","-0.679504","-0.018372","0","0.015267","-0.030534","8.809473","-3.009863","-0.472534","-0.514404","-0.017944","-0.111255","0.058618","-0.208154","-0.479712"
"I","1617445785.4686148","7","56","41","41","43","-37","0.693604","-0.238159","-0.679565","-0.018127","-0.015267","0.007634","-0.022901","8.802295","-2.975171","-0.436646","-0.520386","0.020337","-0.071777","0.034692","-0.162695","-0.497656"
"I","1617445785.4586332","7","59","45","46","44","-36","0.693665","-0.238159","-0.679565","-0.017822","-0.022901","-0.007634","-0.022901","8.728125","-2.922534","-0.386401","-0.593359","0.077759","-0.022729","0.002393","-0.11604","-0.587378"
"I","1617445785.4485924","7","56","28","42","43","-33","0.693848","-0.238159","-0.679382","-0.017517","-0.015267","-0.022901","-0.015267","8.615674","-2.902197","-0.368457","-0.704614","0.102881","-0.00957","-0.008374","-0.122021","-0.701025"
"I","1617445785.4386432","7","57","43","44","43","-35","0.694092","-0.23822","-0.679138","-0.017334","0","-0.022901","-0.015267","8.558252","-2.952441","-0.386401","-0.76084","0.057422","-0.033496","-0.007178","-0.187817","-0.739307"
"I","1617445785.4285026","7","60","40","49","43","-37","0.694214","-0.238342","-0.678894","-0.017456","0.015267","-0.007634","-0.015267","8.595337","-3.006274","-0.400757","-0.722559","0.003589","-0.052637","-0.004785","-0.230884","-0.685474"
"I","1617445785.4186113","7","57","41","42","46","-34","0.694214","-0.238647","-0.678833","-0.017639","0.022901","-0.007634","-0.015267","8.644384","-3.02063","-0.400757","-0.674707","-0.007178","-0.05144","-0.005981","-0.226099","-0.636426"
"I","1617445785.4084673","7","60","42","44","43","-32","0.694153","-0.238892","-0.678833","-0.017883","0.022901","0","-0.007634","8.66831","-3.009863","-0.413916","-0.650781","0.002393","-0.063403","0.008374","-0.215332","-0.617285"
"I","1617445785.3984869","7","61","43","44","43","-33","0.694031","-0.239075","-0.678894","-0.018188","0.015267","0.007634","0","8.718554","-2.979956","-0.413916","-0.600537","0.029907","-0.059814","0.019141","-0.173462","-0.577808"
"I","1617445785.3885453","7","57","58","44","42","-32","0.693909","-0.239075","-0.679016","-0.018433","-0.007634","0.007634","0.007634","8.795117","-2.917749","-0.393579","-0.525171","0.087329","-0.037085","0.023926","-0.092114","-0.523975"
"I","1617445785.378767","7","57","43","42","40","-35","0.693848","-0.23877","-0.679138","-0.018555","-0.022901","-0.007634","0.007634","8.831006","-2.811279","-0.387598","-0.491675","0.187817","-0.029907","0.055029","0.008374","-0.523975"
"I","1617445785.3687618","7","57","43","44","44","-35","0.69397","-0.238342","-0.679199","-0.018555","-0.030534","-0.015267","0.015267","8.793921","-2.701221","-0.367261","-0.529956","0.293091","-0.011963","0.071777","0.096899","-0.593359"
"I","1617445785.35858","7","64","43","45","46","-33","0.694275","-0.237854","-0.679077","-0.018433","-0.030534","-0.022901","0.015267","8.743677","-2.637817","-0.379224","-0.582593","0.352905","-0.0323","0.107666","0.126807","-0.660352"
"I","1617445785.3485515","7","60","43","43","46","-35","0.69458","-0.237427","-0.678894","-0.018372","-0.015267","-0.022901","0.015267","8.717359","-2.636621","-0.355298","-0.610107","0.350513","-0.016748","0.089722","0.123218","-0.68667"
"I","1617445785.338641","7","57","43","44","45","-34","0.694763","-0.237244","-0.678711","-0.018433","0","-0.022901","0.007634","8.720947","-2.689258","-0.358887","-0.606519","0.295483","-0.026318","0.078955","0.071777","-0.666333"
"I","1617445785.3285327","7","57","44","44","43","-37","0.694946","-0.237244","-0.678589","-0.018677","0.015267","-0.015267","0.007634","8.735303","-2.775391","-0.364868","-0.594556","0.206958","-0.035889","0.058618","-0.004785","-0.626855"
"I","1617445785.3187194","7","57","41","44","46","-33","0.695007","-0.237366","-0.678467","-0.019043","0.015267","-0.015267","0.007634","8.781958","-2.829224","-0.355298","-0.5479","0.150732","-0.028711","0.035889","-0.038281","-0.565845"
"I","1617445785.3085897","7","59","44","44","43","-33","0.695068","-0.237305","-0.678345","-0.01947","0.007634","-0.007634","0.015267","8.840576","-2.819653","-0.321802","-0.490479","0.154321","0.001196","0.013159","-0.007178","-0.513208"
"I","1617445785.2986116","7","56","40","41","42","-33","0.695129","-0.237122","-0.678345","-0.019775","-0.007634","-0.007634","0.015267","8.911158","-2.783765","-0.265576","-0.42229","0.183032","0.055029","-0.020337","0.057422","-0.459375"
"I","1617445785.288587","7","59","40","44","42","-36","0.69519","-0.236816","-0.678406","-0.019897","-0.022901","0","0.015267","8.968579","-2.732324","-0.215332","-0.367261","0.229687","0.104077","-0.045459","0.132788","-0.42229"
"I","1617445785.2788055","7","59","43","45","44","-33","0.695251","-0.236389","-0.678467","-0.019775","-0.030534","0","0.007634","9.026001","-2.69165","-0.168677","-0.311035","0.265576","0.14834","-0.069385","0.196191","-0.38042"
"I","1617445785.268528","7","60","44","41","47","-35","0.695312","-0.236023","-0.678589","-0.01947","-0.030534","0","0.007634","9.059497","-2.690454","-0.131592","-0.277539","0.266772","0.185425","-0.101685","0.220117","-0.350513"
"I","1617445785.258665","7","59","40","42","44","-35","0.695374","-0.235779","-0.678589","-0.019104","-0.022901","-0.015267","0","9.041553","-2.764624","-0.118433","-0.294287","0.193799","0.196191","-0.13877","0.154321","-0.344531"
"I","1617445785.2486122","7","56","43","44","46","-34","0.695496","-0.235779","-0.678467","-0.018921","-0.007634","-0.015267","-0.007634","9.014038","-2.893823","-0.132788","-0.321802","0.068188","0.178247","-0.16748","0.028711","-0.332568"
"I","1617445785.238731","7","60","41","45","45","-35","0.695557","-0.235901","-0.678406","-0.018921","0.007634","-0.007634","-0.007634","9.040357","-3.0302","-0.13877","-0.295483","-0.0646","0.171069","-0.204565","-0.082544","-0.266772"
"I","1617445785.2288077","7","59","42","44","43","-33","0.695557","-0.236023","-0.678345","-0.018982","0.007634","-0.007634","-0.007634","9.065478","-3.13667","-0.13877","-0.269165","-0.171069","0.171069","-0.240454","-0.169873","-0.209351"
"I","1617445785.2186809","7","57","43","44","46","-33","0.695557","-0.236084","-0.678345","-0.019104","-0.007634","-0.007634","-0.007634","9.104956","-3.177344","-0.101685","-0.230884","-0.211743","0.208154","-0.285913","-0.181836","-0.161499"
"I","1617445785.208742","7","59","43","48","46","-33","0.695618","-0.235901","-0.678284","-0.019104","-0.022901","-0.015267","0","9.102564","-3.149829","-0.047852","-0.233276","-0.186621","0.259595","-0.325391","-0.141162","-0.173462"
"I","1617445785.1986167","7","61","39","42","44","-36","0.695801","-0.235474","-0.678284","-0.019043","-0.038168","-0.015267","0","9.095386","-3.082837","0.017944","-0.24165","-0.124414","0.321802","-0.362476","-0.066992","-0.202173"
"I","1617445785.1886804","7","58","40","44","44","-33","0.695984","-0.234924","-0.678284","-0.01886","-0.045802","-0.015267","0","9.083423","-2.981152","0.107666","-0.256006","-0.026318","0.405542","-0.407935","0.044263","-0.247632"
"I","1617445785.178577","7","59","40","45","43","-36","0.696167","-0.234314","-0.678345","-0.018494","-0.045802","-0.007634","0","9.03916","-2.88186","0.169873","-0.301465","0.069385","0.46416","-0.434253","0.136377","-0.321802"
"I","1617445785.1686418","7","58","41","42","42","-38","0.696228","-0.233948","-0.678406","-0.018188","-0.022901","-0.007634","0","9.000879","-2.824439","0.187817","-0.339746","0.12561","0.479712","-0.43186","0.18064","-0.375635"
"I","1617445785.1587152","7","60","40","41","46","-35","0.696167","-0.233826","-0.678528","-0.018005","0","-0.007634","0","8.925512","-2.829224","0.13877","-0.415112","0.120825","0.433057","-0.395972","0.137573","-0.44502"
"I","1617445785.1486068","7","59","41","44","44","-35","0.695984","-0.23407","-0.67865","-0.018127","0.030534","-0.007634","-0.007634","8.847754","-2.866309","0.0323","-0.492871","0.084937","0.331372","-0.319409","0.046655","-0.504834"
"I","1617445785.138686","7","57","43","42","42","-37","0.695618","-0.234558","-0.678772","-0.018494","0.045802","0.007634","-0.007634","8.825025","-2.917749","-0.10647","-0.514404","0.033496","0.202173","-0.216528","-0.049048","-0.50603"
"I","1617445785.1287944","7","59","41","44","46","-33","0.695068","-0.235229","-0.679077","-0.018982","0.053435","0.030534","-0.007634","8.876465","-2.92373","-0.253613","-0.461768","0.027515","0.069385","-0.089722","-0.086133","-0.449805"
"I","1617445785.1186464","7","59","42","43","45","-36","0.694397","-0.23584","-0.679626","-0.01947","0.045802","0.045802","-0.007634","8.948242","-2.893823","-0.394775","-0.391187","0.056226","-0.05144","0.037085","-0.082544","-0.387598"
"I","1617445785.1087997","7","57","44","45","43","-31","0.693604","-0.236389","-0.680176","-0.019775","0.038168","0.053435","-0.007634","8.998487","-2.836401","-0.532349","-0.339746","0.112451","-0.168677","0.171069","-0.059814","-0.350513"
"I","1617445785.0985682","7","58","43","45","47","-35","0.692871","-0.236816","-0.680786","-0.019958","0.022901","0.045802","-0.007634","9.004468","-2.761035","-0.667529","-0.332568","0.187817","-0.283521","0.30625","-0.031104","-0.361279"
"I","1617445785.0888648","7","57","40","43","46","-36","0.692261","-0.237122","-0.681274","-0.019897","0.007634","0.038168","-0.007634","8.960205","-2.67251","-0.759644","-0.375635","0.278735","-0.360083","0.406738","0.007178","-0.427075"
"I","1617445785.0786538","7","59","43","44","47","-36","0.691956","-0.237244","-0.68158","-0.019775","0","0.022901","-0.007634","8.883642","-2.60791","-0.814673","-0.451001","0.344531","-0.405542","0.467749","0.027515","-0.515601"
"I","1617445785.0688183","7","59","41","42","45","-37","0.691895","-0.237427","-0.68158","-0.019531","0","-0.007634","-0.007634","8.740088","-2.587573","-0.838599","-0.593359","0.37085","-0.428271","0.488086","0","-0.659155"
"I","1617445785.0588431","7","57","42","45","44","-35","0.692017","-0.23761","-0.681396","-0.01947","0.015267","-0.007634","-0.015267","8.618067","-2.625854","-0.836206","-0.714185","0.336157","-0.429468","0.467749","-0.065796","-0.763232"
"I","1617445785.0486395","7","56","43","45","42","-35","0.692261","-0.237915","-0.68103","-0.019531","0.030534","-0.007634","-0.015267","8.604907","-2.697632","-0.775195","-0.726147","0.269165","-0.374438","0.391187","-0.110059","-0.757251"
"I","1617445785.0386572","7","56","43","43","45","-34","0.692322","-0.238464","-0.680786","-0.019653","0.038168","0","-0.022901","8.625244","-2.790942","-0.692651","-0.703418","0.181836","-0.294287","0.287109","-0.153125","-0.711792"
"I","1617445785.0288556","7","59","43","44","46","-33","0.692322","-0.239136","-0.680542","-0.019958","0.045802","0","-0.022901","8.679077","-2.857934","-0.5802","-0.648389","0.119629","-0.181836","0.163892","-0.151929","-0.645996"
"I","1617445785.0186915","7","58","41","43","44","-35","0.6922","-0.239746","-0.68042","-0.020264","0.038168","0","-0.022901","8.729321","-2.865112","-0.460571","-0.596948","0.117236","-0.058618","0.05144","-0.094507","-0.600537"
"I","1617445785.0090363","7","59","42","44","45","-33","0.692078","-0.240234","-0.680359","-0.020569","0.030534","0","-0.015267","8.780762","-2.835205","-0.352905","-0.544312","0.14834","0.050244","-0.033496","-0.013159","-0.564648"
"I","1617445784.9987154","7","56","42","42","45","-36","0.692017","-0.240601","-0.680298","-0.020874","0.015267","-0.007634","-0.007634","8.823828","-2.786157","-0.266772","-0.501245","0.198584","0.137573","-0.093311","0.075366","-0.543115"
"I","1617445784.9890275","7","56","42","43","44","-33","0.691956","-0.240845","-0.680298","-0.021118","0.007634","-0.015267","0","8.859716","-2.719165","-0.198584","-0.465356","0.265576","0.208154","-0.132788","0.169873","-0.532349"
"I","1617445784.978705","7","59","42","44","48","-35","0.692017","-0.240845","-0.680176","-0.021179","-0.007634","-0.022901","0","8.856128","-2.628247","-0.143555","-0.468945","0.355298","0.260791","-0.149536","0.267969","-0.564648"
"I","1617445784.9687033","7","57","40","42","43","-37","0.692261","-0.240723","-0.679993","-0.02124","-0.015267","-0.038168","0","8.783154","-2.569629","-0.129199","-0.543115","0.41272","0.269165","-0.143555","0.299072","-0.653174"
"I","1617445784.958809","7","57","41","45","47","-33","0.692627","-0.240601","-0.679626","-0.02124","-0.015267","-0.038168","0","8.740088","-2.546899","-0.128003","-0.586182","0.435449","0.259595","-0.130396","0.303857","-0.699829"
"I","1617445784.9487877","7","55","41","44","47","-35","0.692932","-0.24054","-0.679321","-0.02124","0","-0.030534","0","8.754443","-2.588769","-0.153125","-0.571826","0.394775","0.226099","-0.112451","0.259595","-0.672314"
"I","1617445784.9387498","7","57","41","42","47","-37","0.693054","-0.240784","-0.679138","-0.021301","0.015267","-0.007634","-0.007634","8.821436","-2.690454","-0.211743","-0.503638","0.29668","0.163892","-0.084937","0.171069","-0.575415"
"I","1617445784.9286838","7","56","43","45","42","-35","0.692932","-0.241211","-0.679138","-0.021423","0.030534","0.007634","-0.015267","8.908765","-2.810083","-0.283521","-0.415112","0.18064","0.095703","-0.056226","0.069385","-0.453394"
"I","1617445784.9195387","7","57","42","45","46","-35","0.692566","-0.24176","-0.679321","-0.021606","0.030534","0.015267","-0.015267","8.982935","-2.899805","-0.354102","-0.339746","0.093311","0.035889","-0.025122","-0.005981","-0.352905"
"I","1617445784.908598","7","56","41","43","46","-37","0.692139","-0.242249","-0.679565","-0.021729","0.022901","0.022901","-0.015267","9.049927","-2.958423","-0.423486","-0.271558","0.038281","-0.021533","0.013159","-0.055029","-0.267969"
"I","1617445784.8990314","7","56","41","42","46","-35","0.691711","-0.242493","-0.679932","-0.02179","0","0.030534","-0.007634","9.112134","-2.954834","-0.490479","-0.209351","0.04187","-0.076563","0.070581","-0.052637","-0.208154"
"I","1617445784.889359","7","58","41","41","43","-34","0.691406","-0.242432","-0.680237","-0.021606","-0.030534","0.015267","0","9.114527","-2.877075","-0.540723","-0.205762","0.119629","-0.118433","0.137573","0","-0.226099"
"I","1617445783.8806577","7","57","43","45","48","-32","0.694519","-0.249817","-0.674438","-0.019775","0.015267","-0.038168","-0.015267","8.527148","-2.939282","-0.288306","-0.750073","0.19978","0.049048","-0.039478","-0.038281","-0.775195"
"I","1617445783.8705864","7","60","40","42","46","-35","0.694702","-0.250183","-0.674072","-0.02002","0.030534","-0.022901","-0.022901","8.613281","-3.026611","-0.282324","-0.662744","0.114844","0.050244","-0.063403","-0.084937","-0.665137"
"I","1617445783.8604183","7","59","44","46","45","-37","0.694763","-0.250671","-0.673828","-0.020325","0.022901","-0.015267","-0.015267","8.70061","-3.05293","-0.27395","-0.574219","0.092114","0.056226","-0.070581","-0.075366","-0.574219"
"I","1617445783.8507557","7","60","41","44","44","-35","0.694763","-0.251099","-0.673706","-0.020569","0.015267","-0.015267","-0.015267","8.767603","-3.031396","-0.235669","-0.507227","0.11604","0.094507","-0.090918","-0.019141","-0.520386"
"I","1617445783.8407922","7","59","42","44","43","-33","0.694763","-0.251343","-0.673523","-0.020691","0.007634","-0.015267","-0.015267","8.803492","-3.000293","-0.215332","-0.468945","0.14834","0.113647","-0.093311","0.026318","-0.494067"
"I","1617445783.8305917","7","57","43","45","46","-35","0.694885","-0.251526","-0.673401","-0.020691","0","-0.022901","-0.007634","8.805883","-2.969189","-0.214136","-0.466553","0.183032","0.112451","-0.078955","0.057422","-0.503638"
"I","1617445783.8205566","7","59","43","44","47","-35","0.695068","-0.251648","-0.673157","-0.020752","0","-0.030534","-0.007634","8.783154","-2.962012","-0.234473","-0.489282","0.191406","0.087329","-0.055029","0.047852","-0.526367"
"I","1617445783.8107088","7","59","43","47","47","-35","0.695251","-0.25177","-0.672913","-0.020874","0.007634","-0.022901","-0.007634","8.792725","-2.976367","-0.26438","-0.479712","0.178247","0.052637","-0.027515","0.026318","-0.512012"
"I","1617445783.8004923","7","59","43","43","48","-32","0.695435","-0.252014","-0.672668","-0.020996","0.015267","-0.030534","-0.007634","8.780762","-3.000293","-0.312231","-0.491675","0.15791","0","0.010767","-0.014355","-0.515601"
"I","1617445783.7906318","7","59","43","43","47","-31","0.695557","-0.252319","-0.672363","-0.021362","0.030534","-0.022901","0","8.76521","-3.045752","-0.373242","-0.50603","0.112451","-0.0646","0.052637","-0.082544","-0.512012"
"I","1617445783.780751","7","59","40","44","48","-36","0.695618","-0.252686","-0.67218","-0.02179","0.030534","-0.007634","0","8.80708","-3.074463","-0.41272","-0.465356","0.082544","-0.105273","0.082544","-0.111255","-0.462964"
"I","1617445783.7705626","7","59","42","42","44","-37","0.695557","-0.252991","-0.672119","-0.022217","0.022901","0","0","8.857325","-3.075659","-0.411523","-0.415112","0.080151","-0.102881","0.084937","-0.096899","-0.415112"
"I","1617445783.7606325","7","58","42","44","47","-35","0.695496","-0.253113","-0.672119","-0.022583","0.007634","0","0.007634","8.874072","-3.029004","-0.391187","-0.399561","0.123218","-0.081348","0.082544","-0.046655","-0.415112"
"I","1617445783.7507272","7","57","43","44","46","-37","0.695496","-0.253113","-0.672119","-0.022827","0","0","0.007634","8.883642","-2.977563","-0.34812","-0.391187","0.171069","-0.038281","0.061011","0.013159","-0.423486"
"I","1617445783.7405455","7","57","43","43","45","-35","0.695496","-0.25293","-0.672119","-0.022949","-0.007634","-0.007634","0.007634","8.883642","-2.948853","-0.29668","-0.391187","0.196191","0.010767","0.025122","0.053833","-0.433057"
"I","1617445783.7305818","7","59","41","42","43","-36","0.695618","-0.252686","-0.672119","-0.023071","-0.015267","-0.007634","0.015267","8.889624","-2.930908","-0.234473","-0.387598","0.209351","0.070581","-0.023926","0.089722","-0.435449"
"I","1617445783.7207866","7","56","42","41","44","-38","0.695679","-0.25238","-0.672119","-0.023132","-0.015267","-0.015267","0.015267","8.882446","-2.906982","-0.186621","-0.395972","0.228491","0.11604","-0.059814","0.120825","-0.451001"
"I","1617445783.7105958","7","59","41","46","43","-35","0.695801","-0.252075","-0.672119","-0.023254","-0.015267","-0.015267","0.015267","8.865698","-2.898608","-0.161499","-0.415112","0.23208","0.137573","-0.080151","0.126807","-0.471338"
"I","1617445783.70076","7","57","32","45","48","-35","0.695923","-0.251831","-0.67218","-0.023438","-0.007634","-0.015267","0.015267","8.860913","-2.893823","-0.155518","-0.42229","0.23208","0.141162","-0.08374","0.126807","-0.477319"
"I","1617445783.6906242","7","59","43","42","46","-36","0.695923","-0.251587","-0.67218","-0.023743","-0.007634","-0.007634","0.015267","8.860913","-2.87229","-0.181836","-0.424683","0.246436","0.113647","-0.053833","0.128003","-0.483301"
"I","1617445783.680663","7","58","42","43","42","-35","0.695923","-0.251343","-0.672302","-0.023987","-0.007634","0","0.015267","8.883642","-2.842383","-0.191406","-0.404346","0.269165","0.105273","-0.034692","0.151929","-0.471338"
"I","1617445783.6705964","7","57","41","43","46","-35","0.695801","-0.25116","-0.672485","-0.024109","-0.007634","0.007634","0.015267","8.937475","-2.811279","-0.196191","-0.351709","0.295483","0.102881","-0.017944","0.189014","-0.429468"
"I","1617445783.6607263","7","60","42","44","42","-33","0.695618","-0.250977","-0.672729","-0.024109","-0.007634","0.015267","0.007634","8.959009","-2.789746","-0.216528","-0.331372","0.313428","0.087329","0.003589","0.205762","-0.415112"
"I","1617445783.6507058","7","57","43","43","47","-35","0.695435","-0.250916","-0.672974","-0.023987","-0.007634","0.015267","0","8.941065","-2.800513","-0.242847","-0.349316","0.302661","0.066992","0.016748","0.183032","-0.428271"
"I","1617445783.6411617","7","61","44","46","45","-31","0.69519","-0.250916","-0.673157","-0.023865","-0.007634","0.015267","0","8.933887","-2.832813","-0.275146","-0.355298","0.270361","0.040674","0.028711","0.142358","-0.423486"
"I","1617445783.6306815","7","59","43","43","46","-33","0.695007","-0.250916","-0.673401","-0.023743","-0.015267","0.015267","-0.007634","8.936279","-2.856738","-0.290698","-0.352905","0.247632","0.029907","0.031104","0.119629","-0.413916"
"I","1617445783.6207447","7","57","41","45","44","-36","0.694824","-0.250916","-0.673584","-0.023438","-0.022901","0.015267","-0.007634","8.92312","-2.853149","-0.30625","-0.364868","0.253613","0.020337","0.040674","0.117236","-0.425879"
"I","1617445783.6105988","7","59","42","44","47","-36","0.694763","-0.250793","-0.673706","-0.023071","-0.022901","0.007634","-0.007634","8.890821","-2.850757","-0.317017","-0.395972","0.259595","0.010767","0.049048","0.108862","-0.456982"
"I","1617445783.600737","7","57","43","43","46","-35","0.694702","-0.250671","-0.673828","-0.022705","-0.022901","0.007634","-0.007634","8.854932","-2.886646","-0.336157","-0.430664","0.226099","-0.004785","0.047852","0.063403","-0.479712"
"I","1617445783.5906923","7","59","42","44","44","-33","0.694702","-0.250671","-0.673889","-0.022278","-0.015267","0.007634","-0.022901","8.853735","-2.942871","-0.358887","-0.430664","0.175854","-0.026318","0.049048","0.010767","-0.462964"
"I","1617445783.5807834","7","59","44","43","46","-38","0.69458","-0.250732","-0.67395","-0.021851","-0.007634","0.015267","-0.030534","8.858521","-3.006274","-0.373242","-0.423486","0.118433","-0.038281","0.039478","-0.040674","-0.436646"
"I","1617445783.5706637","7","59","43","42","47","-36","0.694458","-0.251038","-0.674011","-0.021423","0","0.015267","-0.038168","8.84895","-3.087622","-0.393579","-0.430664","0.045459","-0.053833","0.027515","-0.112451","-0.419897"
"I","1617445783.5608733","7","59","41","44","46","-35","0.694275","-0.251526","-0.674011","-0.020996","0.015267","0.015267","-0.045802","8.836987","-3.198877","-0.418701","-0.437842","-0.052637","-0.07417","0.00957","-0.209351","-0.394775"
"I","1617445783.5508482","7","59","43","42","45","-37","0.694031","-0.252197","-0.674011","-0.02063","0.022901","0.007634","-0.045802","8.832202","-3.325684","-0.448608","-0.437842","-0.16748","-0.096899","-0.010767","-0.318213","-0.356494"
"I","1617445783.540747","7","60","42","45","47","-33","0.693848","-0.25293","-0.67395","-0.020508","0.022901","0.007634","-0.045802","8.83938","-3.404639","-0.441431","-0.427075","-0.235669","-0.084937","-0.046655","-0.37085","-0.324194"
"I","1617445783.5306609","7","57","42","46","44","-35","0.693726","-0.253418","-0.673889","-0.020386","0","0","-0.038168","8.83938","-3.383106","-0.391187","-0.424683","-0.205762","-0.031104","-0.084937","-0.322998","-0.332568"
"I","1617445783.5207424","7","58","42","44","48","-35","0.693848","-0.253601","-0.673706","-0.020203","-0.015267","-0.022901","-0.030534","8.798706","-3.273047","-0.305054","-0.462964","-0.090918","0.050244","-0.122021","-0.204565","-0.409131"
"I","1617445783.5109413","7","59","42","44","45","-35","0.694153","-0.253662","-0.673401","-0.02002","-0.015267","-0.038168","-0.022901","8.687451","-3.174951","-0.217725","-0.573022","0.011963","0.130396","-0.168677","-0.119629","-0.549097"
"I","1617445783.5008063","7","56","43","40","45","-35","0.69458","-0.253601","-0.672974","-0.019897","-0.007634","-0.038168","-0.015267","8.609693","-3.13667","-0.16748","-0.650781","0.052637","0.168677","-0.197388","-0.093311","-0.637622"
"I","1617445783.490905","7","56","43","44","44","-36","0.694946","-0.253662","-0.672546","-0.019897","0","-0.030534","-0.015267","8.58816","-3.119922","-0.128003","-0.671118","0.071777","0.197388","-0.218921","-0.072974","-0.66394"
"I","1617445783.4807286","7","57","42","42","43","-37","0.69519","-0.253845","-0.672241","-0.019958","0.015267","-0.022901","-0.015267","8.590551","-3.125903","-0.099292","-0.667529","0.069385","0.220117","-0.240454","-0.0646","-0.660352"
"I","1617445783.4706104","7","59","42","42","47","-34","0.695251","-0.254272","-0.671997","-0.020142","0.030534","-0.015267","-0.015267","8.6073","-3.166577","-0.086133","-0.649585","0.0323","0.230884","-0.263184","-0.087329","-0.631641"
"I","1617445783.460639","7","59","40","43","43","-35","0.695129","-0.254761","-0.671936","-0.020508","0.038168","-0.007634","-0.015267","8.620459","-3.179736","-0.08374","-0.636426","0.020337","0.236865","-0.271558","-0.090918","-0.614893"
"I","1617445783.4506364","7","57","42","46","47","-35","0.694946","-0.255188","-0.671936","-0.020935","0.030534","0","-0.007634","8.647974","-3.129492","-0.077759","-0.608911","0.070581","0.247632","-0.260791","-0.034692","-0.605322"
"I","1617445783.440934","7","60","43","44","44","-35","0.694763","-0.255432","-0.672058","-0.021423","0.015267","0","0","8.69104","-3.027808","-0.065796","-0.567041","0.16748","0.26438","-0.235669","0.068188","-0.598145"
"I","1617445783.4306858","7","59","41","44","46","-35","0.69458","-0.255493","-0.67218","-0.021729","0.007634","-0.015267","0.007634","8.677881","-2.902197","-0.088525","-0.581396","0.289502","0.246436","-0.174658","0.163892","-0.651978"
"I","1617445783.4206474","7","56","43","38","45","-35","0.694519","-0.255493","-0.672241","-0.022034","0.007634","-0.015267","0.015267","8.624048","-2.834009","-0.173462","-0.636426","0.352905","0.162695","-0.077759","0.169873","-0.721362"
"I","1617445783.4107463","7","57","42","46","47","-36","0.694458","-0.255554","-0.672302","-0.0224","0.015267","-0.007634","0.015267","8.640796","-2.831616","-0.26438","-0.62207","0.350513","0.072974","0.004785","0.137573","-0.703418"
"I","1617445783.4010792","7","59","42","45","47","-35","0.694275","-0.255737","-0.672363","-0.022705","0.030534","0","0.007634","8.677881","-2.869897","-0.350513","-0.584985","0.309839","-0.007178","0.066992","0.082544","-0.653174"
"I","1617445783.3910046","7","60","42","45","43","-37","0.694031","-0.256165","-0.672485","-0.023071","0.038168","0.015267","0","8.720947","-2.958423","-0.424683","-0.541919","0.221313","-0.07417","0.099292","-0.005981","-0.581396"
"I","1617445783.3810174","7","58","46","44","47","-33","0.693665","-0.256653","-0.672668","-0.023376","0.045802","0.022901","-0.007634","8.80708","-3.060107","-0.447412","-0.455786","0.120825","-0.087329","0.082544","-0.070581","-0.466553"
"I","1617445783.3709457","7","58","42","46","43","-35","0.693176","-0.257263","-0.672913","-0.023682","0.045802","0.022901","-0.007634","8.892016","-3.14624","-0.459375","-0.369653","0.035889","-0.087329","0.058618","-0.118433","-0.35769"
"I","1617445783.3614912","7","56","41","44","43","-38","0.692749","-0.257751","-0.673157","-0.024048","0.030534","0.022901","0","8.961401","-3.189307","-0.436646","-0.299072","-0.005981","-0.052637","0.017944","-0.118433","-0.277539"
"I","1617445783.3507445","7","59","41","42","46","-34","0.692383","-0.257935","-0.673401","-0.024475","0.007634","0.007634","0.007634","8.991308","-3.130688","-0.376831","-0.270361","0.045459","0.014355","-0.020337","-0.039478","-0.270361"
"I","1617445783.341569","7","56","43","46","46","-34","0.692322","-0.257812","-0.673523","-0.02478","-0.007634","-0.015267","0.022901","8.912354","-3.014648","-0.332568","-0.351709","0.155518","0.061011","-0.028711","0.047852","-0.385205"
"I","1617445783.3308115","7","58","41","42","45","-33","0.692505","-0.257385","-0.673462","-0.025085","-0.022901","-0.022901","0.030534","8.835791","-2.884253","-0.295483","-0.430664","0.277539","0.092114","-0.017944","0.141162","-0.500049"
