"Alphabet","timestamp","user_id","flex_1","flex_2","flex_3","flex_4","flex_5","Qw","Qx","Qy","Qz","GYRx","GYRy","GYRz","ACCx","ACCy","ACCz","ACCx_body","ACCy_body","ACCz_body","ACCx_world","ACCy_world","ACCz_world"
"J","1617445956.5298808","7","45","49","50","25","-15","0.437439","0.691467","-0.247742","0.518677","0.038168","-0.083969","0","8.963794","2.886646","-0.791943","-0.189014","-0.522778","-0.015552","0.343335","0.250024","-0.356494"
"J","1617445956.519986","7","51","52","52","25","-23","0.438416","0.69043","-0.247314","0.519409","0.022901","-0.114504","0.007634","8.669507","2.716773","-0.687866","-0.484497","-0.697437","0.055029","0.418701","0.240454","-0.698633"
"J","1617445956.5097947","7","49","53","52","26","-24","0.439453","0.689331","-0.246277","0.520569","-0.007634","-0.152672","0.015267","8.257983","2.618677","-0.568237","-0.896021","-0.805103","0.133984","0.406738","0.174658","-1.126904"
"J","1617445956.4998016","7","51","53","53","27","-24","0.440247","0.688171","-0.244812","0.522095","-0.038168","-0.160305","0.015267","7.790235","2.5146","-0.436646","-1.36377","-0.917554","0.220117","0.384009","0.094507","-1.609009"
"J","1617445956.4897158","7","49","49","52","26","-25","0.440613","0.687195","-0.243042","0.523926","-0.068702","-0.145038","0.007634","7.400244","2.387793","-0.256006","-1.754956","-1.050342","0.35769","0.43186","-0.013159","-2.030102"
"J","1617445956.479609","7","48","49","54","30","-23","0.440613","0.686523","-0.241394","0.525574","-0.083969","-0.114504","0","7.074853","2.228687","-0.068188","-2.081543","-1.213037","0.512012","0.534741","-0.112451","-2.400952"
"J","1617445956.4698029","7","51","51","53","25","-24","0.440186","0.686218","-0.239868","0.526978","-0.091603","-0.083969","0.007634","6.806885","2.034888","0.132788","-2.349512","-1.406836","0.690259","0.695044","-0.208154","-2.728735"
"J","1617445956.4599671","7","49","52","53","27","-25","0.439575","0.686401","-0.238525","0.527893","-0.083969","-0.053435","0.007634","6.549683","1.777686","0.301465","-2.606714","-1.667627","0.850561","0.900806","-0.250024","-3.069678"
"J","1617445956.4497693","7","43","53","52","26","-24","0.438904","0.686768","-0.237427","0.528442","-0.068702","-0.038168","0.007634","6.225488","1.417603","0.409131","-2.929712","-2.030102","0.958228","1.136475","-0.202173","-3.505127"
"J","1617445956.439689","7","50","49","52","30","-23","0.438354","0.687195","-0.236511","0.528748","-0.061069","-0.038168","0.022901","5.817554","0.97019","0.44502","-3.335254","-2.4823","0.997705","1.378125","-0.061011","-4.04585"
"J","1617445956.4298124","7","49","50","49","25","-24","0.438049","0.687744","-0.235352","0.528809","-0.076336","-0.038168","0.045802","5.385694","0.510815","0.440234","-3.762329","-2.953638","0.996509","1.601831","0.118433","-4.612891"
"J","1617445956.4196873","7","49","29","53","25","-24","0.437805","0.688599","-0.233643","0.528687","-0.114504","-0.022901","0.068702","4.940674","0.147144","0.393579","-4.198975","-3.340039","0.957031","1.728638","0.288306","-5.159595"
"J","1617445956.4097023","7","47","52","52","28","-24","0.437317","0.690002","-0.231262","0.528198","-0.175573","0.022901","0.091603","4.610498","-0.081348","0.327783","-4.514795","-3.60083","0.90918","1.778882","0.421094","-5.550781"
"J","1617445956.3998797","7","49","53","52","26","-25","0.436096","0.692505","-0.228516","0.527222","-0.251908","0.099237","0.10687","4.42627","-0.153125","0.220117","-4.682275","-3.710889","0.843384","1.738208","0.527563","-5.752954"
"J","1617445956.389733","7","48","52","52","27","-23","0.434021","0.696228","-0.225403","0.525391","-0.305344","0.175573","0.122137","4.322192","-0.080151","0.040674","-4.763623","-3.680981","0.736914","1.579102","0.62207","-5.821143"
"J","1617445956.3803766","7","50","48","37","25","-23","0.431274","0.700989","-0.222107","0.522705","-0.335878","0.251908","0.183206","4.270752","0.08374","-0.238062","-4.787549","-3.566138","0.559863","1.321899","0.750073","-5.798413"
"J","1617445956.369775","7","51","53","52","26","-23","0.428467","0.706726","-0.218506","0.518799","-0.343511","0.335878","0.259542","4.377222","0.340942","-0.552686","-4.643994","-3.371143","0.372046","1.041968","0.870898","-5.58667"
"J","1617445956.359874","7","48","49","52","27","-23","0.426086","0.713318","-0.214478","0.513367","-0.320611","0.389313","0.343511","4.512403","0.665137","-0.91875","-4.45498","-3.133081","0.155518","0.717773","0.991724","-5.307935"
"J","1617445956.3505635","7","49","51","52","27","-24","0.424561","0.720337","-0.209778","0.506714","-0.305344","0.40458","0.450382","4.536328","1.071875","-1.39248","-4.362866","-2.838794","-0.15791","0.253613","1.136475","-5.074658"
"J","1617445956.340405","7","46","53","52","27","-18","0.424194","0.727417","-0.203979","0.499207","-0.305344","0.40458","0.557252","4.453784","1.643701","-1.882959","-4.359277","-2.40813","-0.495264","-0.362476","1.193897","-4.844971"
"J","1617445956.330486","7","48","52","52","27","-26","0.424622","0.734741","-0.196716","0.490967","-0.343511","0.419847","0.664122","4.373633","2.495459","-2.29209","-4.332959","-1.726245","-0.75127","-1.105371","1.028809","-4.475317"
"J","1617445956.320444","7","49","52","53","25","-23","0.425232","0.742493","-0.188049","0.482056","-0.396947","0.435115","0.740458","4.273145","3.619971","-2.613892","-4.309033","-0.790747","-0.913965","-1.96311","0.628052","-3.970483"
"J","1617445956.3105166","7","51","52","52","28","-25","0.425415","0.750671","-0.178589","0.472839","-0.435115","0.458015","0.801527","4.146338","4.837793","-2.898608","-4.299463","0.233276","-1.027612","-2.831616","0.118433","-3.398657"
"J","1617445956.3005571","7","50","52","54","25","-23","0.425171","0.759033","-0.168701","0.463196","-0.435115","0.496183","0.854962","4.124804","5.910864","-3.160596","-4.17146","1.116138","-1.10896","-3.489575","-0.333765","-2.752661"
"J","1617445956.2904534","7","49","56","49","27","-25","0.424927","0.767578","-0.158813","0.452698","-0.396947","0.534351","0.900763","4.197778","6.763818","-3.435742","-3.934595","1.780078","-1.191504","-3.908276","-0.651978","-2.086328"
"J","1617445956.280552","7","51","52","54","-4","-24","0.425171","0.77594","-0.148865","0.441406","-0.358779","0.549618","0.946565","4.243237","7.501929","-3.741992","-3.709692","2.323193","-1.305151","-4.23606","-0.881665","-1.458276"
"J","1617445956.2705648","7","48","49","53","28","-25","0.426086","0.783936","-0.138672","0.429626","-0.328244","0.541985","1","4.250415","8.273535","-3.980054","-3.508716","2.893823","-1.356592","-4.51958","-1.184326","-0.825439"
"J","1617445956.2606068","7","51","51","51","25","-25","0.427612","0.791443","-0.12793","0.417542","-0.305344","0.519084","1.038168","4.219312","9.144434","-4.104468","-3.329273","3.557764","-1.305151","-4.769605","-1.631738","-0.163892"
"J","1617445956.250483","7","48","53","52","29","-24","0.429504","0.79834","-0.117004","0.405396","-0.259542","0.503817","1.053435","4.197778","9.961499","-4.09729","-3.129492","4.170264","-1.135278","-4.866504","-2.135376","0.466553"
"J","1617445956.2407117","7","48","49","53","28","-24","0.43158","0.80481","-0.106201","0.393311","-0.221374","0.473282","1.045802","4.127197","10.639795","-4.057813","-2.975171","4.649976","-0.940283","-4.868896","-2.581592","0.984546"
"J","1617445956.2304242","7","50","49","52","26","-23","0.433777","0.810608","-0.09552","0.38147","-0.198473","0.435115","1.030534","3.934595","11.170947","-4.067383","-2.938086","4.99331","-0.807495","-4.886841","-2.912964","1.355396"
"J","1617445956.220626","7","49","54","52","28","-15","0.435913","0.815857","-0.085083","0.370056","-0.167939","0.419847","1.015267","3.709692","11.58606","-4.124804","-2.934497","5.232568","-0.734522","-4.890429","-3.137866","1.655664"
"J","1617445956.2105477","7","49","52","52","28","-23","0.438232","0.820618","-0.074951","0.358887","-0.137405","0.40458","1","3.524268","11.873169","-4.204956","-2.891431","5.351001","-0.693848","-4.817456","-3.251514","1.915259"
"J","1617445956.2007055","7","51","53","54","31","-25","0.440796","0.824829","-0.064941","0.3479","-0.10687","0.389313","0.992366","3.313721","12.180615","-4.280322","-2.871094","5.496948","-0.661548","-4.767212","-3.375928","2.180835"
"J","1617445956.1906211","7","52","52","51","27","-23","0.443542","0.828552","-0.055176","0.337036","-0.099237","0.40458","0.977099","3.216821","12.532324","-4.285108","-2.735913","5.69314","-0.568237","-4.609302","-3.545801","2.525366"
"J","1617445956.1806183","7","51","52","51","26","-23","0.446167","0.832153","-0.045715","0.325989","-0.091603","0.412214","0.938931","3.147437","13.008448","-4.19419","-2.568433","6.023315","-0.379224","-4.411914","-3.858032","2.941675"
"J","1617445956.1705084","7","49","53","52","30","-24","0.448547","0.835571","-0.036804","0.315002","-0.076336","0.419847","0.908397","3.024219","13.539599","-4.057813","-2.457178","6.420484","-0.145947","-4.243237","-4.249219","3.347217"
"J","1617445956.1606011","7","49","53","53","27","-23","0.450745","0.838745","-0.028503","0.304016","-0.015267","0.419847","0.885496","2.856738","13.933179","-3.936987","-2.392578","6.692041","0.068188","-4.066186","-4.554273","3.634326"
"J","1617445956.1505752","7","49","52","53","28","-16","0.453491","0.841431","-0.020874","0.292969","0.076336","0.442748","0.870229","2.689258","14.115015","-3.84248","-2.326782","6.755445","0.242847","-3.841284","-4.694238","3.780273"
"J","1617445956.1407874","7","45","53","53","25","-23","0.457336","0.843323","-0.014038","0.281738","0.19084","0.458015","0.877863","2.57561","14.086304","-3.752759","-2.205957","6.603516","0.391187","-3.531445","-4.65835","3.799414"
"J","1617445956.1304953","7","49","53","53","25","-23","0.462708","0.844299","-0.007568","0.27002","0.282443","0.458015","0.885496","2.53374","13.975049","-3.621167","-2.002588","6.35708","0.551489","-3.131885","-4.541113","3.777881"
"J","1617445956.120689","7","50","51","52","26","-23","0.469238","0.844482","-0.00116","0.258057","0.343511","0.427481","0.870229","2.381812","13.961889","-3.460864","-1.899707","6.200366","0.716577","-2.848364","-4.493262","3.774292"
"J","1617445956.110584","7","51","51","53","25","-23","0.476501","0.843872","0.005249","0.24646","0.351145","0.396947","0.847328","2.132983","14.187988","-3.267066","-1.893726","6.280518","0.891235","-2.707202","-4.60332","3.910669"
"J","1617445956.1005774","7","49","49","49","26","-28","0.483459","0.842957","0.011597","0.235352","0.358779","0.358779","0.816794","1.870996","14.666504","-3.006274","-1.906885","6.625049","1.124512","-2.613892","-4.905982","4.226489"
"J","1617445956.090603","7","51","53","52","26","-25","0.490173","0.841858","0.017822","0.224854","0.412214","0.335878","0.801527","1.561157","15.118701","-2.818457","-1.977466","6.951636","1.280029","-2.592358","-5.146436","4.543506"
"J","1617445956.0805178","7","50","50","52","26","-24","0.497314","0.84021","0.023682","0.214783","0.541985","0.328244","0.78626","1.225","15.243115","-2.812476","-2.080347","6.952832","1.23457","-2.619873","-5.051929","4.669116"
"J","1617445956.070536","7","49","52","51","25","-23","0.506042","0.837219","0.028503","0.205017","0.748092","0.381679","0.778626","1.012061","14.881836","-2.991919","-2.068384","6.462354","0.963013","-2.564844","-4.472925","4.511206"
"J","1617445956.0606053","7","52","51","51","27","-16","0.517639","0.83252","0.032104","0.19458","0.969466","0.450382","0.778626","1.039575","14.016919","-3.206055","-1.808789","5.4479","0.599341","-2.25979","-3.485986","4.00398"
"J","1617445956.05054","7","51","41","52","25","-23","0.532349","0.825623","0.034607","0.18335","1.137405","0.48855","0.755725","1.055127","12.827807","-3.397461","-1.550391","4.08772","0.186621","-1.942773","-2.312427","3.164185"
"J","1617445956.0406034","7","51","52","53","27","-24","0.549438","0.816833","0.036255","0.171631","1.183206","0.503817","0.709924","1.089819","11.802588","-3.335254","-1.26687","2.883057","-0.029907","-1.570728","-1.421191","2.327979"
"J","1617445956.0306242","7","51","53","53","25","-23","0.566895","0.80719","0.037598","0.159912","1.068702","0.450382","0.656489","0.92832","11.458056","-2.948853","-1.18313","2.371045","0.049048","-1.390088","-1.169971","1.928418"
"J","1617445956.0207608","7","48","49","55","28","-16","0.582397","0.798096","0.03949","0.149109","0.870229","0.358779","0.618321","0.447412","11.934179","-2.369849","-1.433154","2.708398","0.344531","-1.565942","-1.516895","2.178442"
"J","1617445956.010568","7","51","52","53","24","-24","0.595032","0.790344","0.042114","0.139648","0.740458","0.290076","0.587786","-0.154321","12.869678","-1.685571","-1.825537","3.536231","0.791943","-1.885352","-2.179639","2.855542"
"J","1617445956.000604","7","50","50","52","25","-23","0.605713","0.783447","0.0448","0.131165","0.755725","0.282443","0.580153","-0.699829","13.593432","-1.073071","-2.182031","4.176245","1.197485","-2.156909","-2.716773","3.404639"
"J","1617445955.990518","7","49","51","51","25","-23","0.616333","0.776306","0.047241","0.122986","0.870229","0.305344","0.610687","-1.086231","13.723828","-0.649585","-2.386597","4.231275","1.406836","-2.283716","-2.863916","3.485986"
"J","1617445955.980986","7","51","52","54","26","-17","0.628479","0.767761","0.049255","0.114258","1.007634","0.381679","0.671756","-1.221411","13.355371","-0.346924","-2.33396","3.787451","1.454687","-2.173657","-2.674902","3.164185"
"J","1617445955.970543","7","49","52","51","26","-25","0.64209","0.757751","0.050964","0.103882","1.068702","0.465649","0.70229","-1.075464","12.928296","0.039478","-1.976269","3.287402","1.545605","-1.762134","-2.461963","2.813672"
"J","1617445955.9606829","7","51","52","54","27","-23","0.656189","0.747009","0.052368","0.092102","1.038168","0.51145","0.687023","-1.088623","12.917529","0.441431","-1.76333","3.214429","1.632935","-1.522876","-2.363867","2.861523"
"J","1617445955.950582","7","49","49","53","25","-25","0.669617","0.736389","0.053162","0.079956","1.007634","0.541985","0.664122","-1.232178","13.209424","0.898413","-1.687964","3.460864","1.782471","-1.418799","-2.392578","3.202466"
"J","1617445955.940566","7","49","53","62","26","-25","0.682312","0.725891","0.053467","0.067566","0.977099","0.549618","0.641221","-1.385303","13.475","1.338647","-1.630542","3.696533","1.922436","-1.330273","-2.399756","3.532642"
"J","1617445955.9306917","7","50","53","50","25","-24","0.694336","0.715454","0.053589","0.055298","0.954198","0.541985","0.618321","-1.611401","13.735791","1.774097","-1.65686","3.940576","2.063599","-1.319507","-2.409326","3.868799"
"J","1617445955.920462","7","49","52","51","25","-23","0.705872","0.704956","0.053467","0.043274","0.946565","0.526718","0.59542","-1.815967","13.946338","2.235864","-1.673608","4.147534","2.232275","-1.293188","-2.429663","4.17146"
"J","1617445955.9108503","7","47","49","52","25","-25","0.717041","0.694214","0.053345","0.031677","0.961832","0.51145","0.580153","-2.036084","14.081518","2.629443","-1.716675","4.291089","2.331567","-1.29917","-2.372241","4.41311"
"J","1617445955.900756","7","49","51","52","25","-23","0.728149","0.682983","0.052979","0.020447","0.992366","0.519084","0.580153","-2.203564","14.149707","3.003882","-1.720264","4.380811","2.402148","-1.269263","-2.26936","4.598535"
"J","1617445955.8906765","7","49","48","51","25","-16","0.739319","0.671143","0.052612","0.009094","1.022901","0.534351","0.587786","-2.25979","14.124585","3.379517","-1.616186","4.389184","2.463159","-1.134082","-2.14375","4.695435"
"J","1617445955.880626","7","51","52","52","27","-17","0.750549","0.658752","0.052063","-0.002686","1.045802","0.564885","0.587786","-2.287305","14.116211","3.722852","-1.485791","4.427466","2.481103","-0.97019","-1.964307","4.811475"
"J","1617445955.870664","7","49","51","52","27","-17","0.761719","0.64563","0.051086","-0.014709","1.083969","0.603053","0.572519","-2.306445","14.055201","4.021924","-1.356592","4.429858","2.444019","-0.813477","-1.732227","4.874878"
"J","1617445955.860883","7","49","49","51","23","-17","0.773193","0.631592","0.049438","-0.026794","1.145038","0.641221","0.541985","-2.276538","13.905664","4.282715","-1.195093","4.359277","2.349512","-0.634033","-1.451099","4.840186"
"J","1617445955.8506773","7","50","56","35","26","-23","0.784973","0.616394","0.047058","-0.03894","1.21374","0.671756","0.519084","-2.105469","13.593432","4.572217","-0.910376","4.145142","2.263379","-0.350513","-1.213037","4.639209"
"J","1617445955.8407464","7","49","52","52","26","-23","0.79718","0.599854","0.044373","-0.051086","1.29771","0.664122","0.496183","-1.930811","13.100561","4.837793","-0.636426","3.771899","2.129395","-0.101685","-0.990527","4.262378"
"J","1617445955.8306787","7","51","49","54","25","-24","0.809814","0.581726","0.041748","-0.062866","1.381679","0.641221","0.450382","-1.890137","12.395947","5.065088","-0.509619","3.213233","1.932007","-0.031104","-0.789551","3.698926"
"J","1617445955.8205998","7","49","53","50","28","-17","0.822815","0.562073","0.039185","-0.073669","1.427481","0.603053","0.40458","-1.955933","11.617163","5.334253","-0.512012","2.60791","1.756152","-0.105273","-0.662744","3.112744"
"J","1617445955.810614","7","50","51","50","25","-23","0.835571","0.541626","0.036621","-0.083496","1.412214","0.572519","0.374046","-2.022925","10.907763","5.723047","-0.535937","2.097095","1.699927","-0.19978","-0.657959","2.664136"
"J","1617445955.8008547","7","48","52","52","25","-16","0.847534","0.521362","0.03418","-0.092651","1.343511","0.549618","0.343511","-2.171265","10.430445","6.169263","-0.655566","1.831519","1.720264","-0.355298","-0.647192","2.488281"
"J","1617445955.790624","7","54","52","52","25","-24","0.858337","0.502014","0.031494","-0.101013","1.251908","0.541985","0.290076","-2.318408","10.17085","6.681274","-0.794336","1.787256","1.839893","-0.49646","-0.634033","2.560059"
"J","1617445955.7809024","7","49","53","52","27","-23","0.86792","0.483765","0.028198","-0.108582","1.160305","0.541985","0.236641","-2.536133","10.102661","7.125098","-1.026416","1.933203","1.928418","-0.691455","-0.482104","2.792139"
"J","1617445955.7707412","7","50","51","52","25","-17","0.876526","0.466675","0.024292","-0.115356","1.076336","0.549618","0.19084","-2.744287","10.11582","7.510303","-1.271655","2.152124","1.990625","-0.881665","-0.253613","3.060107"
"J","1617445955.7607045","7","51","52","50","25","-23","0.884338","0.450256","0.019348","-0.121643","1.015267","0.587786","0.167939","-2.832813","10.134961","7.875171","-1.423584","2.37583","2.056421","-0.982153","-0.022729","3.305347"
"J","1617445955.7506857","7","48","52","53","26","-15","0.891418","0.434509","0.013428","-0.127747","0.954198","0.633588","0.145038","-2.728735","10.167261","8.277124","-1.40564","2.609107","2.180835","-0.923535","0.144751","3.557764"
"J","1617445955.7408395","7","51","49","52","25","-23","0.897827","0.419373","0.006592","-0.133728","0.89313","0.656489","0.114504","-2.53374","10.288086","8.682666","-1.31831","2.924927","2.331567","-0.785962","0.339746","3.871192"
"J","1617445955.7307029","7","51","51","52","25","-23","0.903625","0.404846","-0.000793","-0.139465","0.847328","0.664122","0.083969","-2.369849","10.480688","9.06189","-1.27644","3.307739","2.475122","-0.6771","0.606519","4.226489"
"J","1617445955.7207046","7","52","53","54","25","-16","0.908997","0.390625","-0.008484","-0.144836","0.832061","0.664122","0.061069","-2.228687","10.638598","9.396851","-1.270459","3.654663","2.588769","-0.611304","0.896021","4.525561"
"J","1617445955.710851","7","47","52","53","25","-16","0.914185","0.376099","-0.016296","-0.149841","0.877863","0.664122","0.038168","-2.100684","10.631421","9.66123","-1.287207","3.843677","2.639014","-0.598145","1.149634","4.65835"
"J","1617445955.700894","7","49","53","51","25","-17","0.919556","0.360474","-0.023926","-0.15448","0.961832","0.656489","0.022901","-2.009766","10.377808","9.811963","-1.349414","3.807788","2.569629","-0.666333","1.357788","4.541113"
"J","1617445955.690714","7","45","52","53","27","-17","0.925232","0.343079","-0.031494","-0.158813","1.076336","0.664122","0.007634","-1.897314","9.839478","9.886133","-1.399658","3.519482","2.411719","-0.77041","1.44751","4.178638"
"J","1617445955.6808088","7","48","51","50","25","-23","0.931152","0.323669","-0.03894","-0.163025","1.19084","0.671756","0.007634","-1.741797","9.1229","9.91604","-1.417603","3.091211","2.199975","-0.868506","1.446314","3.680981"
"J","1617445955.6706443","7","47","51","52","26","-17","0.937134","0.302612","-0.046265","-0.167236","1.274809","0.687023","0.007634","-1.579102","8.380005","9.913648","-1.436743","2.668921","1.951147","-0.954639","1.443921","3.160596"
"J","1617445955.6607118","7","49","53","54","26","-17","0.942932","0.28009","-0.053772","-0.171509","1.335878","0.725191","-0.007634","-1.397266","7.713672","9.944751","-1.448706","2.355493","1.739404","-1.007275","1.471436","2.735913"
"J","1617445955.6507492","7","51","52","54","26","-17","0.948425","0.25647","-0.062012","-0.175659","1.366412","0.78626","-0.022901","-1.135278","7.088013","10.033277","-1.404443","2.106665","1.597046","-1.003687","1.469043","2.405737"
"J","1617445955.6409416","7","49","49","50","25","-16","0.953247","0.232117","-0.071106","-0.179749","1.381679","0.847328","-0.038168","-0.868506","6.543701","10.167261","-1.378125","1.955933","1.522876","-1.00249","1.501343","2.186816"
"J","1617445955.630767","7","48","51","52","25","-7","0.957458","0.207336","-0.080933","-0.183655","1.374046","0.885496","-0.053435","-0.68667","6.084326","10.265356","-1.458276","1.900903","1.435547","-1.06709","1.643701","1.989429"
"J","1617445955.6208696","7","45","52","52","25","-23","0.960815","0.182556","-0.091431","-0.187317","1.343511","0.916031","-0.061069","-0.58977","5.677588","10.3156","-1.641309","1.903296","1.332666","-1.202271","1.866211","1.777686"
"J","1617445955.6108313","7","49","51","52","26","-23","0.963318","0.158203","-0.102356","-0.190857","1.282443","0.923664","-0.061069","-0.557471","5.366553","10.344312","-1.897314","1.996606","1.240552","-1.368555","2.179639","1.579102"
"J","1617445955.6008506","7","49","49","52","28","-9","0.965027","0.134644","-0.113647","-0.194153","1.206107","0.931298","-0.061069","-0.549097","5.193091","10.376612","-2.18562","2.213135","1.184326","-1.524072","2.595947","1.417603"
"J","1617445955.5909245","7","49","49","51","25","-23","0.96582","0.112122","-0.125305","-0.197083","1.129771","0.938931","-0.076336","-0.539526","5.135669","10.437622","-2.477515","2.528955","1.191504","-1.655664","3.081641","1.306348"
"J","1617445955.581555","7","49","49","50","26","-23","0.965942","0.090393","-0.13739","-0.199524","1.076336","0.954198","-0.091603","-0.520386","5.08064","10.445996","-2.767017","2.831616","1.175952","-1.775293","3.552979","1.126904"
"J","1617445955.5714006","7","49","53","51","26","-23","0.965454","0.06897","-0.150024","-0.201538","1.045802","0.984733","-0.099237","-0.478516","4.922729","10.346704","-3.044556","3.024219","1.080249","-1.887744","3.917847","0.808691"
"J","1617445955.5609674","7","49","51","52","16","27","0.964233","0.047546","-0.163391","-0.203186","1.038168","1.030534","-0.114504","-0.394775","4.623657","10.079931","-3.292187","3.073267","0.846973","-1.970288","4.124804","0.309839"
"J","1617445955.5507517","7","49","52","53","31","-17","0.96228","0.025757","-0.177551","-0.204407","1.045802","1.083969","-0.137405","-0.266772","4.214526","9.645679","-3.512305","3.017041","0.476123","-2.004981","4.184619","-0.34812"
"J","1617445955.5406942","7","55","53","52","29","-23","0.959534","0.00354","-0.192627","-0.2052","1.061069","1.152672","-0.160305","-0.114844","3.708496","9.048731","-3.722852","2.866309","-0.022729","-1.998999","4.093701","-1.144849"
"J","1617445955.5314791","7","48","52","51","26","-23","0.955933","-0.019348","-0.208801","-0.205505","1.076336","1.236641","-0.175573","0.14834","3.097192","8.304639","-3.841284","2.617481","-0.632837","-1.884155","3.794629","-2.013355"
"J","1617445955.5216763","7","51","51","53","26","-23","0.951233","-0.042725","-0.226074","-0.205444","1.083969","1.328244","-0.19084","0.525171","2.435645","7.448096","-3.861621","2.320801","-1.313525","-1.646094","3.322095","-2.875879"
"J","1617445955.5114956","7","48","54","52","25","-23","0.945374","-0.066223","-0.244568","-0.205078","1.083969","1.412214","-0.175573","1.055127","1.784863","6.525757","-3.741992","2.02771","-2.015747","-1.250122","2.71438","-3.639111"
"J","1617445955.501456","7","48","49","54","25","-16","0.938232","-0.089722","-0.264038","-0.204712","1.076336","1.480916","-0.152672","1.705908","1.155615","5.526855","-3.508716","1.745386","-2.747876","-0.710596","1.991821","-4.292285"
"J","1617445955.4914916","7","49","51","50","25","-25","0.929932","-0.112793","-0.284058","-0.204529","1.061069","1.526718","-0.129771","2.422485","0.574219","4.478906","-3.206055","1.490576","-3.489575","-0.075366","1.203467","-4.818652"
"J","1617445955.4814794","7","48","53","53","26","-17","0.920593","-0.135132","-0.304138","-0.204285","1.038168","1.557252","-0.122137","3.099585","0.093311","3.458472","-2.928516","1.313525","-4.170264","0.564648","0.460571","-5.211035"
"J","1617445955.4716003","7","51","52","53","25","-23","0.910461","-0.156799","-0.323975","-0.203857","1.007634","1.564885","-0.129771","3.690552","-0.272754","2.509815","-2.716773","1.229785","-4.750464","1.159204","-0.183032","-5.483789"
"J","1617445955.461595","7","49","53","53","26","-23","0.899658","-0.177734","-0.343262","-0.202881","0.984733","1.549618","-0.145038","4.154712","-0.568237","1.631738","-2.604321","1.199878","-5.23855","1.665234","-0.746484","-5.684766"
"J","1617445955.4516952","7","49","52","52","25","-23","0.888489","-0.197815","-0.361572","-0.201599","0.954198","1.503817","-0.145038","4.446607","-0.814673","0.782373","-2.63064","1.201074","-5.687158","2.073169","-1.252515","-5.901294"
"J","1617445955.4416494","7","49","52","54","26","-7","0.877075","-0.217041","-0.378845","-0.200134","0.923664","1.458015","-0.137405","4.639209","-1.040771","-0.025122","-2.72395","1.203467","-6.087915","2.412915","-1.738208","-6.087915"
"J","1617445955.4316752","7","49","53","50","26","-25","0.865479","-0.235291","-0.395081","-0.198608","0.885496","1.412214","-0.129771","4.781568","-1.27644","-0.757251","-2.835205","1.175952","-6.412109","2.68208","-2.216724","-6.197974"
"J","1617445955.4216616","7","48","51","56","27","-23","0.853882","-0.252502","-0.410339","-0.197021","0.839695","1.358779","-0.122137","4.82583","-1.530054","-1.397266","-3.015845","1.110156","-6.647779","2.834009","-2.668921","-6.27334"
"J","1617445955.4117413","7","48","51","54","26","-24","0.842285","-0.268433","-0.424561","-0.195374","0.78626","1.320611","-0.114504","4.795923","-1.808789","-1.92124","-3.240747","0.996509","-6.774585","2.863916","-3.081641","-6.298462"
"J","1617445955.4017327","7","49","53","51","27","-15","0.830872","-0.283142","-0.438171","-0.193481","0.725191","1.290076","-0.129771","4.823438","-2.06958","-2.26936","-3.385498","0.879272","-6.733911","2.834009","-3.389087","-6.168067"
"J","1617445955.3916736","7","48","49","53","25","-27","0.819702","-0.296753","-0.451233","-0.190918","0.656489","1.259542","-0.167939","4.891626","-2.288501","-2.4823","-3.468042","0.789551","-6.565234","2.768213","-3.574512","-5.941968"
"J","1617445955.381434","7","47","51","50","25","-17","0.808777","-0.309387","-0.463684","-0.187561","0.59542","1.229008","-0.21374","4.984937","-2.452393","-2.619873","-3.502734","0.746484","-6.329566","2.702417","-3.659448","-5.672803"
"J","1617445955.371493","7","48","51","52","28","-23","0.798157","-0.321289","-0.475586","-0.183228","0.541985","1.19084","-0.251908","5.199072","-2.545703","-2.679688","-3.393872","0.771606","-6.023315","2.694043","-3.622363","-5.292383"
"J","1617445955.3617852","7","49","50","50","26","-23","0.787903","-0.33252","-0.486694","-0.178345","0.503817","1.137405","-0.251908","5.4479","-2.635425","-2.745483","-3.22998","0.797925","-5.73501","2.706006","-3.567334","-4.889234"
"J","1617445955.3516438","7","45","49","53","26","-23","0.777893","-0.343079","-0.497131","-0.173401","0.473282","1.099237","-0.229008","5.821143","-2.775391","-2.777783","-2.92373","0.765625","-5.426367","2.715576","-3.500342","-4.352099"
"J","1617445955.3415954","7","51","53","52","27","-23","0.768066","-0.352844","-0.50708","-0.168701","0.450382","1.030534","-0.206107","6.267358","-2.916553","-2.755054","-2.532544","0.717773","-5.074658","2.70481","-3.369946","-3.740796"
"J","1617445955.331803","7","49","52","52","26","-17","0.758667","-0.362","-0.516113","-0.164307","0.435115","0.938931","-0.19084","6.57959","-3.128296","-2.783765","-2.25979","0.592163","-4.79353","2.618677","-3.320899","-3.246728"
"J","1617445955.3215115","7","48","49","53","25","-16","0.750061","-0.370422","-0.523865","-0.160522","0.40458","0.816794","-0.175573","6.739892","-3.387891","-2.825635","-2.125806","0.409131","-4.556665","2.446411","-3.335254","-2.886646"
"J","1617445955.3116777","7","49","51","56","26","-17","0.742432","-0.37793","-0.530334","-0.157349","0.358779","0.70229","-0.160305","6.827222","-3.623559","-2.816064","-2.055225","0.239258","-4.304248","2.231079","-3.31731","-2.610303"
"J","1617445955.3017392","7","48","51","52","25","-23","0.73584","-0.384277","-0.535645","-0.154602","0.305344","0.610687","-0.152672","6.932495","-3.793433","-2.722754","-1.957129","0.12561","-4.00398","2.019336","-3.204858","-2.348315"
"J","1617445955.291477","7","49","53","49","29","-23","0.730347","-0.389648","-0.540039","-0.1521","0.244275","0.526718","-0.152672","7.032983","-3.938184","-2.580395","-1.859033","0.028711","-3.688159","1.801611","-3.055322","-2.115039"
"J","1617445955.2816527","7","49","53","50","26","-17","0.725769","-0.393921","-0.543762","-0.149597","0.175573","0.480916","-0.152672","7.220801","-4.050635","-2.350708","-1.668823","-0.040674","-3.313721","1.591064","-2.812476","-1.821948"
"J","1617445955.271511","7","50","53","54","28","-23","0.721924","-0.397278","-0.547241","-0.146729","0.10687","0.442748","-0.160305","7.495947","-4.061401","-2.06958","-1.388892","-0.013159","-2.905786","1.451099","-2.451196","-1.501343"
"J","1617445955.2616618","7","49","53","53","26","-17","0.718689","-0.399963","-0.550476","-0.143372","0.045802","0.412214","-0.160305","7.816553","-3.97168","-1.73103","-1.061108","0.114844","-2.455981","1.360181","-1.973877","-1.190308"
"J","1617445955.2520185","7","49","49","52","27","-24","0.715942","-0.401917","-0.553528","-0.139709","0.007634","0.381679","-0.129771","8.13357","-3.889136","-1.391284","-0.733325","0.234473","-2.019336","1.269263","-1.503735","-0.891235"
"J","1617445955.2415872","7","49","52","56","28","-23","0.713501","-0.403564","-0.556335","-0.136169","0.007634","0.312977","-0.114504","8.371631","-3.901099","-1.071875","-0.484497","0.257202","-1.612598","1.101782","-1.131689","-0.635229"
"J","1617445955.2317116","7","51","53","52","28","-23","0.711609","-0.40509","-0.558472","-0.133057","0.022901","0.221374","-0.114504","8.408716","-4.001587","-0.845776","-0.436646","0.191406","-1.317114","0.878076","-0.947461","-0.53833"
"J","1617445955.2216537","7","49","51","53","28","-23","0.710266","-0.406677","-0.55957","-0.130676","0.038168","0.129771","-0.099237","8.240039","-4.167871","-0.690259","-0.590967","0.059814","-1.111353","0.601733","-0.924731","-0.605322"
"J","1617445955.2116375","7","50","52","53","26","-25","0.709534","-0.40802","-0.559814","-0.129333","0.045802","0.068702","-0.076336","8.018725","-4.360474","-0.581396","-0.800317","-0.105273","-0.976172","0.332568","-0.991724","-0.712988"
"J","1617445955.201659","7","51","52","54","27","42","0.709106","-0.409058","-0.559753","-0.128784","0.038168","0.053435","-0.061069","7.955322","-4.466943","-0.397168","-0.856543","-0.193799","-0.776392","0.118433","-0.919946","-0.715381"
"J","1617445955.1916642","7","49","52","53","28","-16","0.708801","-0.409668","-0.559753","-0.128418","0.015267","0.045802","-0.053435","7.987622","-4.457373","-0.19978","-0.819458","-0.174658","-0.569434","0","-0.748877","-0.680689"
"J","1617445955.1817832","7","51","51","52","27","-9","0.708557","-0.409912","-0.559998","-0.127869","-0.015267","0.061069","-0.045802","8.074951","-4.386792","0.023926","-0.72854","-0.096899","-0.336157","-0.077759","-0.50603","-0.624463"
"J","1617445955.1718972","7","51","52","53","28","-16","0.708313","-0.409973","-0.560425","-0.127136","-0.030534","0.068702","-0.038168","8.182617","-4.301856","0.240454","-0.618481","-0.005981","-0.108862","-0.137573","-0.25481","-0.556274"
"J","1617445955.1616814","7","51","53","50","27","-23","0.708008","-0.409912","-0.561035","-0.126221","-0.030534","0.068702","-0.022901","8.289087","-4.248023","0.453394","-0.509619","0.05144","0.11604","-0.218921","-0.026318","-0.476123"
"J","1617445955.1516924","7","50","55","52","26","-16","0.707642","-0.409851","-0.561768","-0.125366","-0.030534","0.053435","-0.015267","8.354883","-4.240845","0.618481","-0.442627","0.062207","0.295483","-0.313428","0.126807","-0.413916"
"J","1617445955.1416583","7","49","53","54","26","-23","0.707275","-0.40979","-0.562439","-0.124634","-0.030534","0.030534","-0.015267","8.335742","-4.251611","0.717773","-0.461768","0.055029","0.407935","-0.401953","0.196191","-0.425879"
"J","1617445955.131531","7","48","49","54","27","-16","0.707031","-0.409729","-0.562866","-0.124146","-0.030534","0.007634","-0.007634","8.241236","-4.259985","0.752466","-0.555078","0.047852","0.452197","-0.468945","0.196191","-0.504834"
"J","1617445955.1217215","7","48","52","53","26","-16","0.70697","-0.409485","-0.563232","-0.12384","-0.030534","0","0.007634","8.126391","-4.261182","0.727344","-0.671118","0.045459","0.430664","-0.494067","0.145947","-0.608911"
"J","1617445955.1117887","7","49","51","52","25","-17","0.706848","-0.409119","-0.56366","-0.123718","-0.038168","0.022901","0.015267","8.065381","-4.237256","0.672314","-0.735718","0.063403","0.379224","-0.468945","0.101685","-0.6771"
"J","1617445955.1015685","7","49","53","53","27","-17","0.706543","-0.40863","-0.564453","-0.123596","-0.038168","0.045802","0.022901","8.10127","-4.189404","0.6125","-0.704614","0.101685","0.328979","-0.398364","0.098096","-0.667529"
"J","1617445955.09189","7","49","51","53","30","-23","0.705994","-0.408203","-0.565552","-0.12323","-0.030534","0.076336","0.022901","8.141943","-4.167871","0.517993","-0.668726","0.113647","0.251221","-0.322998","0.058618","-0.643604"
"J","1617445955.0815425","7","51","49","52","26","-15","0.705139","-0.407776","-0.566956","-0.122803","-0.030534","0.10687","0.030534","8.214917","-4.172656","0.437842","-0.601733","0.098096","0.196191","-0.271558","0.027515","-0.579004"
"J","1617445955.0717282","7","51","49","53","29","-24","0.703979","-0.407532","-0.568726","-0.122192","-0.022901","0.129771","0.022901","8.266357","-4.176245","0.345728","-0.556274","0.08374","0.139966","-0.223706","-0.008374","-0.533545"
"J","1617445955.0619082","7","51","53","50","28","-15","0.702698","-0.40741","-0.570557","-0.121399","-0.022901","0.137405","0.022901","8.260376","-4.155908","0.227295","-0.567041","0.096899","0.059814","-0.161499","-0.062207","-0.551489"
"J","1617445955.051814","7","49","50","53","27","-23","0.701355","-0.407227","-0.572449","-0.120605","-0.022901","0.145038","0.030534","8.237646","-4.147534","0.093311","-0.593359","0.096899","-0.0323","-0.101685","-0.136377","-0.576611"
"J","1617445955.041792","7","54","54","52","28","-17","0.699951","-0.406921","-0.574585","-0.119873","-0.030534","0.160305","0.038168","8.260376","-4.105664","-0.002393","-0.577808","0.126807","-0.086133","-0.037085","-0.151929","-0.576611"
"J","1617445947.6907418","7","51","49","52","26","-24","0.42865","0.640686","-0.238403","0.590698","0.015267","-0.007634","-0.076336","9.120508","3.367554","0.720166","-0.299072","0.744092","0.078955","-0.616089","-0.510815","-0.082544"
"J","1617445947.6810217","7","51","53","54","-6","-24","0.427979","0.640076","-0.239441","0.591309","0.015267","-0.030534","-0.076336","8.845362","3.310132","0.699829","-0.581396","0.715381","0.055029","-0.657959","-0.532349","-0.366064"
"J","1617445947.6708844","7","52","53","52","23","-26","0.427368","0.639343","-0.240479","0.592224","0.015267","-0.045802","-0.076336","8.55586","3.223999","0.673511","-0.879272","0.659155","0.017944","-0.68667","-0.531152","-0.672314"
"J","1617445947.6607983","7","53","53","52","25","-23","0.426697","0.638428","-0.241394","0.593262","0.007634","-0.045802","-0.076336","8.308228","3.088818","0.655566","-1.134082","0.556274","-0.011963","-0.662744","-0.502441","-0.948657"
"J","1617445947.6508603","7","49","52","53","25","-24","0.426086","0.637573","-0.242249","0.594299","0","-0.045802","-0.083969","8.12998","2.934497","0.666333","-1.319507","0.430664","-0.014355","-0.590967","-0.471338","-1.162793"
"J","1617445947.6409442","7","47","51","51","28","-23","0.425232","0.636658","-0.243225","0.595459","0","-0.045802","-0.099237","7.936182","2.74668","0.669922","-1.520483","0.278735","-0.023926","-0.502441","-0.423486","-1.398462"
"J","1617445947.6308336","7","53","52","51","27","-25","0.424255","0.635681","-0.244324","0.596741","0.007634","-0.045802","-0.10687","7.747168","2.438037","0.66394","-1.719067","0.00957","-0.044263","-0.320605","-0.303857","-1.660449"
"J","1617445947.6207492","7","49","55","51","25","-24","0.423218","0.634705","-0.245544","0.598022","0.007634","-0.045802","-0.10687","7.586865","2.021729","0.653174","-1.88894","-0.364868","-0.066992","-0.047852","-0.120825","-1.920044"
"J","1617445947.610869","7","53","54","51","25","-24","0.422241","0.633789","-0.246643","0.599304","0","-0.045802","-0.10687","7.39187","1.537231","0.613696","-2.093506","-0.809888","-0.119629","0.261987","0.11604","-2.228687"
"J","1617445947.6008914","7","52","51","53","24","-23","0.421387","0.632874","-0.247498","0.600464","-0.022901","-0.053435","-0.099237","7.195679","1.096997","0.606519","-2.295679","-1.216626","-0.141162","0.559863","0.309839","-2.520581"
"J","1617445947.590942","7","49","53","53","25","-24","0.420532","0.632263","-0.247742","0.601624","-0.061069","-0.045802","-0.091603","6.939673","0.842188","0.651978","-2.557666","-1.44751","-0.108862","0.733325","0.354102","-2.824439"
"J","1617445947.5808458","7","54","52","53","25","-23","0.419495","0.632019","-0.247314","0.602722","-0.099237","-0.022901","-0.061069","6.718359","0.846973","0.753662","-2.780176","-1.427173","-0.016748","0.73811","0.226099","-3.026611"
"J","1617445947.5708144","7","53","55","52","25","-24","0.418274","0.632507","-0.246521","0.603394","-0.099237","0.015267","-0.007634","6.620264","0.942676","0.885254","-2.880664","-1.326685","0.118433","0.716577","0.046655","-3.090015"
"J","1617445947.560855","7","51","55","53","27","-23","0.417542","0.633484","-0.245728","0.60321","-0.038168","0.030534","0.076336","6.554468","0.902002","0.921143","-2.945264","-1.376929","0.171069","0.771606","0.021533","-3.161792"
"J","1617445947.551045","7","51","53","51","25","-23","0.418274","0.634521","-0.24469","0.602051","0.030534","0.030534","0.175573","6.487475","0.723755","0.882861","-3.005078","-1.589868","0.14834","0.910376","0.139966","-3.27544"
"J","1617445947.540923","7","53","51","50","25","-24","0.420715","0.63562","-0.243042","0.599854","0.061069","0.030534","0.259542","6.365454","0.641211","0.813477","-3.111548","-1.741797","0.089722","0.961816","0.235669","-3.424976"
"J","1617445947.531087","7","51","53","54","28","-15","0.424194","0.636841","-0.240723","0.596985","0.045802","0.030534","0.320611","6.171655","0.712988","0.735718","-3.280225","-1.764526","0.021533","0.884058","0.251221","-3.608008"
"J","1617445947.5210872","7","53","57","53","25","-15","0.42804","0.638489","-0.237427","0.593872","-0.007634","0.045802","0.351145","5.918042","0.936694","0.6771","-3.505127","-1.655664","-0.026318","0.691455","0.163892","-3.810181"
"J","1617445947.5108385","7","51","53","53","25","-24","0.431213","0.640747","-0.233582","0.590637","-0.076336","0.076336","0.351145","5.663232","1.252515","0.6448","-3.727637","-1.458276","-0.037085","0.437842","0.003589","-3.977661"
"J","1617445947.5009437","7","52","51","54","27","-25","0.433411","0.643799","-0.229553","0.58728","-0.129771","0.122137","0.351145","5.451489","1.512109","0.555078","-3.908276","-1.313525","-0.087329","0.206958","-0.080151","-4.117627"
"J","1617445947.4908276","7","51","57","53","25","-23","0.434875","0.647583","-0.225525","0.583618","-0.160305","0.175573","0.366412","5.306738","1.709497","0.405542","-4.02312","-1.229785","-0.177051","0.010767","-0.080151","-4.208545"
"J","1617445947.4811523","7","52","53","54","25","-24","0.436035","0.651978","-0.221375","0.579407","-0.152672","0.221374","0.40458","5.246924","1.872192","0.224902","-4.048242","-1.185522","-0.281128","-0.149536","-0.026318","-4.224097"
"J","1617445947.470795","7","52","59","54","25","-18","0.4375","0.656799","-0.217346","0.574402","-0.114504","0.251908","0.458015","5.24812","1.958325","-0.017944","-4.009961","-1.226196","-0.435449","-0.263184","0.129199","-4.204956"
"J","1617445947.4613194","7","53","51","53","25","-23","0.439819","0.661621","-0.213318","0.568481","-0.068702","0.267176","0.534351","5.239746","1.957129","-0.378027","-3.970483","-1.368555","-0.704614","-0.368457","0.429468","-4.219312"
"J","1617445947.4508753","7","52","53","52","26","-16","0.443359","0.666565","-0.208679","0.561707","-0.068702","0.290076","0.603053","5.266065","2.06001","-0.72854","-3.885547","-1.434351","-0.965405","-0.525171","0.687866","-4.163086"
"J","1617445947.4416978","7","52","52","53","26","-23","0.447449","0.671936","-0.203064","0.554077","-0.129771","0.328244","0.648855","5.333056","2.454785","-0.971387","-3.744385","-1.232178","-1.112549","-0.814673","0.721362","-3.947754"
"J","1617445947.4317083","7","54","53","53","25","-24","0.45105","0.677979","-0.196594","0.546021","-0.206107","0.358779","0.664122","5.358179","3.164185","-1.144849","-3.635522","-0.724951","-1.175952","-1.297974","0.522778","-3.627148"
"J","1617445947.4217176","7","51","51","51","10","-23","0.453674","0.684753","-0.189636","0.537842","-0.282443","0.381679","0.679389","5.319898","4.005176","-1.290796","-3.584082","-0.08374","-1.195093","-1.863818","0.210547","-3.279028"
"J","1617445947.411649","7","52","53","53","26","-24","0.455322","0.691956","-0.182373","0.529602","-0.320611","0.396947","0.70229","5.293579","4.810278","-1.39248","-3.515893","0.527563","-1.154419","-2.350708","-0.130396","-2.902197"
"J","1617445947.4016309","7","53","53","54","25","-16","0.456665","0.699402","-0.174988","0.521179","-0.29771","0.389313","0.740458","5.27085","5.394067","-1.507324","-3.439331","0.921143","-1.11853","-2.660547","-0.356494","-2.591162"
"J","1617445947.3918662","7","53","54","53","26","-24","0.458435","0.706482","-0.167297","0.512512","-0.244275","0.366412","0.793893","5.161987","5.785254","-1.687964","-3.436939","1.117334","-1.155615","-2.886646","-0.440234","-2.420093"
"J","1617445947.3816","7","54","53","56","28","-23","0.461365","0.712891","-0.15918","0.503479","-0.206107","0.343511","0.854962","5.031592","6.146533","-1.878174","-3.441724","1.270459","-1.219019","-3.095996","-0.484497","-2.260986"
"J","1617445947.3717473","7","49","52","58","25","-23","0.465271","0.718811","-0.150513","0.494019","-0.19084","0.351145","0.908397","4.980151","6.690845","-1.960718","-3.352002","1.592261","-1.187915","-3.31731","-0.674707","-1.927222"
"J","1617445947.3616023","7","57","53","52","25","-25","0.469421","0.724731","-0.141418","0.484009","-0.198473","0.374046","0.931298","4.986133","7.431348","-1.933203","-3.189307","2.104272","-1.04436","-3.548193","-1.033594","-1.422388"
"J","1617445947.3516","7","52","49","50","26","-25","0.473267","0.730896","-0.132507","0.473511","-0.21374","0.419847","0.931298","4.976562","8.155103","-1.945166","-3.034985","2.604321","-0.929517","-3.764722","-1.357788","-0.90918"
"J","1617445947.341648","7","53","51","52","25","-24","0.47644","0.737366","-0.123779","0.462463","-0.267176","0.450382","0.908397","4.969385","8.866895","-1.99541","-2.869897","3.101978","-0.837402","-3.95852","-1.654468","-0.372046"
"J","1617445947.3316088","7","54","52","54","25","-23","0.478638","0.744263","-0.11499","0.451294","-0.328244","0.442748","0.877863","4.828223","9.676783","-2.046851","-2.832813","3.710889","-0.729736","-4.251611","-2.055225","0.141162"
"J","1617445947.3217137","7","54","53","52","25","-23","0.479614","0.751343","-0.106079","0.440552","-0.389313","0.412214","0.847328","4.55188","10.581177","-2.097095","-2.932105","4.433447","-0.610107","-4.648779","-2.568433","0.632837"
"J","1617445947.3116994","7","51","52","53","26","-24","0.479736","0.758301","-0.096802","0.430603","-0.435115","0.381679","0.824427","4.2229","11.636304","-2.11145","-3.086426","5.32229","-0.455786","-5.118921","-3.223999","1.202271"
"J","1617445947.301675","7","54","48","52","25","-24","0.478943","0.765198","-0.087463","0.421143","-0.458015","0.374046","0.816794","3.996802","12.953418","-1.969092","-3.140259","6.491065","-0.141162","-5.543603","-4.145142","2.01814"
"J","1617445947.2916255","7","53","49","52","25","-23","0.477783","0.771973","-0.078186","0.411865","-0.419847","0.366412","0.847328","3.751563","14.402124","-1.752563","-3.212036","7.803393","0.247632","-5.956323","-5.219409","2.920142"
"J","1617445947.281783","7","53","54","54","25","-24","0.47699","0.778381","-0.068909","0.402283","-0.320611","0.374046","0.946565","3.529053","15.770679","-1.50852","-3.251514","9.036768","0.659155","-6.235059","-6.262573","3.812573"
"J","1617445947.2718017","7","54","47","54","25","-23","0.477661","0.784058","-0.059387","0.391724","-0.183206","0.381679","1.076336","3.330469","16.932276","-1.265674","-3.244336","10.047632","1.052734","-6.333154","-7.139453","4.632031"
"J","1617445947.26176","7","51","27","52","25","-23","0.480713","0.788757","-0.049316","0.379822","0.007634","0.374046","1.221374","3.128296","17.851025","-1.033594","-3.207251","10.785742","1.408032","-6.266162","-7.789038","5.349805"
"J","1617445947.25178","7","52","52","53","25","-23","0.486755","0.791809","-0.038269","0.366821","0.21374","0.312977","1.389313","2.737109","18.487452","-0.826636","-3.319702","11.208033","1.690356","-6.178833","-8.196973","5.837891"
"J","1617445947.241729","7","52","52","52","25","-14","0.496094","0.792786","-0.025879","0.353088","0.419847","0.251908","1.549618","2.189209","18.971949","-0.574219","-3.548193","11.441309","1.957129","-6.090308","-8.466138","6.206347"
"J","1617445947.231774","7","53","53","50","26","-23","0.508728","0.791321","-0.012329","0.338745","0.618321","0.229008","1.679389","1.63772","19.309301","-0.16748","-3.738403","11.499927","2.308838","-5.857031","-8.636011","6.52815"
"J","1617445947.2215395","7","54","52","52","25","-23","0.52417","0.787781","0.001892","0.323364","0.793893","0.244275","1.80916","1.177148","19.473194","0.48689","-3.795825","11.367139","2.850757","-5.362964","-8.767603","6.786548"
"J","1617445947.2192678","7","53","49","50","24","-23","0.542175","0.782288","0.016724","0.306091","1","0.290076","1.89313","0.73811","19.448071","1.333862","-3.776685","11.034571","3.533838","-4.683472","-8.853735","6.938477"
"J","1617445947.217693","7","51","53","54","25","-2","0.562744","0.774475","0.031189","0.287109","1.259542","0.343511","1.938931","0.135181","19.394238","2.189209","-3.878369","10.675684","4.165479","-4.165479","-8.888428","7.067676"
"J","1617445947.191668","7","53","51","54","25","-17","0.586121","0.763733","0.044739","0.266602","1.526718","0.381679","2.015267","-0.563452","19.320068","2.951245","-4.039868","10.312012","4.623657","-3.841284","-8.75205","7.255493"
"J","1617445947.1817408","7","54","53","53","25","-23","0.612305","0.749573","0.057922","0.244385","1.801527","0.442748","2.129771","-1.277637","19.21958","3.562549","-4.172656","9.945948","4.841382","-3.640308","-8.336939","7.546191"
"J","1617445947.1719515","7","53","52","53","25","-17","0.641174","0.731628","0.070435","0.220215","2.068702","0.557252","2.160305","-1.844678","19.082006","3.984839","-4.116431","9.583471","4.77439","-3.423779","-7.524658","7.948144"
"J","1617445947.1616724","7","51","53","53","25","-16","0.67218","0.709778","0.080688","0.194336","2.274809","0.70229","2.114504","-2.211938","18.895386","4.417895","-3.852051","9.236547","4.620069","-3.088818","-6.479102","8.362061"
"J","1617445947.151813","7","52","53","53","25","-16","0.704102","0.684448","0.08844","0.166931","2.358779","0.80916","2.091603","-2.475122","18.641773","4.934692","-3.493164","8.906372","4.470532","-2.679688","-5.355786","8.694629"
"J","1617445947.1418157","7","54","52","53","26","-23","0.735413","0.656555","0.094482","0.138184","2.358779","0.908397","2.053435","-2.664136","18.297241","5.709888","-3.080444","8.577393","4.533936","-2.132983","-4.41311","8.919531"
"J","1617445947.1317496","7","51","54","52","26","-23","0.764893","0.627197","0.098816","0.108337","2.274809","0.984733","1.954198","-2.837598","17.827099","6.698022","-2.686865","8.21372","4.799512","-1.536035","-3.721655","9.027197"
"J","1617445947.1216798","7","52","52","51","25","-23","0.791504","0.597534","0.101501","0.078308","2.175573","1.038168","1.801527","-3.130688","17.187084","7.676587","-2.472729","7.760327","5.075854","-1.120923","-3.203662","8.975757"
"J","1617445947.1117437","7","52","51","52","25","-23","0.815063","0.567993","0.102417","0.049316","2.114504","1.045802","1.610687","-3.690552","16.445385","8.400342","-2.603125","7.272241","5.129687","-1.129297","-2.665332","8.80708"
"J","1617445947.1016588","7","51","51","52","25","-23","0.836243","0.538269","0.101746","0.022583","2.083969","1.007634","1.419847","-4.532739","15.397436","8.707788","-3.103174","6.529346","4.789941","-1.635327","-2.008569","8.274732"
"J","1617445947.0916936","7","51","52","52","26","-16","0.855408","0.508179","0.099792","-0.001343","2.030534","0.969466","1.259542","-5.561548","14.30044","8.638403","-3.87478","5.782861","4.094897","-2.503833","-1.149634","7.590454"
"J","1617445947.0816522","7","53","53","53","26","-15","0.872681","0.478149","0.095947","-0.022583","1.931298","1.015267","1.10687","-6.402539","13.478589","8.363256","-4.549487","5.341431","3.225195","-3.288599","-0.050244","6.985132"
"J","1617445947.0718725","7","52","52","54","25","-23","0.888062","0.448975","0.08905","-0.042053","1.816794","1.145038","0.938931","-6.743482","13.082617","8.13357","-4.822241","5.340234","2.44043","-3.608008","1.177148","6.580786"
"J","1617445947.0617764","7","51","53","53","25","-23","0.901794","0.420654","0.078003","-0.060242","1.709924","1.335878","0.793893","-6.607104","12.994092","7.934985","-4.731323","5.650073","1.722656","-3.499146","2.488281","6.230273"
"J","1617445947.051759","7","52","51","54","27","-16","0.914062","0.392944","0.062927","-0.07782","1.618321","1.496183","0.694656","-6.109448","13.034765","7.672998","-4.382007","6.090308","0.977368","-3.073267","3.829321","5.75415"
"J","1617445947.041855","7","53","51","53","24","-15","0.924866","0.365356","0.045044","-0.095215","1.557252","1.610687","0.641221","-5.565137","13.095777","7.239942","-4.066186","6.55686","0.095703","-2.603125","5.203857","5.066284"
"J","1617445947.0317128","7","54","54","54","25","-16","0.934326","0.337158","0.025757","-0.112488","1.580153","1.656489","0.572519","-5.213428","13.056299","6.688452","-3.997998","6.938477","-0.869702","-2.287305","6.509009","4.155908"
"J","1617445947.021839","7","53","53","55","25","-23","0.942871","0.307068","0.005798","-0.128845","1.679389","1.679389","0.496183","-5.263672","12.696216","6.043653","-4.380811","7.035376","-1.906885","-2.369849","7.629931","2.910571"
"J","1617445947.011743","7","52","51","54","25","-23","0.950745","0.274048","-0.014771","-0.143982","1.832061","1.709924","0.442748","-5.5771","11.982031","5.415601","-5.078247","6.833203","-2.906982","-2.738306","8.456568","1.378125"
"J","1617445947.0018716","7","51","55","53","25","-23","0.957703","0.237488","-0.036011","-0.158386","1.984733","1.755725","0.442748","-5.931201","10.936475","4.791138","-5.868994","6.366651","-3.877173","-3.177344","8.929102","-0.423486"
"J","1617445946.991773","7","52","55","53","25","-17","0.963135","0.197937","-0.058105","-0.172485","2.083969","1.824427","0.458015","-6.062793","9.687549","4.175049","-6.489868","5.75415","-4.789941","-3.416602","8.996094","-2.355493"
"J","1617445946.9818482","7","53","52","63","25","-24","0.966431","0.156311","-0.081665","-0.186646","2.091603","1.931298","0.480916","-5.849854","8.346509","3.505127","-6.824829","5.086621","-5.683569","-3.323291","8.663526","-4.316211"
"J","1617445946.9720712","7","52","55","55","25","-23","0.966919","0.114624","-0.1073","-0.200928","1.969466","2.045802","0.503817","-5.12251","7.000684","2.905786","-6.704004","4.404737","-6.409717","-2.77898","7.84646","-6.00896"
"J","1617445946.9617558","7","52","55","53","25","-24","0.964355","0.075195","-0.134827","-0.214966","1.732824","2.129771","0.480916","-4.067383","5.867798","2.362671","-6.298462","3.878369","-6.96958","-1.920044","6.82124","-7.284204"
"J","1617445946.9518125","7","53","53","54","25","-23","0.959106","0.039856","-0.163757","-0.227295","1.435115","2.183206","0.374046","-2.97876","4.994507","1.833911","-5.878564","3.514697","-7.408618","-1.007275","5.794824","-8.196973"
"J","1617445946.941754","7","52","52","54","27","-12","0.952026","0.009277","-0.193726","-0.236572","1.122137","2.198473","0.206107","-1.982251","4.456177","1.303955","-5.553174","3.384302","-7.757935","-0.105273","4.95144","-8.827417"
"J","1617445946.931955","7","51","52","52","25","-16","0.943848","-0.016479","-0.224304","-0.242004","0.832061","2.183206","0.053435","-1.204663","4.311426","0.711792","-5.431152","3.551782","-8.096484","0.763232","4.443017","-9.344213"
"J","1617445946.9218383","7","53","54","52","25","-23","0.934875","-0.037842","-0.255005","-0.24408","0.59542","2.145038","-0.030534","-0.559863","4.598535","0.066992","-5.413208","4.070971","-8.430249","1.735815","4.293481","-9.771289"
"J","1617445946.9118557","7","51","56","53","25","-13","0.925232","-0.056396","-0.285095","-0.243835","0.496183","2.091603","-0.068702","-0.002393","5.079443","-0.745288","-5.441919","4.738501","-8.888428","2.824439","4.261182","-10.242627"
"J","1617445946.901837","7","53","52","54","25","-15","0.914978","-0.074707","-0.313843","-0.24231","0.587786","2.068702","-0.083969","0.417505","5.242139","-1.804004","-5.565137","5.09021","-9.563135","3.825732","3.879565","-10.891016"
"J","1617445946.8920414","7","51","53","54","25","-23","0.903625","-0.095642","-0.341248","-0.24054","0.824427","2.114504","-0.083969","0.906787","4.565039","-3.100781","-5.587866","4.649976","-10.438818","4.641602","2.572021","-11.559741"
"J","1617445946.8819337","7","54","52","52","25","-23","0.890503","-0.120728","-0.367615","-0.239319","1.129771","2.229008","-0.114504","1.530054","2.929712","-4.527954","-5.451489","3.311328","-11.392261","5.151221","0.220117","-11.993994"
"J","1617445946.872053","7","48","55","53","25","-27","0.875061","-0.150024","-0.393555","-0.238586","1.381679","2.381679","-0.19084","2.36626","0.594556","-5.873779","-5.084229","1.326685","-12.196167","5.306738","-2.853149","-11.833692"
"J","1617445946.8620875","7","51","54","52","25","-17","0.857117","-0.181702","-0.419373","-0.23761","1.496183","2.534351","-0.305344","3.384302","-1.830322","-6.887036","-4.506421","-0.729736","-12.592138","5.144043","-5.880957","-10.877856"
"J","1617445946.8527083","7","50","53","54","26","-23","0.837097","-0.213562","-0.445251","-0.235352","1.450382","2.618321","-0.442748","4.585376","-3.715674","-7.335645","-3.704907","-2.264575","-12.355273","4.818652","-8.058203","-9.127686"
"J","1617445946.842114","7","52","53","53","25","-16","0.815979","-0.243835","-0.470764","-0.230591","1.29771","2.610687","-0.587786","5.764917","-4.85813","-7.318896","-2.865112","-3.085229","-11.609985","4.453784","-9.109741","-7.048535"
"J","1617445946.8322012","7","51","53","53","25","-16","0.794739","-0.271667","-0.494812","-0.223083","1.114504","2.503817","-0.687023","6.786548","-5.397656","-7.060498","-2.107861","-3.329273","-10.614673","4.120019","-9.2521","-5.060303"
"J","1617445946.8220248","7","51","53","56","27","-16","0.774292","-0.296753","-0.516724","-0.213196","0.916031","2.290076","-0.748092","7.573706","-5.487378","-6.704004","-1.507324","-3.142651","-9.543994","3.861621","-8.756836","-3.411816"
"J","1617445946.812692","7","51","52","52","25","-23","0.755676","-0.318481","-0.535522","-0.201965","0.709924","2.030534","-0.748092","7.912256","-5.353394","-6.434839","-1.280029","-2.755054","-8.625244","3.648682","-8.034277","-2.39856"
"J","1617445946.8019009","7","53","53","52","25","-17","0.739197","-0.336609","-0.551575","-0.189941","0.496183","1.832061","-0.732824","8.198169","-5.081836","-6.093896","-1.045557","-2.257397","-7.710083","3.49436","-7.129883","-1.606616"
"J","1617445946.79256","7","53","55","52","28","-23","0.724731","-0.351501","-0.565613","-0.177063","0.320611","1.641221","-0.70229","8.64917","-4.682275","-5.621362","-0.604126","-1.652075","-6.729126","3.417798","-6.000586","-0.820654"
"J","1617445946.7819023","7","53","53","53","24","-16","0.712097","-0.363586","-0.57782","-0.16394","0.183206","1.427481","-0.610687","9.047534","-4.326978","-5.163184","-0.185425","-1.10896","-5.828321","3.324487","-4.911963","-0.205762"
"J","1617445946.7720008","7","52","53","52","26","-16","0.701477","-0.372925","-0.588135","-0.151611","0.091603","1.183206","-0.496183","9.295166","-4.04585","-4.720557","0.100488","-0.665137","-5.014844","3.162988","-3.944165","0.172266"
"J","1617445946.761828","7","52","52","53","25","-23","0.692871","-0.379822","-0.596497","-0.140869","0.030534","0.923664","-0.366412","9.351392","-3.872388","-4.364062","0.200977","-0.360083","-4.36167","2.954834","-3.218018","0.317017"
"J","1617445946.75263","7","51","54","49","25","-24","0.686401","-0.384521","-0.602905","-0.132385","0.015267","0.694656","-0.259542","9.247314","-3.836499","-4.068579","0.137573","-0.227295","-3.846069","2.677295","-2.757446","0.297876"
"J","1617445946.742597","7","53","53","51","27","-23","0.681824","-0.387939","-0.607239","-0.126038","0.030534","0.458015","-0.21374","8.939868","-3.950146","-3.810181","-0.132788","-0.265576","-3.432153","2.304053","-2.557666","0.108862"
"J","1617445946.732613","7","51","52","52","25","-23","0.679138","-0.391052","-0.609192","-0.121582","0.091603","0.267176","-0.198473","8.451782","-4.258789","-3.602026","-0.588574","-0.504834","-3.130688","1.833911","-2.644995","-0.198584"
"J","1617445946.722551","7","53","53","52","28","-15","0.677673","-0.394287","-0.609253","-0.119019","0.152672","0.152672","-0.19084","8.04624","-4.837793","-3.347217","-0.965405","-1.021631","-2.824439","1.189111","-2.901001","-0.33855"
"J","1617445946.7128632","7","54","53","54","25","-23","0.676758","-0.397278","-0.608459","-0.118164","0.145038","0.083969","-0.167939","8.005567","-5.413208","-2.920142","-0.984546","-1.551587","-2.369849","0.502441","-2.951245","-0.159106"
"J","1617445946.702606","7","53","49","54","25","-23","0.676575","-0.399109","-0.607483","-0.118164","0.038168","0.022901","-0.10687","8.106054","-5.580688","-2.337549","-0.873291","-1.693945","-1.782471","0","-2.609107","-0.027515"
"J","1617445946.692657","7","49","53","48","25","-23","0.677429","-0.398743","-0.60675","-0.118286","-0.129771","-0.015267","-0.038168","8.368042","-5.305542","-1.58269","-0.6125","-1.417603","-1.050342","-0.293091","-1.843481","0.057422"
"J","1617445946.682598","7","53","55","52","26","-17","0.679382","-0.395813","-0.606628","-0.117554","-0.328244","-0.061069","0.022901","8.693433","-4.699023","-0.818262","-0.295483","-0.825439","-0.334961","-0.352905","-0.866113","0.070581"
"J","1617445946.6726775","7","52","53","50","25","-15","0.682678","-0.390442","-0.60675","-0.115662","-0.503817","-0.122137","0.061069","8.865698","-3.921436","-0.133984","-0.137573","-0.071777","0.269165","-0.276343","0.089722","-0.108862"
"J","1617445946.661932","7","49","52","50","25","-25","0.687317","-0.383179","-0.606689","-0.112549","-0.633588","-0.206107","0.091603","8.772388","-3.164185","0.38999","-0.245239","0.659155","0.681885","-0.159106","0.824243","-0.502441"
"J","1617445946.6519792","7","50","52","53","25","-23","0.693115","-0.374695","-0.60614","-0.108704","-0.687023","-0.251908","0.099237","8.482885","-2.551685","0.709399","-0.549097","1.246533","0.861328","-0.031104","1.260889","-1.00249"
"J","1617445946.6420643","7","49","51","51","25","-18","0.69928","-0.366028","-0.605103","-0.10437","-0.648855","-0.236641","0.083969","8.252002","-2.21792","0.893628","-0.789551","1.559961","0.894824","0.034692","1.443921","-1.329077"
"J","1617445946.632755","7","51","52","51","22","-24","0.704651","-0.358521","-0.604065","-0.100098","-0.526718","-0.175573","0.068702","8.27832","-2.348315","0.95105","-0.766821","1.417603","0.821851","-0.017944","1.314722","-1.241748"
"J","1617445946.6227016","7","51","47","54","24","-27","0.708618","-0.352661","-0.603516","-0.096497","-0.396947","-0.114504","0.045802","8.519971","-2.786157","0.875684","-0.52876","0.97019","0.650781","-0.099292","0.958228","-0.84458"
"J","1617445946.6127658","7","52","51","50","24","-24","0.711365","-0.348145","-0.603333","-0.09375","-0.312977","-0.076336","0.030534","8.728125","-3.073267","0.746484","-0.322998","0.671118","0.455786","-0.071777","0.680689","-0.540723"
"J","1617445946.6025703","7","54","51","52","25","-25","0.71344","-0.344543","-0.603271","-0.091492","-0.259542","-0.045802","0.022901","8.858521","-3.117529","0.675903","-0.194995","0.618481","0.334961","0.020337","0.606519","-0.403149"
"J","1617445946.5927474","7","53","53","52","25","-34","0.715027","-0.341736","-0.603333","-0.089478","-0.198473","-0.038168","0.015267","8.945849","-3.118726","0.635229","-0.108862","0.611304","0.257202","0.095703","0.5802","-0.322998"
"J","1617445946.582682","7","49","51","50","25","-23","0.716248","-0.339661","-0.603271","-0.087952","-0.145038","-0.045802","0.015267","8.893213","-3.135474","0.555078","-0.160303","0.592163","0.14834","0.156714","0.488086","-0.366064"
"J","1617445946.5726657","7","50","53","53","23","-24","0.717224","-0.338135","-0.603088","-0.087036","-0.091603","-0.045802","0.022901","8.785547","-3.170166","0.46416","-0.269165","0.553882","0.033496","0.198584","0.361279","-0.456982"
"J","1617445946.5627232","7","53","51","52","25","-23","0.717834","-0.33728","-0.602905","-0.08667","-0.030534","-0.030534","0.030534","8.679077","-3.27544","0.340942","-0.375635","0.44502","-0.105273","0.223706","0.168677","-0.520386"
"J","1617445946.55276","7","52","53","50","25","-23","0.718018","-0.336914","-0.602783","-0.086914","0.015267","-0.007634","0.038168","8.604907","-3.440527","0.193799","-0.451001","0.27395","-0.258398","0.236865","-0.070581","-0.532349"
"J","1617445946.5425992","7","53","54","52","25","-23","0.717896","-0.336792","-0.602966","-0.087646","0.022901","0.015267","0.038168","8.58457","-3.551782","0.098096","-0.477319","0.150732","-0.352905","0.24165","-0.227295","-0.514404"
"J","1617445946.532676","7","51","52","51","25","-24","0.717529","-0.336609","-0.603394","-0.088257","0.007634","0.030534","0.030534","8.586963","-3.543408","0.058618","-0.480908","0.145947","-0.384009","0.263184","-0.250024","-0.516797"
"J","1617445946.5226457","7","49","52","50","27","-23","0.717163","-0.336304","-0.603943","-0.088501","-0.022901","0.038168","0.015267","8.569018","-3.464453","0.059814","-0.502441","0.214136","-0.373242","0.287109","-0.197388","-0.56106"
"J","1617445946.5127094","7","51","51","49","25","-24","0.717041","-0.335754","-0.604431","-0.088379","-0.053435","0.022901","0.015267","8.513989","-3.356787","0.08374","-0.562256","0.314624","-0.345728","0.303857","-0.120825","-0.653174"
"J","1617445946.5027368","7","49","52","54","25","-16","0.717224","-0.334839","-0.604797","-0.087891","-0.076336","0.015267","0.022901","8.450586","-3.227588","0.147144","-0.628052","0.436646","-0.285913","0.303857","-0.010767","-0.757251"
"J","1617445946.4928577","7","52","53","51","25","-23","0.717529","-0.333679","-0.605103","-0.08728","-0.083969","0.007634","0.030534","8.414698","-3.176147","0.235669","-0.665137","0.480908","-0.204565","0.251221","0.061011","-0.803906"
"J","1617445946.4827487","7","49","53","56","25","-23","0.717957","-0.332397","-0.605408","-0.086853","-0.076336","0","0.038168","8.376416","-3.207251","0.279932","-0.708203","0.439038","-0.169873","0.19021","0.039478","-0.826636"
"J","1617445946.4728096","7","52","55","53","25","-23","0.718323","-0.331177","-0.605713","-0.086609","-0.061069","0.007634","0.038168","8.405127","-3.263477","0.322998","-0.684277","0.37085","-0.136377","0.132788","0.014355","-0.777588"
"J","1617445946.4626906","7","51","49","54","27","-23","0.718445","-0.330261","-0.606079","-0.086365","-0.045802","0.007634","0.038168","8.464941","-3.334058","0.344531","-0.628052","0.289502","-0.117236","0.089722","-0.019141","-0.695044"
"J","1617445946.4526749","7","48","53","51","26","-17","0.718506","-0.329529","-0.606445","-0.086365","-0.022901","0.007634","0.038168","8.530737","-3.444116","0.339746","-0.567041","0.169873","-0.123218","0.046655","-0.096899","-0.594556"
"J","1617445946.4427576","7","53","52","53","25","-17","0.718384","-0.329041","-0.60675","-0.086609","-0.007634","0.007634","0.038168","8.578588","-3.562549","0.31582","-0.522778","0.039478","-0.145947","0.00957","-0.197388","-0.50603"
"J","1617445946.432798","7","51","54","52","25","-23","0.718262","-0.328491","-0.607117","-0.087097","-0.007634","0.007634","0.038168","8.612085","-3.624756","0.305054","-0.495264","-0.035889","-0.154321","-0.015552","-0.251221","-0.453394"
"J","1617445946.4226942","7","51","53","54","26","-24","0.718201","-0.327881","-0.607483","-0.087585","-0.022901","0.007634","0.038168","8.653955","-3.609204","0.334961","-0.459375","-0.035889","-0.124414","-0.029907","-0.223706","-0.419897"
"J","1617445946.412837","7","51","53","50","25","-17","0.718201","-0.327026","-0.607849","-0.087952","-0.038168","0.007634","0.038168","8.689844","-3.51709","0.403149","-0.429468","0.038281","-0.058618","-0.037085","-0.119629","-0.416309"
"J","1617445946.402796","7","54","54","51","25","-17","0.718384","-0.32605","-0.608215","-0.088074","-0.053435","0","0.038168","8.726929","-3.405835","0.49646","-0.399561","0.133984","0.029907","-0.05144","0.011963","-0.418701"
"J","1617445946.3928664","7","50","52","52","25","-23","0.718567","-0.324951","-0.608521","-0.088135","-0.053435","-0.007634","0.038168","8.75564","-3.288599","0.600537","-0.375635","0.235669","0.128003","-0.072974","0.154321","-0.428271"
"J","1617445946.3827472","7","53","51","54","25","-23","0.718872","-0.323975","-0.608704","-0.088135","-0.045802","-0.015267","0.038168","8.764013","-3.197681","0.685474","-0.372046","0.314624","0.204565","-0.093311","0.260791","-0.448608"
"J","1617445946.3728151","7","54","55","56","25","-69","0.719177","-0.32312","-0.608765","-0.088257","-0.038168","-0.022901","0.030534","8.748462","-3.123511","0.759644","-0.391187","0.378027","0.269165","-0.118433","0.342139","-0.485693"
"J","1617445946.3627594","7","51","52","52","26","-23","0.719421","-0.32251","-0.608765","-0.088379","-0.015267","-0.022901","0.022901","8.737696","-3.093604","0.820654","-0.404346","0.398364","0.322998","-0.155518","0.386401","-0.502441"
"J","1617445946.3527071","7","52","52","52","25","-16","0.719543","-0.322327","-0.608704","-0.088623","0.007634","-0.022901","0.015267","8.718554","-3.10437","0.866113","-0.425879","0.384009","0.363672","-0.200977","0.392383","-0.514404"
"J","1617445946.3426232","7","52","53","53","25","-23","0.719482","-0.32251","-0.608582","-0.088928","0.038168","-0.015267","0","8.719751","-3.170166","0.888843","-0.423486","0.317017","0.386401","-0.253613","0.354102","-0.488086"
"J","1617445946.3327916","7","51","49","51","25","-17","0.719299","-0.323181","-0.608459","-0.089355","0.053435","-0.015267","-0.015267","8.716162","-3.26228","0.911572","-0.427075","0.227295","0.413916","-0.322998","0.300269","-0.458179"
"J","1617445946.322739","7","51","52","53","25","-16","0.718994","-0.324158","-0.608215","-0.089783","0.068702","-0.015267","-0.022901","8.686255","-3.371143","0.917554","-0.45459","0.12561","0.427075","-0.393579","0.221313","-0.447412"
"J","1617445946.3129656","7","52","53","53","26","-24","0.718628","-0.325256","-0.607971","-0.090332","0.068702","-0.015267","-0.030534","8.68147","-3.45249","0.919946","-0.456982","0.05144","0.437842","-0.441431","0.171069","-0.42229"
"J","1617445946.3028502","7","51","51","50","23","-23","0.718323","-0.326294","-0.607666","-0.090759","0.053435","-0.015267","-0.038168","8.673096","-3.469238","0.90918","-0.461768","0.043066","0.433057","-0.442627","0.160303","-0.424683"
"J","1617445946.2929509","7","53","53","50","25","-23","0.71814","-0.327148","-0.607483","-0.091003","0.022901","-0.015267","-0.045802","8.679077","-3.396265","0.930713","-0.45459","0.124414","0.460571","-0.419897","0.24165","-0.446216"
"J","1617445946.2829792","7","51","52","49","25","-23","0.717957","-0.32782","-0.6073","-0.09082","0.007634","-0.007634","-0.053435","8.656347","-3.277832","0.946265","-0.472534","0.253613","0.480908","-0.372046","0.346924","-0.508423"
"J","1617445946.2729342","7","51","52","52","25","-23","0.717896","-0.328552","-0.607117","-0.090332","0.007634","-0.007634","-0.053435","8.602514","-3.200073","0.917554","-0.521582","0.346924","0.456982","-0.31582","0.391187","-0.588574"
"J","1617445946.262704","7","51","53","52","26","-13","0.717773","-0.329407","-0.606812","-0.089722","0.030534","-0.007634","-0.061069","8.521167","-3.196484","0.848169","-0.594556","0.369653","0.391187","-0.269165","0.349316","-0.668726"
"J","1617445946.252802","7","53","52","53","26","-24","0.717468","-0.330627","-0.606567","-0.089355","0.061069","-0.007634","-0.053435","8.418286","-3.292187","0.705811","-0.690259","0.294287","0.259595","-0.226099","0.187817","-0.736914"
"J","1617445946.242871","7","51","53","54","25","-16","0.71698","-0.332092","-0.606384","-0.089417","0.083969","0.015267","-0.045802","8.364453","-3.429761","0.540723","-0.73811","0.173462","0.107666","-0.178247","-0.007178","-0.744092"
"J","1617445946.2327366","7","51","51","55","25","-16","0.716248","-0.333557","-0.606445","-0.089661","0.083969","0.038168","-0.038168","8.406323","-3.52666","0.397168","-0.692651","0.089722","-0.014355","-0.112451","-0.130396","-0.675903"
"J","1617445946.2229502","7","55","53","53","27","-23","0.715271","-0.3349","-0.60675","-0.089905","0.076336","0.053435","-0.030534","8.446997","-3.548193","0.281128","-0.648389","0.076563","-0.104077","-0.034692","-0.183032","-0.634033"
"J","1617445946.2126951","7","53","55","53","26","-15","0.714233","-0.336121","-0.6073","-0.090027","0.061069","0.068702","-0.022901","8.479297","-3.524268","0.181836","-0.614893","0.108862","-0.174658","0.047852","-0.191406","-0.617285"
"J","1617445946.2026434","7","49","52","52","25","-23","0.713257","-0.337036","-0.60791","-0.090149","0.045802","0.068702","-0.015267","8.52356","-3.499146","0.113647","-0.569434","0.137573","-0.216528","0.108862","-0.183032","-0.586182"
"J","1617445941.6886878","7","52","49","52","25","-28","0.385437","0.835388","-0.156006","0.359375","-0.244275","0.824427","0.961832","4.030298","9.217407","-7.244727","-3.031396","4.005176","-2.887842","-5.640503","-0.485693","1.228589"
"J","1617445941.6788585","7","48","52","53","25","-25","0.385803","0.843079","-0.1474","0.34436","-0.160305","0.78626","1.015267","4.145142","9.959106","-7.489966","-2.659351","4.578198","-2.932105","-5.635718","-0.856543","2.030102"
"J","1617445941.6688497","7","52","53","54","26","-24","0.38739","0.849915","-0.138123","0.329224","-0.099237","0.740458","1.068702","4.212134","10.678076","-7.705298","-2.320801","5.115332","-2.971582","-5.579492","-1.203467","2.790942"
"J","1617445941.6587586","7","51","50","54","27","-24","0.389771","0.856079","-0.128235","0.314087","-0.068702","0.70229","1.083969","4.218115","11.337232","-7.876367","-2.031299","5.585474","-2.98833","-5.464648","-1.519287","3.471631"
"J","1617445941.6489289","7","49","49","53","26","-25","0.392517","0.861572","-0.118103","0.299316","-0.068702","0.679389","1.061069","4.17146","12.025098","-7.934985","-1.790845","6.089111","-2.910571","-5.321094","-1.923633","4.090112"
"J","1617445941.638773","7","50","50","51","25","-25","0.394958","0.866638","-0.108154","0.284912","-0.091603","0.648855","1.015267","4.105664","12.813452","-7.859619","-1.570728","6.707593","-2.708398","-5.151221","-2.495459","4.691846"
"J","1617445941.6287515","7","50","53","52","26","-25","0.39679","0.871399","-0.09845","0.270935","-0.10687","0.610687","0.969466","3.964502","13.780054","-7.639502","-1.428369","7.525855","-2.365063","-5.031592","-3.308936","5.288794"
"J","1617445941.6187837","7","53","49","50","25","-27","0.39801","0.875916","-0.08905","0.257629","-0.091603","0.572519","0.946565","3.72644","14.849536","-7.367944","-1.390088","8.466138","-1.973877","-4.990918","-4.250415","5.874976"
"J","1617445941.608791","7","51","52","53","25","-27","0.399109","0.879944","-0.079895","0.244873","-0.022901","0.549618","0.923664","3.457275","15.874756","-7.077246","-1.390088","9.374121","-1.574316","-4.933496","-5.176343","6.413306"
"J","1617445941.598785","7","49","54","52","25","-25","0.400696","0.883301","-0.071289","0.232422","0.068702","0.526718","0.900763","3.131885","16.754028","-6.7698","-1.451099","10.140943","-1.175952","-4.860522","-5.995801","6.834399"
"J","1617445941.5888064","7","45","48","51","26","-26","0.403198","0.885925","-0.063232","0.220215","0.19084","0.519084","0.877863","2.758643","17.495728","-6.422876","-1.564746","10.766602","-0.759644","-4.775586","-6.717163","7.139453"
"J","1617445941.578742","7","49","53","53","25","-26","0.40686","0.887634","-0.05603","0.208191","0.305344","0.534351","0.847328","2.350708","17.961084","-6.011353","-1.717871","11.111133","-0.305054","-4.643994","-7.254297","7.230371"
"J","1617445941.5687847","7","50","49","53","25","-23","0.411743","0.88855","-0.049805","0.195862","0.40458","0.549618","0.80916","2.021729","18.209911","-5.492163","-1.790845","11.229566","0.23208","-4.377222","-7.669409","7.164575"
"J","1617445941.5588188","7","49","51","53","25","-24","0.41748","0.888794","-0.044495","0.183411","0.48855","0.549618","0.725191","1.626953","18.347485","-4.947852","-1.932007","11.23435","0.775195","-4.178638","-8.003174","6.998291"
"J","1617445941.548938","7","51","51","50","25","-24","0.424072","0.888245","-0.040527","0.171509","0.541985","0.541985","0.687023","1.184326","18.560425","-4.423877","-2.137769","11.313306","1.272852","-4.120019","-8.338135","6.900195"
"J","1617445941.5386868","7","51","52","50","25","-23","0.430969","0.887268","-0.036926","0.15979","0.618321","0.51145","0.717557","0.851758","18.855907","-3.902295","-2.238257","11.476001","1.754956","-4.007568","-8.704199","6.921729"
"J","1617445941.5288942","7","49","52","53","25","-23","0.438721","0.885681","-0.032532","0.148071","0.793893","0.458015","0.801527","0.48689","18.859497","-3.609204","-2.362671","11.337232","1.987036","-3.915454","-8.68147","6.878662"
"J","1617445941.5188098","7","48","51","54","25","-24","0.449402","0.882446","-0.026917","0.13623","1.114504","0.442748","0.908397","0.007178","18.591528","-3.680981","-2.585181","10.889819","1.79563","-3.947754","-8.104858","6.869092"
"J","1617445941.5087698","7","48","52","52","23","-24","0.465088","0.876343","-0.02063","0.123535","1.51145","0.480916","1.038168","-0.295483","18.229053","-3.935791","-2.604321","10.290479","1.324292","-3.814966","-7.120313","7.010254"
"J","1617445941.498781","7","50","53","52","25","-25","0.487061","0.866394","-0.013611","0.10907","1.961832","0.59542","1.19084","-0.352905","17.733789","-4.23606","-2.33396","9.491358","0.679492","-3.390283","-5.751758","7.168164"
"J","1617445941.48893","7","49","51","50","25","-27","0.515503","0.851929","-0.006104","0.091553","2.396947","0.717557","1.312977","-0.112451","17.061474","-4.324585","-1.702319","8.463745","0.101685","-2.544507","-4.196582","7.102368"
"J","1617445941.478783","7","47","50","50","25","-24","0.549622","0.832336","0.001709","0.070923","2.732824","0.793893","1.396947","0.088525","16.145117","-4.118823","-1.049145","7.175342","-0.33855","-1.617383","-2.613892","6.574805"
"J","1617445941.4689257","7","49","55","53","25","-25","0.587402","0.807739","0.010071","0.048096","2.916031","0.793893","1.435115","0.010767","14.898584","-3.612793","-0.634033","5.589063","-0.620874","-0.910376","-1.187915","5.456275"
"J","1617445941.458853","7","48","51","50","25","-24","0.62616","0.778992","0.019226","0.024658","2.900763","0.748092","1.458015","-0.364868","13.469019","-2.719165","-0.504834","3.898706","-0.616089","-0.545508","-0.267969","3.931006"
"J","1617445941.448842","7","49","52","53","24","-23","0.662903","0.748047","0.029175","0.001343","2.732824","0.687023","1.458015","-0.803906","12.593335","-1.475024","-0.443823","2.87229","-0.288306","-0.333765","-0.076563","2.899805"
"J","1617445941.4388351","7","49","51","51","24","-16","0.695496","0.717102","0.039551","-0.021179","2.503817","0.610687","1.374046","-1.296777","12.186597","-0.099292","-0.459375","2.42727","0.210547","-0.242847","-0.293091","2.448804"
"J","1617445941.428936","7","47","49","52","24","9","0.723511","0.687195","0.049316","-0.041809","2.282443","0.541985","1.221374","-1.867407","11.968872","1.110156","-0.604126","2.263379","0.613696","-0.299072","-0.498853","2.349512"
"J","1617445941.4187577","7","47","52","53","25","-23","0.747681","0.658691","0.057983","-0.059998","2.091603","0.496183","1.099237","-2.344727","11.833692","2.113843","-0.720166","2.249023","0.884058","-0.328979","-0.586182","2.429663"
"J","1617445941.4089324","7","52","51","52","25","-23","0.768616","0.631653","0.065491","-0.076416","1.931298","0.480916","1.007634","-2.731128","11.752344","2.964404","-0.797925","2.33396","1.069482","-0.309839","-0.576611","2.606714"
"J","1617445941.3988178","7","47","51","52","20","-24","0.787048","0.605774","0.071777","-0.091675","1.793893","0.51145","0.938931","-2.93689","11.68894","3.770703","-0.740503","2.472729","1.264477","-0.145947","-0.563452","2.813672"
"J","1617445941.388979","7","50","49","52","24","-23","0.803223","0.580994","0.076782","-0.106445","1.694656","0.541985","0.832061","-3.078052","11.653051","4.506421","-0.656763","2.666528","1.437939","0.058618","-0.50603","3.056519"
"J","1617445941.3787048","7","49","52","51","25","-23","0.817932","0.556824","0.080444","-0.120056","1.633588","0.549618","0.725191","-3.37832","11.537012","4.962207","-0.777588","2.799316","1.366162","0.05144","-0.204565","3.202466"
"J","1617445941.3690076","7","49","52","53","14","-63","0.831726","0.532715","0.082703","-0.132385","1.603053","0.564885","0.648855","-3.564941","11.296557","5.355786","-0.833813","2.826831","1.252515","0.072974","0.095703","3.198877"
"J","1617445941.3588312","7","49","52","52","25","-23","0.844788","0.508484","0.084045","-0.143738","1.59542","0.572519","0.587786","-3.666626","10.898193","5.689551","-0.842188","2.715576","1.095801","0.090918","0.362476","3.023022"
"J","1617445941.3486996","7","50","53","50","25","-24","0.8573","0.483826","0.084656","-0.154175","1.59542","0.587786","0.534351","-3.696533","10.3802","5.961108","-0.811084","2.506226","0.888843","0.102881","0.600537","2.711987"
"J","1617445941.3388195","7","48","53","50","25","-24","0.869141","0.45874","0.084534","-0.164001","1.564885","0.587786","0.503817","-3.6104","9.813159","6.298462","-0.695044","2.26936","0.763232","0.172266","0.705811","2.384204"
"J","1617445941.3288856","7","50","51","53","25","-16","0.880127","0.433777","0.084229","-0.17334","1.51145","0.564885","0.465649","-3.60083","9.34541","6.702807","-0.673511","2.148535","0.729736","0.186621","0.788355","2.222705"
"J","1617445941.3188417","7","49","49","51","25","-23","0.890015","0.409546","0.083923","-0.181763","1.419847","0.51145","0.427481","-3.811377","9.046338","7.160986","-0.887646","2.199975","0.785962","0.046655","0.945068","2.312427"
"J","1617445941.3089116","7","50","51","52","25","-17","0.89856","0.38678","0.083862","-0.189392","1.305344","0.458015","0.40458","-4.142749","8.972168","7.669409","-1.229785","2.471533","0.939087","-0.118433","1.210644","2.648584"
"J","1617445941.2988863","7","47","51","52","25","-16","0.905945","0.365662","0.083679","-0.196289","1.198473","0.442748","0.366412","-4.512403","9.046338","8.140747","-1.618579","2.874683","1.098193","-0.263184","1.597046","3.076855"
"J","1617445941.2888384","7","49","52","48","25","-24","0.912537","0.34552","0.082703","-0.202637","1.152672","0.480916","0.335878","-4.703809","9.08462","8.531934","-1.851856","3.232373","1.204663","-0.281128","1.973877","3.36875"
"J","1617445941.278955","7","52","53","52","25","-23","0.918762","0.325256","0.080505","-0.20874","1.160305","0.557252","0.305344","-4.632031","8.914746","8.817846","-1.850659","3.386694","1.217822","-0.173462","2.21792","3.379517"
"J","1617445941.268834","7","48","53","52","22","-23","0.924927","0.304016","0.076843","-0.214783","1.221374","0.664122","0.29771","-4.311426","8.527148","9.010449","-1.63772","3.338843","1.137671","0.027515","2.310034","3.1271"
"J","1617445941.25881","7","50","51","52","25","-24","0.931091","0.281128","0.071899","-0.221069","1.320611","0.740458","0.29771","-3.82334","7.933789","9.124097","-1.291992","3.11394","0.973779","0.26438","2.256201","2.673706"
"J","1617445941.2488186","7","51","52","52","25","-23","0.937134","0.256042","0.066528","-0.227478","1.442748","0.778626","0.305344","-3.349609","7.138257","9.10376","-0.985742","2.731128","0.675903","0.387598","2.131787","2.046851"
"J","1617445941.2389164","7","47","53","54","25","-16","0.942932","0.228821","0.061462","-0.233887","1.557252","0.770992","0.320611","-3.012256","6.120215","8.957812","-0.826636","2.172461","0.258398","0.290698","1.929614","1.288403"
"J","1617445941.2289598","7","49","51","50","24","-23","0.948181","0.199768","0.057068","-0.240234","1.641221","0.748092","0.328244","-2.855542","4.978955","8.695826","-0.85415","1.534839","-0.257202","-0.017944","1.708301","0.478516"
"J","1617445941.2189655","7","51","52","52","25","-15","0.952759","0.169556","0.052979","-0.246216","1.679389","0.770992","0.312977","-2.749072","3.759937","8.413501","-0.94148","0.848169","-0.766821","-0.421094","1.388892","-0.291895"
"J","1617445941.2090127","7","50","53","53","23","-23","0.956604","0.138977","0.047913","-0.251587","1.633588","0.847328","0.267176","-2.511011","2.619873","8.309423","-0.927124","0.250024","-1.065894","-0.704614","0.95105","-0.808691"
"J","1617445941.1988454","7","51","49","50","24","-25","0.959534","0.109436","0.040955","-0.256226","1.503817","0.916031","0.229008","-2.123413","1.748975","8.494848","-0.80271","-0.102881","-1.037183","-0.769214","0.539526","-0.919946"
"J","1617445941.1889522","7","52","50","52","25","-23","0.961426","0.082336","0.032471","-0.260254","1.328244","0.946565","0.198473","-1.762134","1.2573","8.821436","-0.729736","-0.128003","-0.823047","-0.709399","0.395972","-0.75127"
"J","1617445941.1789632","7","52","52","53","25","-24","0.962585","0.058044","0.023071","-0.263672","1.152672","0.923664","0.160305","-1.50852","1.014453","9.165967","-0.772803","0.038281","-0.557471","-0.651978","0.491675","-0.490479"
"J","1617445941.168842","7","48","53","54","24","-25","0.963013","0.036682","0.013367","-0.266418","1","0.877863","0.129771","-1.385303","0.939087","9.447095","-0.940283","0.31582","-0.321802","-0.645996","0.776392","-0.257202"
"J","1617445941.1591592","7","50","55","51","25","-23","0.963074","0.017639","0.003662","-0.268555","0.89313","0.839695","0.10687","-1.307544","0.957031","9.643286","-1.144849","0.642407","-0.149536","-0.645996","1.146045","-0.108862"
"J","1617445941.1491425","7","49","52","51","24","-23","0.962708","-0.000183","-0.005615","-0.270386","0.854962","0.793893","0.10687","-1.307544","0.869702","9.675586","-1.414014","0.843384","-0.123218","-0.765625","1.454687","-0.135181"
"J","1617445941.139015","7","51","52","50","25","-25","0.961975","-0.0177","-0.014648","-0.272156","0.862595","0.78626","0.137405","-1.317114","0.607715","9.528442","-1.686768","0.862524","-0.260791","-0.978564","1.60542","-0.345728"
"J","1617445941.1290429","7","49","52","52","24","-23","0.960632","-0.035706","-0.023987","-0.274475","0.885496","0.847328","0.183206","-1.1604","0.196191","9.205444","-1.804004","0.739307","-0.557471","-1.123315","1.527661","-0.714185"
"J","1617445941.1198452","7","49","52","52","26","-23","0.958618","-0.054321","-0.034851","-0.277161","0.89313","0.977099","0.206107","-0.689062","-0.312231","8.874072","-1.638916","0.517993","-0.843384","-1.074268","1.195093","-1.038379"
"J","1617445941.10889","7","48","52","52","25","-23","0.955994","-0.073425","-0.047607","-0.279968","0.877863","1.091603","0.206107","-0.019141","-0.826636","8.592944","-1.313525","0.287109","-1.056323","-0.892432","0.756055","-1.245337"
"J","1617445941.0997355","7","45","52","50","25","-23","0.95282","-0.092102","-0.061829","-0.28241","0.816794","1.160305","0.183206","0.582593","-1.250122","8.351294","-1.081445","0.126807","-1.205859","-0.75127","0.419897","-1.376929"
"J","1617445941.089306","7","49","49","52","25","-17","0.949341","-0.109558","-0.076843","-0.28418","0.709924","1.160305","0.145038","0.924731","-1.411621","8.121607","-1.114941","0.198584","-1.325488","-0.699829","0.410327","-1.542017"
"J","1617445941.079256","7","49","52","50","25","-24","0.945862","-0.124817","-0.092041","-0.285156","0.572519","1.129771","0.122137","1.006079","-1.201074","7.951734","-1.397266","0.598145","-1.376929","-0.667529","0.806299","-1.762134"
"J","1617445941.0690112","7","48","52","52","25","-15","0.942322","-0.137939","-0.107117","-0.285583","0.458015","1.083969","0.114504","0.903198","-0.787158","7.850049","-1.84707","1.1604","-1.351807","-0.6771","1.431958","-2.01814"
"J","1617445941.0590172","7","51","53","52","23","-23","0.93866","-0.149597","-0.122131","-0.285583","0.389313","1.068702","0.10687","0.707007","-0.440234","7.710083","-2.377026","1.628149","-1.357788","-0.789551","2.000195","-2.347119"
"J","1617445941.0492084","7","52","51","50","22","-16","0.934753","-0.160889","-0.13739","-0.285278","0.381679","1.091603","0.10687","0.617285","-0.252417","7.522265","-2.799316","1.926025","-1.398462","-0.893628","2.350708","-2.677295"
"J","1617445941.039096","7","51","50","50","25","-23","0.930298","-0.172729","-0.153381","-0.284851","0.427481","1.152672","0.129771","0.732129","-0.311035","7.213623","-3.027808","1.981055","-1.539624","-0.95105","2.355493","-3.000293"
"J","1617445941.029734","7","51","53","53","23","-16","0.924866","-0.185913","-0.170227","-0.284607","0.51145","1.236641","0.175573","1.039575","-0.668726","6.736304","-3.082837","1.751367","-1.817163","-0.991724","1.972681","-3.314917"
"J","1617445941.019025","7","48","49","53","25","-25","0.918274","-0.200623","-0.187988","-0.284851","0.603053","1.320611","0.206107","1.48938","-1.311133","6.103467","-3.013452","1.250122","-2.214331","-1.051538","1.241748","-3.590064"
"J","1617445941.0092273","7","49","52","53","25","-23","0.910583","-0.216492","-0.206543","-0.285156","0.648855","1.396947","0.198473","1.945166","-2.076758","5.341431","-2.950049","0.631641","-2.703613","-1.15083","0.352905","-3.867603"
"J","1617445940.9989812","7","50","53","52","25","-17","0.9021","-0.232056","-0.22583","-0.285278","0.59542","1.450382","0.183206","2.384204","-2.573218","4.62605","-2.905786","0.266772","-3.118726","-1.112549","-0.321802","-4.110449"
"J","1617445940.9898458","7","49","53","53","23","-16","0.893372","-0.24585","-0.245789","-0.284729","0.450382","1.465649","0.175573","2.722754","-2.546899","4.020728","-2.952441","0.385205","-3.41062","-0.85415","-0.553882","-4.410718"
"J","1617445940.9796991","7","49","52","50","23","-23","0.884705","-0.257141","-0.266357","-0.283264","0.274809","1.48855","0.145038","2.985938","-2.10188","3.530249","-3.060107","0.878076","-3.582886","-0.406738","-0.434253","-4.755249"
"J","1617445940.9696765","7","52","51","52","25","-23","0.876343","-0.265991","-0.287659","-0.280273","0.10687","1.51145","0.099237","3.263477","-1.364966","3.223999","-3.137866","1.623364","-3.567334","0.186621","-0.038281","-5.01604"
"J","1617445940.959061","7","49","51","49","24","-24","0.868164","-0.273132","-0.309326","-0.275696","0.007634","1.51145","0.083969","3.474023","-0.574219","2.960815","-3.264673","2.400952","-3.501538","0.764429","0.430664","-5.282813"
"J","1617445940.9491594","7","48","53","53","24","-23","0.859863","-0.279663","-0.330872","-0.270081","0","1.503817","0.076336","3.631934","-0.023926","2.593555","-3.423779","2.93689","-3.52666","1.205859","0.678296","-5.555566"
"J","1617445940.939754","7","51","51","50","25","-15","0.851013","-0.286621","-0.351868","-0.264221","0.068702","1.503817","0.091603","3.787451","0.136377","2.067188","-3.564941","3.0948","-3.695337","1.484595","0.5479","-5.781665"
"J","1617445940.9296448","7","48","49","52","25","-17","0.841187","-0.294861","-0.372314","-0.258484","0.198473","1.534351","0.091603","4.06499","-0.15791","1.368555","-3.566138","2.817261","-4.009961","1.642505","-0.04187","-5.833106"
"J","1617445940.9196455","7","49","54","50","25","-15","0.830078","-0.304871","-0.392334","-0.253174","0.328244","1.564885","0.083969","4.518384","-0.852954","0.596948","-3.377124","2.159302","-4.364062","1.687964","-0.982153","-5.593848"
"J","1617445940.9098632","7","49","52","51","25","-23","0.817871","-0.315796","-0.411865","-0.248413","0.389313","1.610687","0.076336","5.081836","-1.686768","-0.128003","-3.057715","1.369751","-4.647583","1.671216","-1.976269","-5.110547"
"J","1617445940.89984","7","49","54","50","25","-15","0.804932","-0.326477","-0.431335","-0.243774","0.351145","1.610687","0.053435","5.788843","-2.222705","-0.522778","-2.57561","0.866113","-4.586572","1.727441","-2.511011","-4.372437"
"J","1617445940.8898442","7","50","51","52","25","-25","0.792236","-0.335938","-0.450195","-0.238586","0.251908","1.526718","0.053435","6.182422","-2.304053","-0.777588","-2.378223","0.806299","-4.39397","1.833911","-2.569629","-3.954932"
"J","1617445940.8798404","7","48","53","54","25","-23","0.780212","-0.343445","-0.468018","-0.233093","0.145038","1.435115","0.068702","6.272143","-2.228687","-1.045557","-2.453589","0.884058","-4.240845","1.910474","-2.5146","-3.847266"
"J","1617445940.8698862","7","48","53","50","25","-17","0.768982","-0.348999","-0.484985","-0.227295","0.038168","1.358779","0.068702","6.351099","-2.097095","-1.290796","-2.513403","1.001294","-4.092505","2.020532","-2.416504","-3.759937"
"J","1617445940.8598957","7","48","52","50","25","-24","0.758545","-0.353027","-0.50116","-0.220947","-0.038168","1.312977","0.038168","6.457568","-1.933203","-1.512109","-2.521777","1.144849","-3.946558","2.164087","-2.286108","-3.649878"
"J","1617445940.849899","7","48","49","49","24","-23","0.748657","-0.356445","-0.516602","-0.213623","-0.068702","1.267176","-0.022901","6.57959","-1.829126","-1.796826","-2.493066","1.238159","-3.875977","2.32439","-2.233472","-3.51709"
"J","1617445940.8399174","7","48","52","52","24","-23","0.739136","-0.359924","-0.530945","-0.205505","-0.061069","1.206107","-0.068702","6.635816","-1.845874","-2.172461","-2.505029","1.228589","-3.90708","2.45","-2.320801","-3.414209"
"J","1617445940.8297708","7","48","54","53","25","-23","0.72998","-0.363586","-0.544128","-0.197205","-0.038168","1.160305","-0.068702","6.709985","-2.039673","-2.59834","-2.479907","1.058716","-4.00398","2.511011","-2.555274","-3.234766"
"J","1617445940.8198824","7","49","52","52","25","-27","0.720825","-0.367126","-0.556519","-0.189514","-0.007634","1.145038","-0.061069","6.964795","-2.319604","-2.989526","-2.260986","0.799121","-4.076953","2.549292","-2.796924","-2.835205"
"J","1617445940.8097863","7","47","51","50","25","-23","0.711426","-0.370544","-0.568665","-0.182251","0","1.129771","-0.053435","7.426562","-2.549292","-3.263477","-1.825537","0.586182","-4.033887","2.593555","-2.87229","-2.22749"
"J","1617445940.79993","7","50","52","53","25","-23","0.702087","-0.373779","-0.580261","-0.175232","0","1.083969","-0.045802","7.822534","-2.694043","-3.556567","-1.445117","0.455786","-4.018335","2.673706","-2.896216","-1.702319"
"J","1617445940.7897978","7","47","54","52","25","-24","0.693054","-0.376587","-0.591125","-0.16864","-0.007634","1.015267","-0.038168","8.188599","-2.845972","-3.746777","-1.085034","0.314624","-3.917847","2.660547","-2.847168","-1.196289"
"J","1617445940.7798984","7","49","52","50","25","-17","0.684692","-0.379089","-0.601013","-0.162354","-0.015267","0.908397","-0.045802","8.426661","-3.0302","-3.81377","-0.84458","0.143555","-3.718066","2.508618","-2.757446","-0.808691"
"J","1617445940.7698307","7","49","53","49","25","-23","0.677368","-0.381287","-0.609375","-0.156494","-0.007634","0.778626","-0.068702","8.378809","-3.233569","-3.854443","-0.880469","-0.039478","-3.52666","2.280127","-2.741894","-0.701025"
"J","1617445940.7598746","7","48","52","50","25","-23","0.671265","-0.38324","-0.616211","-0.151245","-0.015267","0.671756","-0.099237","8.202954","-3.429761","-3.816162","-1.039575","-0.214136","-3.29458","1.99541","-2.729932","-0.734522"
"J","1617445940.7499506","7","51","36","51","25","-23","0.666138","-0.385071","-0.621765","-0.146301","-0.015267","0.580153","-0.122137","8.047437","-3.530249","-3.678589","-1.17356","-0.284717","-2.994312","1.734619","-2.601929","-0.800317"
"J","1617445940.739809","7","48","49","52","25","-17","0.661804","-0.386719","-0.626343","-0.141846","-0.022901","0.51145","-0.099237","7.976855","-3.616382","-3.495557","-1.222607","-0.340942","-2.673706","1.47981","-2.430859","-0.808691"
"J","1617445940.729798","7","48","54","52","25","-23","0.65802","-0.387817","-0.630554","-0.138123","-0.045802","0.458015","-0.061069","8.009155","-3.648682","-3.271851","-1.172363","-0.352905","-2.331567","1.252515","-2.189209","-0.756055"
"J","1617445940.7198925","7","49","53","53","25","-23","0.654602","-0.388184","-0.634583","-0.134766","-0.068702","0.427481","-0.030534","8.139551","-3.585278","-3.038574","-1.027612","-0.279932","-1.991821","1.095801","-1.862622","-0.653174"
"J","1617445940.709843","7","51","49","53","25","-15","0.651367","-0.388","-0.638672","-0.131592","-0.091603","0.412214","-0.015267","8.370435","-3.491968","-2.813672","-0.783569","-0.185425","-1.667627","0.976172","-1.500147","-0.47373"
"J","1617445940.6998088","7","51","52","52","26","-23","0.648254","-0.387695","-0.6427","-0.128296","-0.091603","0.381679","-0.007634","8.631226","-3.472827","-2.679688","-0.509619","-0.162695","-1.437939","0.874487","-1.236963","-0.238062"
"J","1617445940.6899292","7","49","51","53","25","-16","0.645386","-0.387268","-0.646423","-0.125183","-0.091603","0.335878","-0.015267","8.825025","-3.541016","-2.585181","-0.301465","-0.227295","-1.254907","0.734522","-1.083838","-0.033496"
"J","1617445940.6800776","7","51","53","53","27","-23","0.642944","-0.386963","-0.649597","-0.122192","-0.083969","0.259542","-0.022901","8.852539","-3.618774","-2.506226","-0.259595","-0.297876","-1.100586","0.584985","-1.010864","0.016748"
"J","1617445940.6698456","7","48","53","53","25","-17","0.641235","-0.386658","-0.651917","-0.119751","-0.083969","0.183206","-0.022901","8.670703","-3.701318","-2.476318","-0.429468","-0.37085","-1.015649","0.458179","-1.061108","-0.120825"
"J","1617445940.6598818","7","50","51","52","25","-23","0.64032","-0.386047","-0.653564","-0.117859","-0.091603","0.145038","-0.007634","8.527148","-3.768311","-2.442822","-0.567041","-0.433057","-0.949854","0.35769","-1.107764","-0.233276"
"J","1617445940.649917","7","51","49","52","24","-24","0.639709","-0.38501","-0.655029","-0.116394","-0.114504","0.129771","0.007634","8.541504","-3.714478","-2.361475","-0.549097","-0.38042","-0.846973","0.321802","-0.998901","-0.248828"
"J","1617445940.639744","7","49","51","52","25","-23","0.639221","-0.383423","-0.656677","-0.114868","-0.145038","0.145038","0.030534","8.656347","-3.551782","-2.257397","-0.433057","-0.226099","-0.723755","0.34812","-0.771606","-0.211743"
"J","1617445940.6299024","7","48","49","47","25","-23","0.638672","-0.38147","-0.65863","-0.11322","-0.160305","0.152672","0.053435","8.865698","-3.338843","-2.150928","-0.224902","-0.025122","-0.595752","0.409131","-0.476123","-0.105273"
"J","1617445940.619855","7","50","52","52","25","-23","0.638062","-0.379211","-0.660828","-0.11145","-0.167939","0.152672","0.076336","9.06189","-3.135474","-2.055225","-0.029907","0.162695","-0.477319","0.462964","-0.19978","-0.004785"
"J","1617445940.6097927","7","47","51","50","26","-23","0.637512","-0.376709","-0.663086","-0.109802","-0.167939","0.129771","0.091603","9.195874","-2.966797","-1.957129","0.099292","0.312231","-0.35769","0.482104","0.027515","0.045459"
"J","1617445940.600037","7","50","55","53","22","-16","0.637146","-0.374207","-0.6651","-0.108337","-0.160305","0.083969","0.091603","9.1875","-2.824439","-1.880566","0.086133","0.435449","-0.265576","0.488086","0.168677","-0.020337"
"J","1617445940.5900812","7","51","55","52","25","-17","0.637207","-0.371948","-0.666504","-0.106995","-0.145038","0.038168","0.076336","9.045141","-2.709595","-1.815967","-0.058618","0.537134","-0.197388","0.485693","0.233276","-0.19978"
"J","1617445940.5798156","7","49","49","52","25","-19","0.637634","-0.369934","-0.667358","-0.105835","-0.122137","-0.007634","0.061069","8.844165","-2.70481","-1.78606","-0.263184","0.533545","-0.173462","0.446216","0.174658","-0.392383"
"J","1617445940.5699575","7","49","49","50","25","-15","0.638306","-0.368347","-0.667725","-0.105103","-0.083969","-0.015267","0.053435","8.647974","-2.836401","-1.831519","-0.46416","0.395972","-0.233276","0.387598","-0.027515","-0.523975"
"J","1617445940.5600235","7","51","52","49","25","-23","0.638855","-0.367004","-0.667969","-0.104858","-0.061069","0","0.053435","8.618067","-3.014648","-1.882959","-0.500049","0.206958","-0.29668","0.31582","-0.211743","-0.484497"
"J","1617445940.549853","7","53","53","52","25","-23","0.639099","-0.365784","-0.668457","-0.104736","-0.061069","0.038168","0.061069","8.74248","-3.111548","-1.930811","-0.381616","0.098096","-0.350513","0.301465","-0.278735","-0.330176"
"J","1617445940.539997","7","48","52","51","25","-25","0.638916","-0.364441","-0.669312","-0.104675","-0.068702","0.068702","0.076336","8.980542","-3.134277","-1.954736","-0.14834","0.056226","-0.369653","0.309839","-0.235669","-0.095703"
"J","1617445940.5299592","7","48","51","52","22","-24","0.63855","-0.362793","-0.670654","-0.104492","-0.091603","0.083969","0.091603","9.258081","-3.090015","-1.930811","0.120825","0.076563","-0.334961","0.318213","-0.104077","0.142358"
"J","1617445940.519978","7","49","53","52","25","-24","0.638123","-0.360779","-0.67218","-0.104065","-0.122137","0.083969","0.091603","9.477002","-2.969189","-1.88894","0.333765","0.171069","-0.281128","0.350513","0.070581","0.301465"
"J","1617445940.509929","7","48","54","52","25","-15","0.637939","-0.358582","-0.673706","-0.103271","-0.137405","0.053435","0.091603","9.542798","-2.811279","-1.809985","0.392383","0.307446","-0.193799","0.368457","0.244043","0.300269"
"J","1617445940.500029","7","50","53","52","25","-24","0.638123","-0.356262","-0.674805","-0.102417","-0.145038","0.007634","0.083969","9.437525","-2.66294","-1.734619","0.282324","0.437842","-0.120825","0.381616","0.344531","0.144751"
"J","1617445940.4900513","7","49","54","49","25","-23","0.638855","-0.354126","-0.675415","-0.101624","-0.122137","-0.045802","0.076336","9.186304","-2.589966","-1.696338","0.022729","0.498853","-0.096899","0.38042","0.313428","-0.119629"
"J","1617445940.4799235","7","49","27","56","27","-17","0.639832","-0.352295","-0.675476","-0.101257","-0.083969","-0.061069","0.068702","8.920728","-2.641406","-1.72146","-0.248828","0.435449","-0.145947","0.362476","0.145947","-0.345728"
"J","1617445940.4699686","7","50","54","53","25","-24","0.640808","-0.350891","-0.675293","-0.101379","-0.045802","-0.045802","0.061069","8.799902","-2.74668","-1.752563","-0.378027","0.318213","-0.200977","0.325391","-0.014355","-0.421094"
"J","1617445940.4599893","7","49","49","50","25","-24","0.641296","-0.349854","-0.675293","-0.101746","-0.022901","-0.015267","0.053435","8.810669","-2.842383","-1.784863","-0.374438","0.208154","-0.247632","0.29668","-0.119629","-0.376831"
"J","1617445940.4498825","7","54","53","54","25","-16","0.641418","-0.349121","-0.675476","-0.102173","-0.015267","0.022901","0.045802","8.918335","-2.917749","-1.800415","-0.272754","0.118433","-0.267969","0.265576","-0.162695","-0.250024"
"J","1617445940.4399517","7","49","53","52","25","-23","0.641174","-0.34845","-0.676025","-0.102356","-0.022901","0.053435","0.038168","9.08462","-2.951245","-1.781274","-0.108862","0.070581","-0.244043","0.228491","-0.126807","-0.084937"
"J","1617445940.429987","7","50","56","54","25","-16","0.640747","-0.347778","-0.676819","-0.102295","-0.045802","0.061069","0.030534","9.231763","-2.915356","-1.740601","0.033496","0.094507","-0.191406","0.210547","-0.029907","0.0323"
"J","1617445940.4198442","7","49","52","50","25","-24","0.640381","-0.346863","-0.677673","-0.101807","-0.076336","0.045802","0.022901","9.286792","-2.792139","-1.681982","0.088525","0.208154","-0.122021","0.227295","0.112451","0.038281"
"J","1617445940.410118","7","47","53","53","25","-17","0.64032","-0.345825","-0.678406","-0.101013","-0.083969","0.022901","0.030534","9.258081","-2.650977","-1.620972","0.058618","0.345728","-0.056226","0.25481","0.242847","-0.040674"
"J","1617445940.400114","7","51","57","53","25","-23","0.640564","-0.344788","-0.678833","-0.10022","-0.068702","-0.015267","0.022901","9.132471","-2.57561","-1.59585","-0.066992","0.418701","-0.033496","0.271558","0.267969","-0.185425"
"J","1617445940.3899066","7","53","51","52","26","-23","0.640991","-0.344055","-0.678833","-0.099731","-0.038168","-0.038168","0.015267","8.921924","-2.606714","-1.632935","-0.278735","0.388794","-0.080151","0.278735","0.147144","-0.367261"
"J","1617445940.3807683","7","49","51","51","24","-23","0.641479","-0.343811","-0.678528","-0.099609","0.007634","-0.030534","0.007634","8.744873","-2.735913","-1.702319","-0.456982","0.261987","-0.161499","0.257202","-0.052637","-0.483301"
"J","1617445940.3699985","7","51","55","54","25","-23","0.641663","-0.343994","-0.678223","-0.099915","0.038168","-0.007634","0","8.706592","-2.916553","-1.74419","-0.49646","0.081348","-0.209351","0.185425","-0.227295","-0.458179"
"J","1617445940.360716","7","51","53","50","25","-17","0.641479","-0.344421","-0.678101","-0.100342","0.038168","0.030534","-0.007634","8.756836","-3.05293","-1.758545","-0.446216","-0.055029","-0.220117","0.11604","-0.318213","-0.367261"
"J","1617445940.3500972","7","49","51","53","25","-25","0.640869","-0.344788","-0.678467","-0.100708","0.015267","0.068702","-0.007634","8.893213","-3.073267","-1.720264","-0.308643","-0.081348","-0.16748","0.066992","-0.260791","-0.238062"
"J","1617445940.3400989","7","50","53","50","25","-23","0.640137","-0.344788","-0.679138","-0.100586","-0.022901","0.083969","0","9.066675","-2.991919","-1.65686","-0.133984","-0.004785","-0.086133","0.057422","-0.098096","-0.110059"
"J","1617445940.3299844","7","51","55","52","26","-24","0.639343","-0.344482","-0.680115","-0.100037","-0.061069","0.076336","0.007634","9.165967","-2.832813","-1.580298","-0.031104","0.149536","0.010767","0.077759","0.10647","-0.075366"
"J","1617445940.31998","7","49","52","78","24","-16","0.638916","-0.34375","-0.68103","-0.09906","-0.091603","0.045802","0.015267","9.142041","-2.634228","-1.515698","-0.052637","0.34812","0.089722","0.131592","0.291895","-0.169873"
"J","1617445940.3106594","7","47","51","49","25","-23","0.638916","-0.342773","-0.681702","-0.097961","-0.091603","-0.007634","0.015267","8.969775","-2.488281","-1.492969","-0.224902","0.495264","0.117236","0.186621","0.358887","-0.38042"
"J","1617445940.3001246","7","50","52","52","25","-16","0.639465","-0.341797","-0.681824","-0.097107","-0.068702","-0.030534","0.015267","8.698217","-2.45","-1.539624","-0.497656","0.535937","0.061011","0.240454","0.26438","-0.640015"
"J","1617445940.289992","7","50","48","52","25","-25","0.640015","-0.341064","-0.681702","-0.09668","-0.030534","-0.022901","0.015267","8.569018","-2.502637","-1.589868","-0.628052","0.483301","-0.001196","0.252417","0.145947","-0.735718"
"J","1617445940.2801163","7","52","53","52","25","-23","0.64032","-0.340759","-0.681641","-0.096619","0.007634","0","0.015267","8.579785","-2.633032","-1.655664","-0.619678","0.351709","-0.072974","0.233276","0.010767","-0.6771"
"J","1617445940.2706923","7","48","52","50","25","-23","0.640076","-0.340881","-0.681763","-0.096863","0.053435","0.022901","0.015267","8.659937","-2.817261","-1.752563","-0.539526","0.163892","-0.165088","0.200977","-0.154321","-0.52876"
"J","1617445940.2601054","7","48","51","51","25","-24","0.639343","-0.341431","-0.682007","-0.097473","0.068702","0.045802","0.015267","8.75564","-2.993115","-1.849463","-0.442627","-0.016748","-0.247632","0.166284","-0.303857","-0.369653"
"J","1617445940.250009","7","49","51","51","25","-23","0.638428","-0.34198","-0.682495","-0.098206","0.061069","0.061069","0.007634","8.83938","-3.069678","-1.898511","-0.358887","-0.104077","-0.276343","0.142358","-0.35769","-0.259595"
"J","1617445940.2406666","7","51","52","49","25","-23","0.637512","-0.342346","-0.683105","-0.098755","0.030534","0.053435","0.007634","8.88125","-3.009863","-1.929614","-0.31582","-0.053833","-0.285913","0.181836","-0.311035","-0.23208"
"J","1617445940.2307403","7","49","49","51","25","-23","0.63678","-0.342346","-0.683716","-0.09906","-0.007634","0.038168","0.015267","8.871679","-2.855542","-1.952344","-0.325391","0.089722","-0.291895","0.272754","-0.210547","-0.282324"
"J","1617445940.22065","7","50","53","51","25","-23","0.636414","-0.34198","-0.684265","-0.099121","-0.030534","0.030534","0.030534","8.844165","-2.679688","-1.969092","-0.355298","0.256006","-0.299072","0.375635","-0.100488","-0.358887"
"J","1617445940.210701","7","50","52","50","25","-23","0.636353","-0.341248","-0.684692","-0.09906","-0.045802","0.007634","0.030534","8.826221","-2.49187","-1.958325","-0.375635","0.434253","-0.287109","0.471338","0.0323","-0.433057"
"J","1617445940.200848","7","27","53","51","25","-26","0.636536","-0.340515","-0.684937","-0.098877","-0.030534","-0.015267","0.030534","8.756836","-2.380615","-1.952344","-0.447412","0.539526","-0.284717","0.52876","0.088525","-0.532349"
"J","1617445937.852824","7","49","53","52","25","-25","0.535889","0.801392","0.008972","0.265381","0.603053","0.51145","1.145038","1.41521","15.259863","-1.524072","-2.658154","6.794922","1.265674","-3.567334","-4.764819","4.402344"
"J","1617445937.8431544","7","50","49","53","25","-24","0.547668","0.79834","0.015259","0.249878","0.70229","0.557252","1.129771","1.412817","15.174927","-1.114941","-2.332764","6.530542","1.581494","-3.01106","-4.675097","4.433447"
"J","1617445937.8330448","7","25","52","53","25","-24","0.560364","0.79425","0.020813","0.233765","0.78626","0.549618","1.099237","1.280029","14.933276","-0.723755","-2.129395","6.114233","1.849463","-2.563648","-4.524365","4.274341"
"J","1617445937.8230102","7","49","51","53","26","-23","0.573669","0.789124","0.026306","0.217773","0.824427","0.480916","1.068702","0.903198","14.780151","-0.393579","-2.168872","5.794824","2.025317","-2.409326","-4.414307","4.131982"
"J","1617445937.8131766","7","51","53","52","25","-23","0.586975","0.783081","0.032166","0.202759","0.839695","0.396947","1.030534","0.236865","14.845947","-0.139966","-2.505029","5.708692","2.099487","-2.618677","-4.386792","4.141553"
"J","1617445937.803043","7","51","49","61","25","-24","0.600098","0.776306","0.037964","0.189026","0.839695","0.389313","1","-0.374438","15.170141","0.086133","-2.802905","5.897705","2.125806","-2.863916","-4.383203","4.441821"
"J","1617445937.792989","7","50","53","53","25","-24","0.612793","0.769165","0.043396","0.175659","0.832061","0.412214","1.007634","-0.797925","15.649854","0.397168","-2.92373","6.261377","2.229883","-2.940479","-4.42627","4.945459"
"J","1617445937.7831388","7","52","53","50","25","-7","0.625244","0.761902","0.048401","0.161865","0.870229","0.458015","1.022901","-1.009668","16.072144","0.717773","-2.832813","6.580786","2.341138","-2.79812","-4.379614","5.457471"
"J","1617445937.7730346","7","49","52","53","25","-24","0.638","0.753906","0.052856","0.147278","0.969466","0.541985","1.030534","-1.012061","16.127172","1.05752","-2.526562","6.546094","2.452393","-2.400952","-4.176245","5.658447"
"J","1617445937.7629468","7","48","53","51","26","-24","0.651917","0.744568","0.056213","0.131714","1.137405","0.618321","0.961832","-0.953442","15.83169","1.327881","-2.156909","6.171655","2.455981","-1.948755","-3.783862","5.534033"
"J","1617445937.75376","7","48","52","52","25","-23","0.667603","0.733093","0.057739","0.115906","1.320611","0.656489","0.923664","-0.91875","15.194067","1.559961","-1.82793","5.469434","2.359082","-1.565942","-3.271851","5.063891"
"J","1617445937.7430942","7","51","53","52","25","-26","0.685059","0.719177","0.058594","0.099854","1.450382","0.633588","0.954198","-0.884058","14.42605","1.855444","-1.503735","4.654761","2.25979","-1.201074","-2.786157","4.451392"
"J","1617445937.7337396","7","49","53","52","25","-37","0.70343","0.703125","0.060486","0.083679","1.51145","0.534351","0.992366","-1.094604","13.786036","2.167676","-1.412817","3.992017","2.130591","-1.080249","-2.383008","3.950146"
"J","1617445937.7233324","7","48","51","52","25","-24","0.721802","0.68573","0.064087","0.068054","1.48855","0.419847","1.022901","-1.586279","13.387671","2.49187","-1.593457","3.60083","1.988232","-1.232178","-2.065991","3.696533"
"J","1617445937.7137258","7","51","49","52","25","-23","0.739197","0.667786","0.068726","0.053345","1.412214","0.389313","0.984733","-2.089917","13.351782","2.945264","-1.792041","3.604419","1.978662","-1.375732","-1.875781","3.834106"
"J","1617445937.7029634","7","49","54","53","25","-49","0.755127","0.650269","0.072937","0.039368","1.335878","0.396947","0.923664","-2.339942","13.565918","3.619971","-1.762134","3.884351","2.211938","-1.242944","-1.843481","4.257593"
"J","1617445937.6939094","7","50","54","52","25","-23","0.769775","0.633118","0.076355","0.02594","1.320611","0.412214","0.854962","-2.564844","13.624537","4.258789","-1.734619","4.032691","2.429663","-1.117334","-1.801611","4.545898"
"J","1617445937.6830742","7","47","54","50","25","-25","0.783936","0.615601","0.078857","0.013245","1.366412","0.427481","0.801527","-2.674902","13.387671","4.815063","-1.622168","3.908276","2.564844","-0.943872","-1.716675","4.54231"
"J","1617445937.6737647","7","48","52","50","25","-25","0.798096","0.597046","0.080566","0.000916","1.435115","0.450382","0.770992","-2.635425","12.878052","5.292383","-1.385303","3.536231","2.606714","-0.693848","-1.604224","4.261182"
"J","1617445937.6638105","7","48","52","52","26","-23","0.812378","0.577209","0.081665","-0.011292","1.496183","0.48855","0.755725","-2.466748","12.289477","5.718262","-1.038379","3.116333","2.579199","-0.363672","-1.463062","3.893921"
"J","1617445937.6531515","7","49","53","51","25","-17","0.826538","0.556274","0.082275","-0.02356","1.557252","0.503817","0.740458","-2.257397","11.690137","6.054419","-0.667529","2.715576","2.452393","-0.033496","-1.26687","3.495557"
"J","1617445937.6439295","7","49","49","51","23","-23","0.840515","0.53418","0.082886","-0.035828","1.59542","0.496183","0.725191","-2.225098","11.084814","6.172852","-0.484497","2.342334","2.099487","0.08374","-0.911572","3.046948"
"J","1617445937.6331904","7","48","51","52","25","-23","0.854126","0.510986","0.083313","-0.047791","1.633588","0.51145","0.732824","-2.231079","10.477099","6.160889","-0.35769","2.000195","1.61499","0.132788","-0.477319","2.546899"
"J","1617445937.6230922","7","50","52","52","24","-24","0.867493","0.486633","0.083313","-0.059937","1.664122","0.557252","0.740458","-2.074365","9.817945","6.108252","-0.084937","1.641309","1.086231","0.313428","-0.072974","1.942773"
"J","1617445937.613099","7","47","49","50","25","-23","0.880493","0.460999","0.082581","-0.072571","1.687023","0.625954","0.740458","-1.678394","9.041553","6.1573","0.401953","1.202271","0.656763","0.687866","0.11604","1.244141"
"J","1617445937.603868","7","49","53","50","25","-23","0.893005","0.434265","0.081177","-0.085632","1.70229","0.641221","0.717557","-1.305151","8.073755","6.28291","0.843384","0.608911","0.308643","0.977368","0.056226","0.466553"
"J","1617445937.5937448","7","49","52","50","25","-23","0.904602","0.406982","0.079651","-0.098328","1.664122","0.625954","0.671756","-1.11853","7.023413","6.52815","1.077856","-0.038281","0.099292","1.039575","-0.221313","-0.203369"
"J","1617445937.583928","7","49","54","52","25","-25","0.914917","0.380371","0.077942","-0.110046","1.557252","0.587786","0.580153","-1.092212","6.105859","6.949243","1.125708","-0.546704","0.104077","0.947461","-0.608911","-0.552686"
"J","1617445937.573748","7","50","52","52","25","-25","0.923584","0.355957","0.076355","-0.120056","1.374046","0.496183","0.473282","-1.307544","5.528052","7.487573","0.911572","-0.735718","0.284717","0.68667","-0.872095","-0.466553"
"J","1617445937.5638907","7","51","52","52","25","-23","0.930359","0.335083","0.075195","-0.128052","1.122137","0.374046","0.366412","-1.820752","5.404834","7.997192","0.391187","-0.515601","0.509619","0.252417","-0.783569","-0.00957"
"J","1617445937.5537956","7","49","51","54","25","-23","0.935303","0.318787","0.074585","-0.13385","0.824427","0.251908","0.274809","-2.473926","5.852246","8.397949","-0.269165","0.203369","0.699829","-0.15791","-0.221313","0.727344"
"J","1617445937.54395","7","50","54","53","25","-24","0.938599","0.307373","0.073975","-0.137878","0.534351","0.19084","0.19084","-2.984741","6.782959","8.703003","-0.79314","1.327881","0.862524","-0.302661","0.679492","1.60542"
"J","1617445937.5337586","7","51","55","56","25","-23","0.940613","0.299988","0.072754","-0.140808","0.320611","0.198473","0.122137","-3.25271","7.990015","8.931494","-1.082642","2.659351","1.000098","-0.154321","1.728638","2.494263"
"J","1617445937.5237796","7","47","52","52","25","-23","0.942078","0.294861","0.070557","-0.143127","0.236641","0.236641","0.083969","-3.36875","9.076245","9.035571","-1.238159","3.829321","1.037183","0.066992","2.690454","3.165381"
"J","1617445937.5137525","7","48","76","52","25","-23","0.943665","0.289307","0.067444","-0.145386","0.335878","0.305344","0.099237","-3.31731","9.614575","9.017627","-1.245337","4.45498","0.947461","0.25481","3.276636","3.387891"
"J","1617445937.50378","7","49","49","53","23","-24","0.946167","0.280457","0.063721","-0.148499","0.59542","0.389313","0.167939","-3.048145","9.225781","8.853735","-1.049145","4.209741","0.674707","0.363672","3.247925","2.930908"
"J","1617445937.4938042","7","49","53","50","25","-27","0.949829","0.266174","0.059753","-0.152771","0.946565","0.473282","0.236641","-2.57561","7.830908","8.58816","-0.665137","3.054126","0.246436","0.361279","2.520581","1.826733"
"J","1617445937.483925","7","48","54","52","26","-23","0.95459","0.246216","0.055847","-0.15802","1.251908","0.534351","0.290076","-2.099487","5.748169","8.383594","-0.291895","1.313525","-0.166284","0.151929","1.248926","0.502441"
"J","1617445937.473968","7","45","48","50","25","-23","0.959595","0.222595","0.051941","-0.163757","1.381679","0.564885","0.320611","-1.774097","3.701318","8.421875","-0.082544","-0.318213","-0.352905","-0.193799","-0.088525","-0.43186"
"J","1617445937.4639363","7","44","53","50","25","-23","0.963989","0.198853","0.048157","-0.169617","1.328244","0.541985","0.267176","-1.674805","2.434448","8.81665","-0.102881","-1.161597","-0.161499","-0.502441","-0.905591","-0.557471"
"J","1617445937.453893","7","48","53","50","25","-23","0.96759","0.177002","0.044434","-0.174194","1.206107","0.48855","0.198473","-2.033691","1.900903","9.235352","-0.586182","-1.303955","0.088525","-1.006079","-0.985742","-0.257202"
"J","1617445937.4440336","7","49","53","55","25","-27","0.970459","0.157898","0.04071","-0.177734","1.007634","0.442748","0.183206","-2.403345","1.742993","9.602612","-1.077856","-1.11853","0.322998","-1.398462","-0.736914","0.124414"
"J","1617445937.434012","7","49","51","52","25","-23","0.972412","0.142517","0.036621","-0.180969","0.778626","0.435115","0.160305","-2.683276","2.06958","9.956714","-1.478613","-0.516797","0.5802","-1.552783","-0.124414","0.599341"
"J","1617445937.423974","7","48","53","54","25","-23","0.973694","0.130615","0.031433","-0.183838","0.564885","0.458015","0.129771","-2.828027","2.817261","10.282104","-1.757349","0.436646","0.836206","-1.463062","0.783569","1.102978"
"J","1617445937.4138348","7","54","49","50","25","-23","0.974609","0.121399","0.025024","-0.186462","0.412214","0.496183","0.114504","-2.880664","3.712085","10.508204","-1.958325","1.483398","1.008472","-1.26687","1.787256","1.497754"
"J","1617445937.4039035","7","45","51","52","27","-24","0.97522","0.113525","0.017639","-0.188965","0.343511","0.541985","0.10687","-2.865112","4.471728","10.627832","-2.106665","2.36626","1.086231","-1.081445","2.655762","1.727441"
"J","1617445937.3940103","7","44","49","51","25","-23","0.975769","0.105225","0.009277","-0.191528","0.396947","0.610687","0.114504","-2.732324","4.828223","10.600317","-2.159302","2.84956","1.019238","-0.952246","3.166577","1.697534"
"J","1617445937.3838346","7","45","52","54","25","-23","0.976318","0.094666","0","-0.194458","0.549618","0.687023","0.145038","-2.412915","4.60332","10.387378","-2.051636","2.790942","0.763232","-0.863721","3.166577","1.339844"
"J","1617445937.3741531","7","47","52","54","25","-25","0.976807","0.080627","-0.009888","-0.197937","0.778626","0.763359","0.183206","-1.932007","3.768311","9.955518","-1.807593","2.18562","0.284717","-0.837402","2.643799","0.655566"
"J","1617445937.364004","7","49","51","52","25","-25","0.977173","0.062866","-0.020081","-0.201965","0.984733","0.832061","0.198473","-1.418799","2.508618","9.369336","-1.55398","1.225","-0.344531","-0.922339","1.771704","-0.202173"
"J","1617445937.3539338","7","49","56","51","25","-23","0.977051","0.042664","-0.030823","-0.20636","1.083969","0.900763","0.229008","-0.916357","1.330273","8.860913","-1.333862","0.387598","-0.884058","-0.99292","0.955835","-0.898413"
"J","1617445937.3440285","7","47","48","31","25","-24","0.976257","0.021912","-0.042114","-0.211121","1.091603","0.938931","0.259542","-0.48689","0.717773","8.592944","-1.201074","0.123218","-1.161597","-0.931909","0.637622","-1.235767"
"J","1617445937.3339195","7","44","49","53","25","-27","0.974792","0.001282","-0.053894","-0.216248","1.061069","0.977099","0.282443","-0.198584","0.379224","8.363256","-1.222607","0.12561","-1.378125","-0.902002","0.600537","-1.494165"
"J","1617445937.3240566","7","45","53","51","26","-23","0.972656","-0.018982","-0.066589","-0.221558","1.022901","1.038168","0.282443","0.178247","0.052637","8.170654","-1.17356","0.124414","-1.533643","-0.807495","0.512012","-1.680786"
"J","1617445937.3140233","7","49","53","54","25","-23","0.969849","-0.03894","-0.080383","-0.226685","0.984733","1.099237","0.282443","0.640015","-0.281128","8.016333","-1.059912","0.101685","-1.626953","-0.666333","0.367261","-1.788452"
"J","1617445937.303913","7","48","55","52","25","-27","0.96637","-0.058594","-0.095093","-0.231567","0.954198","1.152672","0.274809","1.208252","-0.71897","7.906274","-0.857739","-0.040674","-1.648486","-0.509619","0.078955","-1.784863"
