"Alphabet","timestamp","user_id","flex_1","flex_2","flex_3","flex_4","flex_5","Qw","Qx","Qy","Qz","GYRx","GYRy","GYRz","ACCx","ACCy","ACCz","ACCx_body","ACCy_body","ACCz_body","ACCx_world","ACCy_world","ACCz_world"
"K","1617446024.4618948","7","-3","-1","-10","85","15","0.672485","0.011169","-0.736633","-0.07074","-0.007634","0","-0.007634","9.421972","1.159204","-0.861328","-0.271558","-0.008374","-0.022729","0.046655","0.019141","-0.266772"
"K","1617446024.4518237","7","-1","0","-8","46","12","0.672424","0.011047","-0.736694","-0.070679","0","0.007634","-0.007634","9.475805","1.126904","-0.86731","-0.217725","-0.038281","-0.027515","0.044263","-0.015552","-0.216528"
"K","1617446024.4417443","7","-1","-1","-10","50","16","0.672302","0.010925","-0.736816","-0.070618","0.007634","0.007634","-0.007634","9.516479","1.081445","-0.887646","-0.177051","-0.081348","-0.044263","0.053833","-0.0646","-0.18064"
"K","1617446024.4320276","7","1","0","-9","52","16","0.67218","0.010742","-0.736938","-0.07074","0.007634","0.007634","-0.007634","9.532031","1.046753","-0.917554","-0.161499","-0.11604","-0.070581","0.075366","-0.102881","-0.166284"
"K","1617446024.421767","7","3","1","-7","51","15","0.672119","0.010681","-0.737","-0.070862","0","0","-0.007634","9.548779","1.045557","-0.945068","-0.144751","-0.118433","-0.096899","0.100488","-0.108862","-0.14834"
"K","1617446024.411888","7","1","1","-6","48","12","0.672058","0.01062","-0.737","-0.070923","0","0","-0.007634","9.546387","1.056323","-0.965405","-0.145947","-0.107666","-0.11604","0.119629","-0.100488","-0.145947"
"K","1617446024.4019003","7","1","-1","-7","48","13","0.672058","0.01062","-0.737","-0.070984","-0.007634","0","-0.007634","9.540405","1.074268","-0.978564","-0.151929","-0.090918","-0.129199","0.135181","-0.08374","-0.149536"
"K","1617446024.3918717","7","1","-3","-11","47","11","0.672119","0.010681","-0.737","-0.070984","-0.007634","0","0","9.553564","1.100586","-0.973779","-0.139966","-0.0646","-0.12561","0.132788","-0.058618","-0.135181"
"K","1617446024.3817894","7","0","1","-9","43","14","0.672119","0.010864","-0.737","-0.070923","-0.015267","0","0","9.564331","1.130493","-0.954639","-0.129199","-0.037085","-0.10647","0.114844","-0.031104","-0.122021"
"K","1617446024.371834","7","0","-1","-12","48","14","0.672119","0.010925","-0.737","-0.070923","-0.007634","0","0","9.554761","1.15083","-0.939087","-0.13877","-0.016748","-0.090918","0.101685","-0.008374","-0.130396"
"K","1617446024.361895","7","1","1","-8","50","13","0.672119","0.010986","-0.737","-0.070862","-0.007634","0","-0.007634","9.557154","1.152026","-0.91875","-0.136377","-0.015552","-0.070581","0.081348","-0.005981","-0.130396"
"K","1617446024.352072","7","3","3","-6","48","13","0.672119","0.010925","-0.737","-0.070862","0","0","-0.007634","9.581079","1.172363","-0.898413","-0.112451","0.004785","-0.050244","0.061011","0.011963","-0.105273"
"K","1617446024.3425632","7","1","0","-5","50","16","0.672058","0.010864","-0.737061","-0.070862","0","0","-0.007634","9.593042","1.178345","-0.881665","-0.100488","0.010767","-0.031104","0.040674","0.017944","-0.094507"
"K","1617446024.3319218","7","1","-1","-10","47","15","0.671997","0.010803","-0.737061","-0.070801","-0.007634","-0.007634","-0.007634","9.572705","1.175952","-0.864917","-0.119629","0.010767","-0.014355","0.026318","0.021533","-0.114844"
"K","1617446024.3225312","7","3","3","-8","48","17","0.672058","0.010742","-0.737061","-0.070679","-0.007634","-0.007634","-0.007634","9.522461","1.163989","-0.863721","-0.171069","0.001196","-0.013159","0.028711","0.017944","-0.16748"
"K","1617446024.3124592","7","0","-1","-8","51","15","0.672119","0.010742","-0.737","-0.070557","-0.007634","-0.007634","-0.007634","9.474609","1.148438","-0.868506","-0.218921","-0.011963","-0.019141","0.038281","0.00957","-0.215332"
"K","1617446024.3026211","7","0","0","-11","31","14","0.672241","0.010742","-0.736938","-0.070374","-0.015267","-0.007634","-0.007634","9.443506","1.134082","-0.87688","-0.251221","-0.023926","-0.029907","0.05144","0.001196","-0.247632"
"K","1617446024.292061","7","3","-15","-12","48","15","0.672241","0.010803","-0.736938","-0.07019","-0.015267","0","-0.007634","9.437525","1.120923","-0.88645","-0.257202","-0.034692","-0.039478","0.061011","-0.008374","-0.25481"
"K","1617446024.281865","7","0","-5","-8","48","13","0.672241","0.010925","-0.736938","-0.070007","-0.015267","0","-0.007634","9.436328","1.111353","-0.890039","-0.258398","-0.043066","-0.043066","0.063403","-0.017944","-0.256006"
"K","1617446024.2719972","7","0","0","-10","51","15","0.672241","0.010986","-0.736938","-0.069763","-0.015267","0","-0.015267","9.425562","1.106567","-0.885254","-0.269165","-0.045459","-0.038281","0.059814","-0.017944","-0.267969"
"K","1617446024.2620645","7","-3","0","-7","48","17","0.67218","0.010986","-0.737","-0.069458","-0.015267","0.007634","-0.015267","9.445898","1.09939","-0.868506","-0.248828","-0.047852","-0.019141","0.038281","-0.021533","-0.250024"
"K","1617446024.2519932","7","-1","0","-10","47","15","0.672119","0.010986","-0.737122","-0.069275","-0.007634","0","-0.015267","9.463842","1.085034","-0.857739","-0.230884","-0.059814","-0.004785","0.021533","-0.033496","-0.234473"
"K","1617446024.2425544","7","1","0","-8","48","17","0.672058","0.010864","-0.737183","-0.069031","0","0","-0.015267","9.462646","1.069482","-0.848169","-0.23208","-0.070581","0.004785","0.011963","-0.043066","-0.238062"
"K","1617446024.2319276","7","-1","0","-11","46","11","0.672058","0.010681","-0.737244","-0.068909","0","0","-0.022901","9.447095","1.039575","-0.846973","-0.248828","-0.095703","0.007178","0.008374","-0.066992","-0.257202"
"K","1617446024.2225387","7","2","0","-7","48","15","0.672058","0.010437","-0.737244","-0.068848","0.007634","-0.007634","-0.022901","9.438721","1.014453","-0.850561","-0.258398","-0.117236","0.003589","0.011963","-0.087329","-0.269165"
"K","1617446024.211939","7","1","-1","-7","50","14","0.672058","0.010132","-0.737244","-0.068848","0.007634","-0.007634","-0.015267","9.41958","1.008472","-0.869702","-0.277539","-0.119629","-0.014355","0.031104","-0.089722","-0.287109"
"K","1617446024.2019362","7","1","-1","-10","51","16","0.672119","0.009949","-0.737183","-0.068909","0","0","-0.007634","9.413599","1.024023","-0.888843","-0.283521","-0.101685","-0.034692","0.052637","-0.072974","-0.288306"
"K","1617446024.1917937","7","3","0","-8","44","13","0.672119","0.009949","-0.737183","-0.068909","-0.007634","0","0","9.426758","1.063501","-0.894824","-0.270361","-0.062207","-0.040674","0.061011","-0.035889","-0.270361"
"K","1617446024.182572","7","3","1","-7","51","15","0.672058","0.010132","-0.737183","-0.068909","-0.015267","0","0","9.421972","1.131689","-0.888843","-0.27395","0.002393","-0.034692","0.061011","0.028711","-0.266772"
"K","1617446024.1726906","7","4","-1","-10","49","17","0.672119","0.010376","-0.737183","-0.068848","-0.022901","-0.007634","0.007634","9.414795","1.178345","-0.885254","-0.282324","0.046655","-0.031104","0.061011","0.072974","-0.270361"
"K","1617446024.1618683","7","2","0","-11","52","16","0.67218","0.01062","-0.737122","-0.068726","-0.015267","-0.007634","0.007634","9.400439","1.190308","-0.885254","-0.295483","0.057422","-0.033496","0.065796","0.084937","-0.282324"
"K","1617446024.1525812","7","0","0","-7","48","16","0.672241","0.010803","-0.737061","-0.068665","-0.007634","-0.015267","0","9.394458","1.163989","-0.868506","-0.301465","0.028711","-0.017944","0.047852","0.058618","-0.293091"
"K","1617446024.1426387","7","-1","1","-10","52","14","0.672424","0.010742","-0.736938","-0.068665","0.007634","-0.007634","-0.007634","9.415991","1.120923","-0.863721","-0.281128","-0.011963","-0.016748","0.04187","0.016748","-0.277539"
"K","1617446024.1327395","7","4","-1","-10","46","17","0.672485","0.010498","-0.736877","-0.068665","0.015267","-0.007634","-0.015267","9.455469","1.062305","-0.848169","-0.242847","-0.066992","-0.003589","0.021533","-0.039478","-0.247632"
"K","1617446024.1226068","7","1","-1","-7","52","15","0.672485","0.010193","-0.736816","-0.068726","0.015267","-0.007634","-0.015267","9.488965","1.018042","-0.848169","-0.208154","-0.107666","-0.004785","0.015552","-0.08374","-0.217725"
"K","1617446024.1126738","7","2","1","-8","46","19","0.672546","0.009949","-0.736816","-0.068848","0.007634","-0.007634","-0.007634","9.499731","1.003687","-0.858936","-0.198584","-0.120825","-0.015552","0.023926","-0.099292","-0.208154"
"K","1617446024.1027107","7","1","0","-7","46","16","0.672546","0.009827","-0.736755","-0.06897","0","-0.007634","0","9.49375","1.004883","-0.880469","-0.204565","-0.119629","-0.038281","0.047852","-0.099292","-0.211743"
"K","1617446024.0926423","7","1","-1","-8","51","13","0.672668","0.009888","-0.736633","-0.069031","-0.007634","-0.015267","0","9.471021","1.03479","-0.898413","-0.227295","-0.092114","-0.059814","0.072974","-0.071777","-0.229687"
"K","1617446024.0825658","7","0","0","-12","47","16","0.672791","0.010132","-0.736511","-0.069031","-0.015267","-0.015267","0.007634","9.442309","1.085034","-0.90918","-0.256006","-0.044263","-0.07417","0.093311","-0.022729","-0.251221"
"K","1617446024.0728326","7","1","0","-8","47","12","0.672913","0.010376","-0.73645","-0.06897","-0.007634","-0.007634","0.007634","9.444702","1.095801","-0.91875","-0.253613","-0.035889","-0.086133","0.10647","-0.015552","-0.247632"
"K","1617446024.062632","7","1","0","-11","48","15","0.672913","0.010437","-0.736389","-0.069031","0","0","0","9.480591","1.071875","-0.929517","-0.216528","-0.061011","-0.098096","0.112451","-0.045459","-0.212939"
"K","1617446024.0528855","7","1","-1","-10","47","17","0.672913","0.010437","-0.73645","-0.069153","0.007634","0","0","9.517675","1.049145","-0.946265","-0.18064","-0.086133","-0.113647","0.122021","-0.075366","-0.178247"
"K","1617446024.0425606","7","0","0","-11","48","14","0.672852","0.010315","-0.73645","-0.069336","0.007634","0","0","9.524854","1.063501","-0.96062","-0.172266","-0.072974","-0.128003","0.137573","-0.0646","-0.16748"
"K","1617446024.0326686","7","1","-3","-11","46","14","0.672913","0.010254","-0.736389","-0.06958","0.007634","-0.007634","0.007634","9.510498","1.093408","-0.973779","-0.187817","-0.045459","-0.142358","0.154321","-0.037085","-0.178247"
"K","1617446024.0226326","7","2","-2","-9","48","13","0.672974","0.010376","-0.736328","-0.069824","-0.007634","-0.007634","0.007634","9.500928","1.146045","-0.985742","-0.196191","0.001196","-0.156714","0.173462","0.008374","-0.18064"
"K","1617446024.0127542","7","0","3","-14","47","16","0.673035","0.010681","-0.736206","-0.069946","-0.022901","-0.007634","0.015267","9.512891","1.223804","-0.971387","-0.183032","0.072974","-0.144751","0.166284","0.078955","-0.160303"
"K","1617446024.0026138","7","1","-1","-11","44","14","0.673157","0.011108","-0.736084","-0.069885","-0.030534","-0.015267","0.015267","9.511694","1.288403","-0.943872","-0.184229","0.132788","-0.120825","0.147144","0.141162","-0.155518"
"K","1617446023.9928324","7","1","-1","-10","47","15","0.673279","0.011536","-0.735962","-0.069702","-0.022901","-0.015267","0.007634","9.506909","1.291992","-0.919946","-0.189014","0.133984","-0.100488","0.126807","0.144751","-0.162695"
"K","1617446023.9826608","7","1","-2","-9","47","15","0.673462","0.01178","-0.735901","-0.069519","-0.015267","-0.015267","0.007634","9.521265","1.232178","-0.90918","-0.175854","0.072974","-0.092114","0.112451","0.08374","-0.156714"
"K","1617446023.9728303","7","0","-1","-8","46","15","0.673584","0.011902","-0.735779","-0.069458","-0.007634","-0.015267","-0.007634","9.527246","1.177148","-0.88645","-0.169873","0.017944","-0.072974","0.088525","0.029907","-0.159106"
"K","1617446023.962716","7","-3","-1","-12","48","13","0.673706","0.011841","-0.735657","-0.069336","0","-0.015267","-0.015267","9.516479","1.122119","-0.857739","-0.18064","-0.033496","-0.046655","0.059814","-0.016748","-0.178247"
"K","1617446023.9525957","7","0","-3","-12","51","15","0.673889","0.011658","-0.735474","-0.069214","0","-0.007634","-0.015267","9.504517","1.053931","-0.824243","-0.193799","-0.096899","-0.019141","0.028711","-0.075366","-0.200977"
"K","1617446023.9429195","7","0","-1","-10","46","19","0.674011","0.011414","-0.735413","-0.069153","0","-0.007634","-0.022901","9.508105","0.998901","-0.794336","-0.191406","-0.14834","0.007178","0","-0.124414","-0.206958"
"K","1617446023.9327874","7","0","-3","-8","45","12","0.674072","0.011292","-0.735352","-0.069031","-0.007634","-0.007634","-0.015267","9.530835","0.973779","-0.757251","-0.168677","-0.169873","0.043066","-0.039478","-0.145947","-0.19021"
"K","1617446023.922671","7","3","0","-10","47","15","0.674133","0.011353","-0.735291","-0.068909","-0.022901","-0.015267","0","9.529638","0.974976","-0.732129","-0.169873","-0.16748","0.066992","-0.063403","-0.141162","-0.192603"
"K","1617446023.912666","7","1","1","-8","45","14","0.674255","0.011658","-0.735229","-0.068787","-0.038168","-0.015267","0","9.502124","1.008472","-0.722559","-0.197388","-0.136377","0.07417","-0.065796","-0.10647","-0.216528"
"K","1617446023.902769","7","0","1","-10","45","15","0.674316","0.012207","-0.735168","-0.068481","-0.038168","-0.007634","0","9.475805","1.052734","-0.71897","-0.223706","-0.094507","0.076563","-0.062207","-0.062207","-0.238062"
"K","1617446023.892879","7","0","-1","-10","46","15","0.674316","0.012695","-0.735168","-0.068176","-0.030534","0","0","9.474609","1.087427","-0.727344","-0.223706","-0.062207","0.068188","-0.05144","-0.031104","-0.233276"
"K","1617446023.8826995","7","0","-3","-9","48","13","0.674255","0.012939","-0.735291","-0.06781","-0.015267","0.007634","-0.007634","9.488965","1.081445","-0.723755","-0.210547","-0.065796","0.075366","-0.059814","-0.034692","-0.221313"
"K","1617446023.8727355","7","0","3","-8","44","14","0.674072","0.013062","-0.735413","-0.067688","-0.007634","0.007634","-0.007634","9.481787","1.045557","-0.726147","-0.216528","-0.101685","0.077759","-0.0646","-0.069385","-0.23208"
"K","1617446023.8626423","7","-1","-1","-10","43","14","0.67395","0.013062","-0.735535","-0.067749","0","0.007634","0","9.468628","1.027612","-0.710596","-0.229687","-0.120825","0.095703","-0.082544","-0.086133","-0.248828"
"K","1617446023.8529077","7","0","1","-9","46","13","0.673828","0.013062","-0.735657","-0.06781","0","0","0","9.441113","1.035986","-0.69624","-0.257202","-0.113647","0.113647","-0.096899","-0.07417","-0.276343"
"K","1617446023.8427854","7","0","-1","-10","52","1","0.673767","0.013062","-0.735718","-0.067871","0","0","0","9.412402","1.041968","-0.690259","-0.285913","-0.108862","0.120825","-0.100488","-0.065796","-0.305054"
"K","1617446023.832844","7","-1","1","-11","48","13","0.673706","0.013123","-0.735779","-0.067993","-0.007634","0","0","9.402832","1.041968","-0.68667","-0.294287","-0.111255","0.126807","-0.10647","-0.066992","-0.314624"
"K","1617446023.82274","7","1","-1","-7","44","15","0.673584","0.013184","-0.73584","-0.068054","-0.007634","0","0","9.421972","1.047949","-0.679492","-0.275146","-0.10647","0.136377","-0.117236","-0.063403","-0.295483"
"K","1617446023.8126557","7","-1","1","-8","48","15","0.673462","0.013367","-0.735962","-0.068054","-0.007634","0","0","9.447095","1.052734","-0.674707","-0.248828","-0.105273","0.144751","-0.128003","-0.0646","-0.270361"
"K","1617446023.8028064","7","-5","1","-10","48","19","0.67334","0.013428","-0.736084","-0.068115","0","0.007634","0","9.473413","1.033594","-0.687866","-0.22251","-0.12561","0.133984","-0.120825","-0.088525","-0.245239"
"K","1617446023.7928083","7","-1","0","-11","51","11","0.673157","0.013428","-0.736206","-0.068176","0.007634","0.007634","0","9.515284","0.996509","-0.701025","-0.179443","-0.163892","0.12561","-0.119629","-0.131592","-0.206958"
"K","1617446023.7826853","7","-1","-1","-9","47","15","0.672974","0.013367","-0.736389","-0.068359","0.007634","0.015267","-0.007634","9.565527","0.977368","-0.723755","-0.129199","-0.185425","0.107666","-0.107666","-0.159106","-0.15791"
"K","1617446023.7728784","7","0","1","-8","51","13","0.672729","0.013184","-0.736572","-0.068481","0.015267","0.007634","-0.015267","9.60022","1.00249","-0.724951","-0.093311","-0.159106","0.112451","-0.113647","-0.137573","-0.119629"
"K","1617446023.762714","7","0","1","-10","43","14","0.672546","0.012939","-0.736755","-0.068665","0.015267","0","-0.007634","9.579883","1.014453","-0.762036","-0.113647","-0.147144","0.080151","-0.078955","-0.12561","-0.136377"
"K","1617446023.7527452","7","11","-1","-7","51","15","0.672485","0.012756","-0.736816","-0.06897","0.015267","-0.007634","0","9.542798","1.021631","-0.778784","-0.150732","-0.142358","0.0646","-0.059814","-0.118433","-0.171069"
"K","1617446023.742721","7","0","0","-10","46","16","0.672424","0.012695","-0.736755","-0.069397","0.007634","-0.007634","0.007634","9.496142","1.079053","-0.803906","-0.196191","-0.089722","0.038281","-0.025122","-0.063403","-0.206958"
"K","1617446023.732915","7","0","0","-10","48","13","0.672424","0.012817","-0.736755","-0.069763","0","-0.007634","0.015267","9.49375","1.1604","-0.817065","-0.198584","-0.015552","0.025122","-0.005981","0.008374","-0.19978"
"K","1617446023.722741","7","1","1","-11","45","15","0.672363","0.013123","-0.736755","-0.070068","0","-0.007634","0.022901","9.478198","1.250122","-0.836206","-0.212939","0.0646","0.005981","0.019141","0.088525","-0.202173"
"K","1617446023.712806","7","1","0","-11","46","15","0.672363","0.013367","-0.736755","-0.070374","0.007634","0","0.022901","9.460254","1.295581","-0.858936","-0.229687","0.102881","-0.015552","0.044263","0.12561","-0.212939"
"K","1617446023.7027786","7","2","-1","-14","45","12","0.672302","0.013428","-0.736816","-0.07074","0.015267","0","0.015267","9.467432","1.291992","-0.905591","-0.22251","0.093311","-0.061011","0.088525","0.112451","-0.202173"
"K","1617446023.692757","7","0","1","-6","47","16","0.67218","0.013245","-0.736877","-0.071106","0.030534","0.007634","0.007634","9.500928","1.263281","-0.955835","-0.187817","0.061011","-0.110059","0.131592","0.071777","-0.168677"
"K","1617446023.6827905","7","-1","0","-10","47","15","0.671997","0.012878","-0.736938","-0.071594","0.038168","0.015267","0","9.540405","1.21543","-0.996509","-0.147144","0.010767","-0.14834","0.161499","0.014355","-0.130396"
"K","1617446023.673066","7","0","0","-10","47","12","0.671875","0.012268","-0.737061","-0.072144","0.038168","0.007634","-0.007634","9.559546","1.178345","-1.021631","-0.129199","-0.025122","-0.171069","0.179443","-0.025122","-0.114844"
"K","1617446023.6628025","7","1","-1","-8","51","15","0.671814","0.01178","-0.737061","-0.072571","0.030534","0.007634","-0.007634","9.55835","1.158008","-1.021631","-0.129199","-0.045459","-0.169873","0.177051","-0.045459","-0.118433"
"K","1617446023.6528766","7","0","1","-11","52","15","0.671814","0.011353","-0.737061","-0.072998","0.022901","0","-0.007634","9.53562","1.161597","-0.996509","-0.153125","-0.04187","-0.145947","0.155518","-0.037085","-0.143555"
"K","1617446023.6427217","7","3","-1","-6","48","15","0.671875","0.011169","-0.736938","-0.073303","0.015267","-0.007634","0","9.506909","1.186719","-0.965405","-0.18064","-0.019141","-0.118433","0.132788","-0.008374","-0.169873"
"K","1617446023.632813","7","3","0","-7","45","14","0.671936","0.011047","-0.736877","-0.073486","0.007634","0","0","9.49375","1.208252","-0.937891","-0.193799","0.001196","-0.092114","0.110059","0.014355","-0.183032"
"K","1617446023.6226983","7","0","8","-12","47","17","0.671936","0.010925","-0.736877","-0.073608","0.007634","0","0","9.509302","1.213037","-0.937891","-0.179443","0.005981","-0.092114","0.108862","0.016748","-0.168677"
"K","1617446023.6132083","7","1","3","-10","52","19","0.671814","0.010803","-0.736938","-0.073792","0.015267","0.007634","0","9.529638","1.198682","-0.940283","-0.15791","-0.008374","-0.093311","0.10647","0","-0.14834"
"K","1617446023.6026516","7","3","-1","-11","50","16","0.671692","0.010498","-0.737061","-0.074036","0.022901","0.007634","-0.007634","9.530835","1.167578","-0.979761","-0.156714","-0.039478","-0.129199","0.139966","-0.0323","-0.14834"
"K","1617446023.5929294","7","2","-1","1","48","16","0.671509","0.010071","-0.737183","-0.074402","0.030534","0.007634","-0.007634","9.529638","1.136475","-1.031201","-0.15791","-0.070581","-0.177051","0.184229","-0.068188","-0.14834"
"K","1617446023.582726","7","-1","0","-7","47","17","0.671387","0.009766","-0.737244","-0.074829","0.030534","0.007634","0","9.503321","1.149634","-1.088623","-0.183032","-0.059814","-0.233276","0.244043","-0.059814","-0.16748"
"K","1617446023.573024","7","0","0","-10","46","14","0.671265","0.009521","-0.737366","-0.075317","0.015267","0.007634","0.007634","9.478198","1.207056","-1.126904","-0.208154","-0.005981","-0.267969","0.284717","-0.007178","-0.183032"
"K","1617446023.5627007","7","1","-1","-7","48","16","0.671143","0.009521","-0.737427","-0.075684","0.007634","0.015267","0.015267","9.45188","1.300366","-1.1604","-0.233276","0.080151","-0.300269","0.326587","0.075366","-0.193799"
"K","1617446023.5529485","7","1","0","-7","46","15","0.670959","0.009705","-0.737549","-0.07605","-0.007634","0.022901","0.022901","9.461451","1.394873","-1.186719","-0.22251","0.16748","-0.322998","0.356494","0.159106","-0.169873"
"K","1617446023.542777","7","-3","1","-6","47","15","0.670715","0.01001","-0.737732","-0.076294","-0.015267","0.022901","0.022901","9.487768","1.484595","-1.217822","-0.194995","0.248828","-0.34812","0.385205","0.233276","-0.130396"
"K","1617446023.5327091","7","-1","-2","-8","44","14","0.670471","0.010376","-0.737915","-0.076416","-0.015267","0.022901","0.022901","9.496142","1.552783","-1.248926","-0.185425","0.311035","-0.373242","0.415112","0.291895","-0.110059"
"K","1617446023.522813","7","2","3","-9","50","13","0.670288","0.010681","-0.738098","-0.076416","-0.015267","0.007634","0.007634","9.487768","1.577905","-1.260889","-0.192603","0.331372","-0.38042","0.424683","0.312231","-0.113647"
"K","1617446023.5129251","7","0","-1","-8","48","13","0.670288","0.010742","-0.738098","-0.076233","-0.007634","0","-0.007634","9.465039","1.53125","-1.265674","-0.215332","0.287109","-0.385205","0.428271","0.270361","-0.141162"
"K","1617446023.5035925","7","3","0","-10","51","15","0.67041","0.010498","-0.737976","-0.075989","0","-0.007634","-0.022901","9.456665","1.430762","-1.239355","-0.223706","0.192603","-0.361279","0.397168","0.18064","-0.163892"
"K","1617446023.4935503","7","-3","-3","-8","44","14","0.670654","0.010071","-0.737793","-0.075745","0.007634","-0.007634","-0.030534","9.479395","1.312329","-1.184326","-0.203369","0.08374","-0.312231","0.336157","0.075366","-0.161499"
"K","1617446023.4836109","7","1","0","-11","51","17","0.670959","0.009521","-0.737549","-0.075439","0","-0.015267","-0.038168","9.506909","1.21543","-1.114941","-0.178247","0","-0.250024","0.26438","-0.003589","-0.153125"
"K","1617446023.4736042","7","1","1","-10","48","17","0.671326","0.009094","-0.737305","-0.075073","-0.015267","-0.022901","-0.030534","9.532031","1.171167","-1.018042","-0.155518","-0.0323","-0.161499","0.172266","-0.029907","-0.143555"
"K","1617446023.4633353","7","-1","-2","-10","48","15","0.671753","0.008972","-0.736938","-0.074585","-0.030534","-0.030534","-0.030534","9.534424","1.137671","-0.931909","-0.154321","-0.057422","-0.084937","0.093311","-0.046655","-0.151929"
"K","1617446023.4537678","7","2","-1","-11","45","16","0.67218","0.009094","-0.736633","-0.074036","-0.045802","-0.038168","-0.022901","9.517675","1.11853","-0.870898","-0.173462","-0.069385","-0.033496","0.043066","-0.05144","-0.177051"
"K","1617446023.443595","7","-1","2","-10","49","17","0.672607","0.009399","-0.736267","-0.073364","-0.053435","-0.038168","-0.015267","9.480591","1.116138","-0.832617","-0.211743","-0.065796","-0.004785","0.019141","-0.040674","-0.216528"
"K","1617446023.433517","7","3","1","-10","50","14","0.673035","0.009766","-0.735962","-0.072693","-0.053435","-0.030534","-0.015267","9.478198","1.114941","-0.800317","-0.215332","-0.062207","0.016748","-0.001196","-0.034692","-0.221313"
"K","1617446023.423637","7","0","-1","-10","48","13","0.673279","0.010254","-0.735779","-0.072021","-0.053435","-0.030534","-0.015267","9.478198","1.11853","-0.800317","-0.216528","-0.055029","0.011963","0.003589","-0.028711","-0.221313"
"K","1617446023.412879","7","1","-1","-7","47","16","0.673523","0.010681","-0.735596","-0.071411","-0.045802","-0.022901","-0.015267","9.447095","1.128101","-0.817065","-0.247632","-0.04187","-0.008374","0.027515","-0.014355","-0.248828"
"K","1617446023.403677","7","1","-3","-8","47","16","0.673767","0.011047","-0.735474","-0.070801","-0.038168","-0.015267","-0.015267","9.435132","1.101782","-0.843384","-0.261987","-0.0646","-0.038281","0.056226","-0.037085","-0.263184"
"K","1617446023.3936234","7","1","0","-10","49","12","0.67395","0.011292","-0.735352","-0.070374","-0.030534","-0.015267","-0.015267","9.438721","1.085034","-0.863721","-0.258398","-0.077759","-0.062207","0.078955","-0.052637","-0.259595"
"K","1617446023.3836586","7","1","0","-11","47","15","0.674133","0.011536","-0.735168","-0.069946","-0.038168","-0.015267","-0.015267","9.433935","1.100586","-0.864917","-0.263184","-0.058618","-0.068188","0.086133","-0.034692","-0.260791"
"K","1617446023.3737009","7","1","1","-7","47","15","0.674377","0.01178","-0.735046","-0.069458","-0.045802","-0.022901","-0.007634","9.448291","1.10896","-0.850561","-0.251221","-0.046655","-0.057422","0.075366","-0.022729","-0.248828"
"K","1617446023.3637187","7","1","0","-11","46","15","0.674683","0.012207","-0.734802","-0.068909","-0.045802","-0.030534","-0.007634","9.435132","1.114941","-0.823047","-0.26438","-0.038281","-0.037085","0.057422","-0.010767","-0.263184"
"K","1617446023.3536608","7","-1","-2","-12","48","13","0.675049","0.012634","-0.734497","-0.068298","-0.053435","-0.038168","-0.015267","9.420776","1.117334","-0.773999","-0.279932","-0.0323","0.002393","0.019141","0","-0.279932"
"K","1617446023.3436737","7","1","-3","-10","46","13","0.675537","0.013062","-0.734131","-0.067566","-0.045802","-0.038168","-0.015267","9.421972","1.102978","-0.708203","-0.279932","-0.04187","0.057422","-0.034692","-0.004785","-0.285913"
"K","1617446023.3337457","7","1","-2","-11","47","13","0.675964","0.013367","-0.733765","-0.066895","-0.038168","-0.038168","-0.022901","9.443506","1.039575","-0.660352","-0.259595","-0.099292","0.095703","-0.078955","-0.061011","-0.275146"
"K","1617446023.3237686","7","-1","-1","-12","47","14","0.676392","0.013489","-0.733398","-0.066223","-0.030534","-0.038168","-0.030534","9.472217","0.966602","-0.618481","-0.23208","-0.163892","0.126807","-0.117236","-0.126807","-0.258398"
"K","1617446023.3136165","7","1","0","-10","44","12","0.676819","0.01355","-0.733093","-0.065674","-0.030534","-0.030534","-0.030534","9.494946","0.919946","-0.581396","-0.211743","-0.203369","0.155518","-0.150732","-0.166284","-0.244043"
"K","1617446023.3037453","7","3","1","-8","51","14","0.677124","0.013611","-0.732849","-0.065186","-0.030534","-0.030534","-0.022901","9.508105","0.894824","-0.552686","-0.19978","-0.221313","0.177051","-0.173462","-0.183032","-0.235669"
"K","1617446023.293671","7","-1","-2","-10","46","13","0.677429","0.013794","-0.732605","-0.064758","-0.038168","-0.030534","-0.015267","9.494946","0.907983","-0.543115","-0.214136","-0.204565","0.179443","-0.174658","-0.165088","-0.247632"
"K","1617446023.2835746","7","-1","0","-8","48","15","0.677673","0.01416","-0.732422","-0.064331","-0.045802","-0.030534","0","9.488965","0.930713","-0.555078","-0.221313","-0.18064","0.162695","-0.155518","-0.142358","-0.251221"
"K","1617446023.2736049","7","2","-3","-7","46","15","0.677856","0.014709","-0.7323","-0.063965","-0.053435","-0.022901","0.007634","9.512891","0.974976","-0.577808","-0.197388","-0.137573","0.136377","-0.128003","-0.104077","-0.220117"
"K","1617446023.2638116","7","1","-2","-8","51","11","0.677979","0.015442","-0.732178","-0.063538","-0.053435","-0.022901","0.007634","9.520068","1.026416","-0.598145","-0.189014","-0.089722","0.112451","-0.101685","-0.059814","-0.204565"
"K","1617446023.253625","7","1","0","-14","48","13","0.678162","0.016113","-0.732056","-0.063171","-0.038168","-0.022901","0.007634","9.518872","1.049145","-0.617285","-0.191406","-0.070581","0.090918","-0.078955","-0.04187","-0.203369"
"K","1617446023.2438178","7","3","7","-10","50","14","0.678284","0.016602","-0.731934","-0.062866","-0.030534","-0.015267","0","9.529638","1.018042","-0.640015","-0.179443","-0.104077","0.0646","-0.056226","-0.078955","-0.193799"
"K","1617446023.2335913","7","-1","0","-11","48","16","0.678345","0.016846","-0.731873","-0.062622","-0.015267","-0.007634","-0.007634","9.553564","0.976172","-0.662744","-0.155518","-0.145947","0.040674","-0.035889","-0.124414","-0.173462"
"K","1617446023.223674","7","0","-2","-11","47","16","0.678406","0.016846","-0.731812","-0.0625","-0.007634","-0.007634","-0.007634","9.582275","0.945068","-0.681885","-0.126807","-0.174658","0.020337","-0.020337","-0.15791","-0.145947"
"K","1617446023.213811","7","-1","1","-11","46","15","0.678406","0.016846","-0.731812","-0.0625","-0.007634","0","-0.007634","9.61936","0.947461","-0.692651","-0.089722","-0.172266","0.00957","-0.011963","-0.160303","-0.108862"
"K","1617446023.2035756","7","1","-1","-7","50","15","0.678406","0.016907","-0.731812","-0.0625","-0.015267","-0.007634","-0.007634","9.637304","1.000098","-0.68667","-0.071777","-0.120825","0.015552","-0.016748","-0.110059","-0.084937"
"K","1617446023.1937296","7","2","-1","-7","47","15","0.678406","0.01709","-0.731812","-0.062439","-0.022901","-0.007634","0","9.630127","1.049145","-0.661548","-0.078955","-0.072974","0.040674","-0.038281","-0.059814","-0.088525"
"K","1617446023.1836798","7","0","1","-11","51","11","0.678528","0.017395","-0.73175","-0.062317","-0.030534","-0.015267","0","9.596631","1.086231","-0.635229","-0.113647","-0.038281","0.0646","-0.057422","-0.020337","-0.120825"
"K","1617446023.173715","7","0","-1","-10","45","10","0.67865","0.017761","-0.731628","-0.062134","-0.030534","-0.022901","0","9.553564","1.114941","-0.625659","-0.155518","-0.011963","0.071777","-0.059814","0.00957","-0.160303"
"K","1617446023.1636426","7","1","0","-7","53","20","0.678833","0.018066","-0.731506","-0.06189","-0.022901","-0.015267","0","9.528442","1.117334","-0.628052","-0.181836","-0.00957","0.0646","-0.050244","0.014355","-0.185425"
"K","1617446023.1538944","7","1","-5","-1","46","16","0.678955","0.018311","-0.731384","-0.061768","-0.015267","-0.015267","0","9.517675","1.095801","-0.642407","-0.192603","-0.0323","0.047852","-0.033496","-0.007178","-0.197388"
"K","1617446023.1438267","7","3","-3","-10","51","16","0.679016","0.018433","-0.731323","-0.061646","-0.007634","-0.007634","0","9.504517","1.086231","-0.66394","-0.205762","-0.04187","0.023926","-0.00957","-0.016748","-0.209351"
"K","1617446023.1338603","7","1","0","-10","48","16","0.679016","0.018555","-0.731323","-0.061646","-0.007634","0","0","9.509302","1.07666","-0.68667","-0.200977","-0.053833","0.002393","0.00957","-0.029907","-0.204565"
"K","1617446023.1236875","7","1","-1","-10","50","14","0.678894","0.018555","-0.731384","-0.061646","0","0.007634","-0.007634","9.543994","1.069482","-0.703418","-0.165088","-0.061011","-0.010767","0.019141","-0.04187","-0.168677"
"K","1617446023.113662","7","2","3","-6","50","15","0.678711","0.018494","-0.731567","-0.061646","0","0.007634","-0.007634","9.554761","1.070679","-0.714185","-0.154321","-0.058618","-0.016748","0.025122","-0.04187","-0.15791"
"K","1617446023.1036415","7","2","-2","-10","51","15","0.678589","0.018494","-0.731689","-0.061707","-0.007634","0.007634","0","9.552368","1.081445","-0.71897","-0.156714","-0.049048","-0.017944","0.026318","-0.0323","-0.159106"
"K","1617446023.0939572","7","-1","-4","-7","45","13","0.678406","0.018555","-0.731873","-0.061707","-0.007634","0.007634","0","9.540405","1.096997","-0.727344","-0.168677","-0.034692","-0.021533","0.0323","-0.016748","-0.168677"
"K","1617446023.083782","7","-1","-3","-8","44","15","0.678345","0.018616","-0.731873","-0.061707","-0.015267","-0.007634","-0.007634","9.508105","1.124512","-0.726147","-0.19978","-0.007178","-0.019141","0.033496","0.013159","-0.196191"
"K","1617446023.073846","7","1","0","-8","50","16","0.678406","0.018738","-0.731873","-0.061584","-0.015267","-0.007634","-0.007634","9.463842","1.128101","-0.726147","-0.244043","-0.003589","-0.020337","0.038281","0.021533","-0.240454"
"K","1617446023.0637507","7","2","0","-7","48","17","0.678528","0.018738","-0.73175","-0.061401","-0.007634","-0.015267","-0.007634","9.437525","1.111353","-0.710596","-0.271558","-0.017944","-0.008374","0.027515","0.010767","-0.270361"
"K","1617446023.054007","7","0","0","-7","52","16","0.67865","0.018738","-0.731689","-0.061218","-0.007634","-0.007634","-0.015267","9.431543","1.077856","-0.69624","-0.277539","-0.049048","0.002393","0.015552","-0.016748","-0.279932"
"K","1617446023.0436006","7","0","3","-10","51","16","0.678711","0.018616","-0.731628","-0.061157","0","-0.007634","-0.015267","9.453076","1.020435","-0.691455","-0.257202","-0.104077","0.005981","0.007178","-0.07417","-0.266772"
"K","1617446023.0338094","7","1","0","-8","51","20","0.678772","0.018433","-0.731567","-0.061096","0.007634","-0.007634","-0.015267","9.472217","0.982153","-0.697437","-0.238062","-0.13877","0","0.00957","-0.111255","-0.251221"
"K","1617446023.024009","7","0","0","-10","46","16","0.678833","0.018311","-0.731506","-0.061157","0.007634","-0.007634","-0.007634","9.474609","0.964209","-0.699829","-0.235669","-0.155518","-0.004785","0.013159","-0.128003","-0.250024"
"K","1617446023.0139685","7","1","-6","-7","50","14","0.678833","0.01825","-0.731506","-0.061279","0","0","0","9.482984","0.986938","-0.709399","-0.227295","-0.133984","-0.014355","0.023926","-0.107666","-0.239258"
"K","1617446023.003959","7","0","0","-10","46","15","0.678833","0.018311","-0.731506","-0.061462","-0.007634","0","0","9.496142","1.031201","-0.710596","-0.214136","-0.093311","-0.015552","0.026318","-0.069385","-0.221313"
"K","1617446022.9937525","7","1","1","-11","47","13","0.678772","0.018433","-0.731506","-0.061584","-0.007634","0","0.007634","9.492554","1.094604","-0.717773","-0.216528","-0.033496","-0.022729","0.037085","-0.00957","-0.216528"
"K","1617446022.9838352","7","-1","0","-10","46","17","0.678711","0.018677","-0.731567","-0.061646","-0.007634","-0.007634","0.007634","9.481787","1.146045","-0.73811","-0.227295","0.013159","-0.040674","0.058618","0.034692","-0.220117"
"K","1617446022.9739764","7","3","0","-9","48","15","0.678711","0.01886","-0.731567","-0.061707","-0.007634","-0.007634","0.007634","9.449488","1.179541","-0.759644","-0.258398","0.043066","-0.062207","0.08374","0.066992","-0.246436"
"K","1617446022.7139995","7","0","1","-10","46","15","0.680847","0.019653","-0.729675","-0.060242","-0.015267","-0.015267","0.007634","9.395655","1.143652","-0.616089","-0.318213","0.019141","0.026318","-0.001196","0.055029","-0.314624"
"K","1617446022.703869","7","0","0","-10","48","13","0.680908","0.019775","-0.729614","-0.06012","-0.007634","0","0","9.412402","1.087427","-0.629248","-0.301465","-0.035889","0.011963","0.007178","-0.001196","-0.302661"
"K","1617446022.6939385","7","1","-1","-10","42","17","0.680908","0.019775","-0.729675","-0.06012","0","0","-0.007634","9.467432","1.024023","-0.638818","-0.246436","-0.099292","0.003589","0.008374","-0.070581","-0.25481"
"K","1617446022.6838958","7","2","0","-9","51","15","0.680847","0.019592","-0.729736","-0.060181","0","0","-0.015267","9.499731","1.019238","-0.640015","-0.214136","-0.102881","0.003589","0.005981","-0.077759","-0.223706"
"K","1617446022.6745","7","3","0","-6","48","14","0.680786","0.01947","-0.729797","-0.06012","0","0","-0.015267","9.512891","1.032398","-0.638818","-0.200977","-0.087329","0.005981","0.003589","-0.063403","-0.209351"
"K","1617446022.6638384","7","1","-3","-8","48","16","0.680725","0.019348","-0.729858","-0.06012","0","0.007634","-0.015267","9.523657","1.03479","-0.635229","-0.191406","-0.082544","0.011963","-0.002393","-0.059814","-0.19978"
"K","1617446022.6546102","7","5","0","-10","46","19","0.680603","0.019165","-0.729919","-0.06012","0","0.007634","-0.015267","9.541601","1.032398","-0.626855","-0.172266","-0.082544","0.022729","-0.014355","-0.061011","-0.18064"
"K","1617446022.644818","7","-3","-1","-10","47","16","0.680542","0.019043","-0.72998","-0.06012","-0.007634","0","-0.007634","9.547583","1.045557","-0.616089","-0.166284","-0.068188","0.034692","-0.025122","-0.046655","-0.174658"
"K","1617446022.6339476","7","2","0","-10","47","14","0.680481","0.019104","-0.730042","-0.060059","-0.015267","-0.007634","-0.007634","9.530835","1.094604","-0.610107","-0.183032","-0.019141","0.043066","-0.029907","0.003589","-0.185425"
"K","1617446022.6240528","7","3","1","-8","49","17","0.680481","0.019226","-0.730042","-0.059875","-0.015267","-0.015267","0","9.484179","1.124512","-0.610107","-0.229687","0.010767","0.043066","-0.025122","0.038281","-0.228491"
"K","1617446022.614034","7","1","0","-11","51","19","0.680542","0.019348","-0.730042","-0.059692","-0.007634","-0.007634","0","9.468628","1.114941","-0.625659","-0.246436","0.002393","0.026318","-0.007178","0.029907","-0.245239"
"K","1617446022.6038814","7","1","1","-10","48","15","0.680603","0.019287","-0.72998","-0.05957","0","0","-0.007634","9.492554","1.081445","-0.643604","-0.22251","-0.027515","0.007178","0.007178","-0.002393","-0.223706"
"K","1617446022.5945606","7","2","0","-9","51","16","0.680542","0.019104","-0.730042","-0.05957","0.015267","0","-0.015267","9.520068","1.024023","-0.668726","-0.194995","-0.082544","-0.015552","0.025122","-0.061011","-0.200977"
"K","1617446022.58471","7","2","-1","-10","52","16","0.680542","0.018677","-0.730042","-0.059631","0.022901","0.007634","-0.022901","9.543994","0.967798","-0.684277","-0.171069","-0.133984","-0.031104","0.035889","-0.11604","-0.181836"
"K","1617446022.5738337","7","0","3","-6","48","16","0.68042","0.018066","-0.730164","-0.059814","0.030534","0.007634","-0.022901","9.579883","0.924731","-0.691455","-0.136377","-0.171069","-0.034692","0.034692","-0.156714","-0.151929"
"K","1617446022.5646691","7","4","1","-7","48","15","0.680298","0.017456","-0.730286","-0.060059","0.030534","0.015267","-0.022901","9.62295","0.90918","-0.692651","-0.093311","-0.183032","-0.033496","0.029907","-0.173462","-0.110059"
"K","1617446022.5545616","7","2","3","-6","46","14","0.680115","0.017029","-0.730408","-0.060303","0.015267","0.007634","-0.015267","9.637304","0.919946","-0.684277","-0.078955","-0.169873","-0.021533","0.016748","-0.160303","-0.095703"
"K","1617446022.544781","7","-3","-1","-8","49","16","0.679993","0.016785","-0.73053","-0.060547","0.007634","0","0","9.610987","0.966602","-0.683081","-0.105273","-0.123218","-0.016748","0.016748","-0.111255","-0.11604"
"K","1617446022.5347364","7","4","0","-8","50","20","0.679932","0.016785","-0.730591","-0.060669","-0.007634","0","0.007634","9.566724","1.016846","-0.692651","-0.149536","-0.075366","-0.025122","0.031104","-0.059814","-0.154321"
"K","1617446022.5240636","7","1","-1","-10","51","15","0.679871","0.017029","-0.730591","-0.060852","-0.015267","0","0.015267","9.552368","1.068286","-0.715381","-0.162695","-0.029907","-0.046655","0.056226","-0.014355","-0.160303"
"K","1617446022.514556","7","-1","-2","-18","46","15","0.67981","0.017395","-0.730652","-0.060974","-0.022901","0","0.015267","9.53562","1.138867","-0.739307","-0.178247","0.033496","-0.069385","0.08374","0.047852","-0.16748"
"K","1617446022.5039003","7","1","1","-8","47","15","0.67981","0.017822","-0.730652","-0.060913","-0.022901","0","0.015267","9.502124","1.202271","-0.76084","-0.211743","0.092114","-0.090918","0.111255","0.107666","-0.192603"
"K","1617446022.494618","7","1","-3","-8","46","15","0.679749","0.018127","-0.730652","-0.060852","-0.007634","0","0.007634","9.485376","1.204663","-0.769214","-0.227295","0.090918","-0.098096","0.119629","0.107666","-0.208154"
"K","1617446022.4845304","7","1","1","-10","46","13","0.67981","0.018188","-0.730652","-0.060791","0","0","0","9.488965","1.168774","-0.772803","-0.223706","0.055029","-0.102881","0.122021","0.071777","-0.208154"
"K","1617446022.4745317","7","2","1","-8","50","20","0.67981","0.018005","-0.730652","-0.060852","0.007634","0","-0.007634","9.496142","1.125708","-0.762036","-0.217725","0.013159","-0.092114","0.107666","0.029907","-0.206958"
"K","1617446022.4647255","7","0","-1","-10","48","16","0.67981","0.0177","-0.730652","-0.060852","0.015267","0","-0.015267","9.491358","1.083838","-0.748877","-0.22251","-0.022729","-0.078955","0.093311","-0.002393","-0.217725"
"K","1617446022.454655","7","0","-1","-10","50","14","0.679871","0.017334","-0.730591","-0.060913","0.015267","-0.007634","-0.022901","9.491358","1.033594","-0.72854","-0.22251","-0.069385","-0.059814","0.071777","-0.047852","-0.223706"
"K","1617446022.4446142","7","1","0","-11","52","13","0.679993","0.016907","-0.73053","-0.060974","0.015267","-0.007634","-0.022901","9.480591","1.004883","-0.717773","-0.234473","-0.093311","-0.052637","0.063403","-0.070581","-0.239258"
"K","1617446022.434688","7","3","0","-8","47","15","0.680054","0.016541","-0.730408","-0.060913","0.007634","-0.015267","-0.022901","9.472217","0.996509","-0.687866","-0.242847","-0.095703","-0.025122","0.037085","-0.070581","-0.248828"
"K","1617446022.424763","7","0","3","-8","52","17","0.680176","0.016296","-0.730286","-0.060852","0","-0.015267","-0.015267","9.450684","1.00249","-0.668726","-0.265576","-0.084937","-0.00957","0.023926","-0.056226","-0.271558"
"K","1617446022.4146447","7","1","-1","-10","46","10","0.680359","0.016235","-0.730225","-0.06073","-0.007634","-0.015267","-0.015267","9.417188","1.024023","-0.671118","-0.300269","-0.061011","-0.014355","0.0323","-0.028711","-0.302661"
"K","1617446022.4047337","7","2","-1","-12","47","16","0.680481","0.016235","-0.730103","-0.060608","-0.007634","-0.015267","-0.007634","9.370532","1.03479","-0.678296","-0.346924","-0.047852","-0.025122","0.046655","-0.011963","-0.346924"
"K","1617446022.3946657","7","1","0","-8","52","17","0.680603","0.016235","-0.72998","-0.060547","0","-0.007634","-0.007634","9.34541","1.022827","-0.699829","-0.372046","-0.059814","-0.050244","0.072974","-0.022729","-0.372046"
"K","1617446022.3848214","7","2","1","-12","47","16","0.680603","0.016174","-0.72998","-0.060547","0","0.007634","0","9.371729","1.001294","-0.717773","-0.345728","-0.080151","-0.068188","0.087329","-0.046655","-0.346924"
"K","1617446022.374718","7","0","-1","-6","47","15","0.680481","0.016113","-0.730103","-0.060608","0","0.015267","-0.007634","9.425562","0.998901","-0.720166","-0.291895","-0.082544","-0.066992","0.082544","-0.055029","-0.293091"
"K","1617446022.3647785","7","4","1","-7","48","13","0.680237","0.016113","-0.730286","-0.060669","0","0.022901","-0.007634","9.494946","1.015649","-0.710596","-0.22251","-0.066992","-0.05144","0.063403","-0.045459","-0.223706"
"K","1617446022.354674","7","3","3","-6","49","13","0.679993","0.015991","-0.73053","-0.06073","0.007634","0.015267","-0.007634","9.533228","1.022827","-0.702222","-0.183032","-0.059814","-0.037085","0.046655","-0.04187","-0.185425"
"K","1617446022.3447587","7","1","-2","-8","50","17","0.679749","0.015869","-0.730713","-0.060852","0.007634","0.015267","-0.007634","9.539209","1.021631","-0.687866","-0.177051","-0.061011","-0.016748","0.026318","-0.04187","-0.18064"
"K","1617446022.3348956","7","2","0","-10","35","13","0.679626","0.015808","-0.730835","-0.060913","0","0","0","9.514087","1.02522","-0.681885","-0.202173","-0.057422","-0.007178","0.017944","-0.035889","-0.205762"
"K","1617446022.3249538","7","3","1","-10","47","13","0.679565","0.015808","-0.730896","-0.061035","-0.007634","-0.007634","0","9.460254","1.046753","-0.68667","-0.25481","-0.037085","-0.010767","0.027515","-0.00957","-0.25481"
"K","1617446022.314643","7","1","1","-10","46","13","0.679626","0.015991","-0.730835","-0.061035","-0.015267","-0.015267","0.007634","9.41958","1.071875","-0.698633","-0.295483","-0.014355","-0.023926","0.044263","0.015552","-0.291895"
"K","1617446022.3049395","7","1","-3","-10","51","8","0.679749","0.016235","-0.730713","-0.061035","-0.015267","-0.007634","0.007634","9.410009","1.089819","-0.711792","-0.305054","0","-0.040674","0.063403","0.028711","-0.299072"
"K","1617446022.2947023","7","-1","0","-10","48","15","0.67981","0.016357","-0.730652","-0.061035","-0.007634","-0.007634","0","9.431543","1.089819","-0.717773","-0.283521","-0.001196","-0.047852","0.068188","0.025122","-0.277539"
"K","1617446022.2849126","7","0","1","-7","48","15","0.67981","0.016418","-0.730652","-0.061096","0","0","0","9.467432","1.081445","-0.729736","-0.247632","-0.011963","-0.059814","0.076563","0.00957","-0.24165"
"K","1617446022.274726","7","0","4","-11","48","12","0.67981","0.016357","-0.730652","-0.061096","0.007634","0","-0.007634","9.496142","1.06709","-0.730933","-0.218921","-0.025122","-0.061011","0.075366","-0.004785","-0.215332"
"K","1617446022.2648976","7","1","0","-9","47","14","0.679749","0.016113","-0.730713","-0.061218","0.015267","0.007634","-0.007634","9.546387","1.030005","-0.733325","-0.168677","-0.061011","-0.062207","0.070581","-0.046655","-0.168677"
"K","1617446022.2547612","7","2","1","-6","52","15","0.679688","0.015808","-0.730774","-0.061401","0.015267","0.007634","-0.015267","9.593042","1.016846","-0.724951","-0.122021","-0.072974","-0.052637","0.056226","-0.062207","-0.124414"
"K","1617446022.2448916","7","0","-1","-9","46","17","0.679626","0.015625","-0.730774","-0.061523","0","0","-0.007634","9.615771","1.043164","-0.707007","-0.099292","-0.045459","-0.034692","0.038281","-0.035889","-0.100488"
"K","1617446022.2420657","7","2","0","-10","46","14","0.679688","0.015625","-0.730774","-0.061646","-0.007634","-0.015267","0","9.593042","1.079053","-0.692651","-0.123218","-0.011963","-0.020337","0.028711","0","-0.122021"
"K","1617446022.2408462","7","4","-1","-10","47","16","0.67981","0.015808","-0.730652","-0.061646","-0.015267","-0.015267","0.007634","9.565527","1.112549","-0.674707","-0.150732","0.017944","-0.005981","0.017944","0.033496","-0.145947"
"K","1617446022.2148097","7","3","0","-6","48","16","0.679932","0.016052","-0.730469","-0.061646","-0.015267","-0.015267","0.007634","9.564331","1.135278","-0.668726","-0.150732","0.038281","-0.004785","0.017944","0.052637","-0.144751"
"K","1617446022.2049313","7","0","1","-8","47","15","0.680054","0.016357","-0.730408","-0.061584","-0.015267","-0.015267","0.007634","9.578687","1.136475","-0.668726","-0.136377","0.035889","-0.007178","0.019141","0.049048","-0.130396"
"K","1617446022.1947284","7","0","0","-10","50","17","0.680115","0.016541","-0.730347","-0.061523","-0.007634","-0.007634","0","9.594238","1.119727","-0.68667","-0.120825","0.017944","-0.026318","0.035889","0.028711","-0.114844"
"K","1617446022.1847458","7","-1","-1","-10","47","15","0.680176","0.016663","-0.730286","-0.061462","-0.007634","-0.007634","-0.007634","9.591846","1.096997","-0.69624","-0.123218","-0.004785","-0.037085","0.045459","0.005981","-0.119629"
"K","1617446022.1748524","7","1","0","-8","46","14","0.680237","0.016541","-0.730225","-0.061401","0.007634","0","-0.015267","9.591846","1.063501","-0.703418","-0.123218","-0.034692","-0.046655","0.052637","-0.023926","-0.122021"
"K","1617446022.1648474","7","1","-1","-7","48","17","0.680237","0.016296","-0.730225","-0.061401","0.015267","0","-0.022901","9.620557","1.018042","-0.699829","-0.094507","-0.077759","-0.043066","0.044263","-0.069385","-0.099292"
"K","1617446022.154783","7","1","-1","-10","51","17","0.680237","0.01593","-0.730286","-0.061462","0.015267","0.007634","-0.022901","9.658838","1.003687","-0.692651","-0.057422","-0.087329","-0.034692","0.033496","-0.082544","-0.063403"
"K","1617446022.144899","7","0","1","-4","48","16","0.680176","0.015625","-0.730347","-0.061523","0.007634","0","-0.015267","9.666016","1.031201","-0.672314","-0.05144","-0.057422","-0.013159","0.013159","-0.05144","-0.056226"
"K","1617446022.134848","7","1","1","-10","48","15","0.680176","0.015503","-0.730286","-0.061584","-0.007634","-0.015267","0","9.612183","1.083838","-0.647192","-0.104077","-0.003589","0.00957","-0.001196","0.007178","-0.104077"
"K","1617446022.1248002","7","1","0","-11","52","13","0.680298","0.015625","-0.730164","-0.061584","-0.015267","-0.015267","0.007634","9.527246","1.136475","-0.630444","-0.189014","0.046655","0.023926","-0.005981","0.066992","-0.183032"
"K","1617446022.1147652","7","1","3","-6","54","15","0.680481","0.01593","-0.730042","-0.061523","-0.022901","-0.015267","0.007634","9.488965","1.195093","-0.60293","-0.228491","0.101685","0.046655","-0.022729","0.128003","-0.217725"
"K","1617446022.104948","7","-1","-1","-6","46","14","0.680603","0.016235","-0.729919","-0.061401","-0.015267","-0.007634","0","9.488965","1.230981","-0.569434","-0.227295","0.135181","0.077759","-0.052637","0.162695","-0.215332"
"K","1617446022.0948431","7","1","-1","-14","51","17","0.680603","0.016296","-0.729919","-0.061279","0","0","-0.007634","9.488965","1.217822","-0.549097","-0.227295","0.123218","0.098096","-0.072974","0.153125","-0.217725"
"K","1617446022.0849435","7","0","-3","-10","46","17","0.680542","0.016113","-0.72998","-0.061157","0.007634","0","-0.015267","9.491358","1.154419","-0.564648","-0.226099","0.063403","0.08374","-0.062207","0.092114","-0.22251"
"K","1617446022.0748956","7","1","-2","-10","50","12","0.68042","0.015625","-0.730103","-0.061096","0.015267","0.007634","-0.022901","9.477002","1.087427","-0.60293","-0.240454","0.003589","0.049048","-0.029907","0.0323","-0.240454"
"K","1617446022.0647628","7","0","-1","-10","46","15","0.680298","0.015076","-0.730225","-0.061035","0.015267","0.007634","-0.030534","9.466235","1.021631","-0.632837","-0.252417","-0.052637","0.022729","-0.007178","-0.023926","-0.257202"
"K","1617446022.0550458","7","-3","0","-8","47","15","0.680176","0.014587","-0.730408","-0.060974","0.007634","0.007634","-0.030534","9.460254","0.968994","-0.660352","-0.259595","-0.098096","0","0.013159","-0.069385","-0.267969"
"K","1617446022.044827","7","-1","-1","-10","48","15","0.679993","0.01416","-0.730591","-0.060852","0","0.007634","-0.030534","9.444702","0.946265","-0.693848","-0.275146","-0.113647","-0.028711","0.04187","-0.086133","-0.282324"
"K","1617446022.035705","7","1","-1","-7","44","14","0.679871","0.013916","-0.730713","-0.060608","-0.007634","0.007634","-0.022901","9.421972","0.935498","-0.723755","-0.297876","-0.117236","-0.053833","0.068188","-0.088525","-0.303857"
"K","1617446022.02493","7","2","-2","-6","45","13","0.679749","0.013733","-0.730835","-0.060364","-0.015267","0.007634","-0.022901","9.407618","0.913965","-0.747681","-0.312231","-0.132788","-0.07417","0.088525","-0.104077","-0.318213"
"K","1617446022.015798","7","0","0","-9","46","15","0.679688","0.013672","-0.730896","-0.06012","-0.015267","0","-0.022901","9.392065","0.904395","-0.759644","-0.327783","-0.13877","-0.084937","0.100488","-0.110059","-0.333765"
"K","1617446022.0047624","7","3","-1","-10","48","16","0.679688","0.01355","-0.730957","-0.059814","-0.007634","0","-0.022901","9.37771","0.891235","-0.769214","-0.343335","-0.145947","-0.093311","0.108862","-0.11604","-0.349316"
"K","1617446021.9956057","7","3","0","-10","50","16","0.679688","0.013428","-0.730957","-0.059631","-0.007634","0","-0.022901","9.386084","0.87688","-0.769214","-0.334961","-0.155518","-0.093311","0.107666","-0.126807","-0.342139"
"K","1617446021.9849596","7","1","0","-11","62","13","0.679688","0.013245","-0.730957","-0.059509","0","0","-0.015267","9.413599","0.868506","-0.758447","-0.308643","-0.160303","-0.082544","0.094507","-0.132788","-0.317017"
"K","1617446021.9751198","7","0","-3","-7","46","15","0.679688","0.013062","-0.730957","-0.059448","0.007634","0","-0.015267","9.432739","0.858936","-0.746484","-0.289502","-0.166284","-0.070581","0.081348","-0.139966","-0.299072"
"K","1617446021.9649854","7","0","-2","-11","51","15","0.679749","0.012878","-0.730957","-0.059509","0","-0.007634","-0.007634","9.450684","0.862524","-0.729736","-0.272754","-0.161499","-0.053833","0.063403","-0.136377","-0.283521"
"K","1617446021.9549038","7","1","3","-10","44","17","0.67981","0.012817","-0.730896","-0.05957","0","-0.007634","-0.007634","9.467432","0.882861","-0.712988","-0.256006","-0.141162","-0.039478","0.049048","-0.117236","-0.265576"
"K","1617446021.94489","7","0","0","-11","46","17","0.679871","0.012817","-0.730774","-0.05957","-0.007634","-0.015267","0","9.480591","0.911572","-0.702222","-0.24165","-0.112451","-0.031104","0.04187","-0.088525","-0.248828"
"K","1617446021.9347613","7","3","-1","-12","48","16","0.679993","0.012939","-0.730652","-0.059631","-0.007634","-0.015267","0","9.503321","0.935498","-0.692651","-0.218921","-0.090918","-0.025122","0.034692","-0.069385","-0.224902"
"K","1617446021.924892","7","1","1","-11","46","13","0.680115","0.013123","-0.730591","-0.059631","-0.007634","-0.007634","0.007634","9.52605","0.95105","-0.695044","-0.197388","-0.077759","-0.029907","0.039478","-0.058618","-0.200977"
"K","1617446021.9149575","7","1","1","-7","32","15","0.680176","0.013306","-0.730469","-0.059692","-0.007634","-0.007634","0.007634","9.546387","0.959424","-0.690259","-0.175854","-0.071777","-0.027515","0.035889","-0.055029","-0.179443"
"K","1617446021.9049418","7","3","1","-8","47","15","0.680298","0.013428","-0.730408","-0.059814","0.007634","-0.007634","0","9.553564","0.961816","-0.69624","-0.168677","-0.072974","-0.035889","0.043066","-0.057422","-0.172266"
"K","1617446021.8947875","7","1","1","-7","44","15","0.680298","0.013306","-0.730347","-0.059998","0.015267","0","-0.007634","9.581079","0.945068","-0.707007","-0.141162","-0.090918","-0.047852","0.05144","-0.078955","-0.145947"
"K","1617446021.885015","7","2","3","-11","47","15","0.680237","0.013123","-0.730408","-0.060242","0.022901","0.007634","-0.007634","9.614575","0.943872","-0.704614","-0.107666","-0.093311","-0.044263","0.045459","-0.08374","-0.113647"
"K","1617446021.874859","7","3","0","-7","47","13","0.680176","0.012878","-0.730408","-0.060547","0.015267","0.007634","-0.007634","9.631323","0.979761","-0.709399","-0.089722","-0.058618","-0.049048","0.05144","-0.05144","-0.090918"
"K","1617446021.8650267","7","2","0","-7","48","20","0.680115","0.012695","-0.730469","-0.060791","0.007634","0","0","9.638501","1.032398","-0.704614","-0.082544","-0.007178","-0.043066","0.047852","-0.001196","-0.078955"
"K","1617446021.8548","7","1","-3","-11","47","13","0.680115","0.012695","-0.730469","-0.061096","0","-0.007634","0.007634","9.631323","1.083838","-0.705811","-0.089722","0.039478","-0.044263","0.052637","0.044263","-0.081348"
"K","1617446021.8452754","7","1","1","-8","47","15","0.680115","0.012878","-0.730408","-0.061279","-0.015267","-0.007634","0.015267","9.618164","1.142456","-0.692651","-0.102881","0.093311","-0.0323","0.045459","0.100488","-0.089722"
"K","1617446021.8349252","7","2","3","-8","48","16","0.680176","0.013184","-0.730347","-0.06134","-0.022901","-0.007634","0.015267","9.596631","1.197485","-0.680689","-0.123218","0.143555","-0.021533","0.039478","0.153125","-0.105273"
"K","1617446021.824982","7","1","-1","-7","48","17","0.680237","0.01355","-0.730347","-0.061218","-0.022901","-0.007634","0.007634","9.585864","1.221411","-0.675903","-0.135181","0.163892","-0.017944","0.038281","0.174658","-0.114844"
"K","1617446021.8155684","7","2","0","-10","46","11","0.680237","0.013672","-0.730347","-0.060974","-0.015267","0","-0.007634","9.578687","1.193897","-0.673511","-0.142358","0.13877","-0.014355","0.033496","0.150732","-0.124414"
"K","1617446021.8056066","7","3","-1","-11","48","15","0.680237","0.013611","-0.730347","-0.06073","0","0","-0.022901","9.578687","1.111353","-0.673511","-0.142358","0.059814","-0.014355","0.027515","0.071777","-0.132788"
"K","1617446021.7958198","7","1","-1","-11","46","16","0.680298","0.013245","-0.730347","-0.060547","0.007634","0","-0.030534","9.576294","1.019238","-0.655566","-0.145947","-0.023926","0.001196","0.007178","-0.008374","-0.147144"
"K","1617446021.7856424","7","1","-1","-10","48","14","0.680298","0.012634","-0.730347","-0.060364","0.015267","0","-0.038168","9.56792","0.946265","-0.625659","-0.154321","-0.086133","0.031104","-0.023926","-0.066992","-0.163892"
"K","1617446021.7757344","7","1","-1","-12","47","17","0.680298","0.012085","-0.730347","-0.060181","0.007634","0","-0.038168","9.55835","0.910376","-0.579004","-0.165088","-0.111255","0.077759","-0.071777","-0.087329","-0.179443"
"K","1617446021.765849","7","1","-1","-8","47","13","0.680298","0.011658","-0.730408","-0.060059","0","-0.007634","-0.030534","9.522461","0.898413","-0.556274","-0.202173","-0.11604","0.101685","-0.093311","-0.087329","-0.218921"
"K","1617446021.7557015","7","0","1","-6","48","16","0.680298","0.011414","-0.730408","-0.059875","-0.007634","-0.007634","-0.022901","9.461451","0.910376","-0.56106","-0.263184","-0.098096","0.096899","-0.082544","-0.063403","-0.277539"
"K","1617446021.7452471","7","1","1","-11","48","15","0.680237","0.011414","-0.730469","-0.059631","-0.022901","0","-0.015267","9.410009","0.934302","-0.576611","-0.314624","-0.070581","0.08374","-0.063403","-0.0323","-0.324194"
"K","1617446021.7358322","7","1","0","-10","48","15","0.680115","0.011475","-0.730591","-0.059387","-0.022901","0.007634","-0.007634","9.383692","0.946265","-0.624463","-0.340942","-0.056226","0.039478","-0.016748","-0.019141","-0.345728"
"K","1617446021.7256458","7","3","-1","-11","51","15","0.679871","0.011658","-0.730835","-0.059143","-0.022901","0.015267","-0.007634","9.381299","0.943872","-0.69624","-0.343335","-0.058618","-0.023926","0.045459","-0.026318","-0.344531"
"K","1617446021.7157602","7","1","0","-10","45","16","0.679626","0.01178","-0.73114","-0.05896","-0.015267","0.022901","-0.007634","9.384888","0.935498","-0.766821","-0.339746","-0.065796","-0.086133","0.10647","-0.038281","-0.337354"
"K","1617446021.7055926","7","2","-1","-8","53","13","0.67926","0.011658","-0.731445","-0.058777","0","0.030534","-0.015267","9.394458","0.911572","-0.820654","-0.330176","-0.086133","-0.131592","0.150732","-0.062207","-0.326587"
"K","1617446021.6956885","7","2","0","-10","47","15","0.678955","0.011414","-0.73175","-0.058655","0.007634","0.030534","-0.022901","9.421972","0.885254","-0.836206","-0.302661","-0.107666","-0.137573","0.153125","-0.087329","-0.300269"
"K","1617446021.6856344","7","-3","-1","-10","48","15","0.678589","0.010986","-0.732056","-0.058655","0.015267","0.030534","-0.022901","9.461451","0.85415","-0.826636","-0.261987","-0.132788","-0.119629","0.130396","-0.114844","-0.26438"
"K","1617446021.6755662","7","1","-3","-10","50","47","0.678284","0.010559","-0.732361","-0.058716","0.015267","0.022901","-0.022901","9.482984","0.852954","-0.808691","-0.240454","-0.129199","-0.093311","0.102881","-0.111255","-0.244043"
"K","1617446021.6656177","7","0","0","-10","46","15","0.678101","0.010254","-0.732544","-0.058838","0.007634","0.007634","-0.015267","9.485376","0.885254","-0.769214","-0.238062","-0.095703","-0.049048","0.061011","-0.075366","-0.24165"
"K","1617446021.654831","7","1","0","-10","48","15","0.677979","0.010132","-0.732605","-0.05896","0","0.007634","0","9.479395","0.924731","-0.741699","-0.242847","-0.056226","-0.019141","0.034692","-0.033496","-0.244043"
"K","1617446021.6458323","7","3","0","-11","50","14","0.677917","0.010132","-0.732666","-0.059082","-0.007634","0","0","9.491358","0.97019","-0.723755","-0.230884","-0.011963","0","0.016748","0.00957","-0.229687"
"K","1617446021.6357143","7","1","3","-12","44","12","0.677856","0.010193","-0.732727","-0.059082","-0.007634","0","0","9.506909","1.000098","-0.717773","-0.215332","0.015552","0.007178","0.010767","0.035889","-0.211743"
"K","1617446021.6255937","7","1","0","-8","52","20","0.677795","0.010254","-0.732788","-0.059143","-0.007634","0","0","9.496142","1.007275","-0.732129","-0.226099","0.021533","-0.004785","0.023926","0.04187","-0.221313"
"K","1617446021.6157606","7","3","2","-8","46","12","0.677795","0.010254","-0.732849","-0.059143","0","0","0","9.496142","0.991724","-0.763232","-0.227295","0.004785","-0.034692","0.052637","0.022729","-0.221313"
"K","1617446021.6057315","7","-1","-1","-9","45","17","0.677673","0.010132","-0.73291","-0.059143","0.007634","0.007634","-0.007634","9.517675","0.96062","-0.794336","-0.204565","-0.022729","-0.063403","0.077759","-0.007178","-0.19978"
"K","1617446021.5956614","7","2","1","8","45","17","0.677551","0.009888","-0.733032","-0.059204","0.015267","0.015267","-0.015267","9.566724","0.925928","-0.826636","-0.155518","-0.055029","-0.092114","0.100488","-0.046655","-0.151929"
"K","1617446021.5858066","7","-1","0","-7","51","15","0.677368","0.009583","-0.733215","-0.059326","0.015267","0.015267","-0.015267","9.597827","0.913965","-0.855347","-0.124414","-0.065796","-0.11604","0.120825","-0.061011","-0.120825"
"K","1617446021.5757322","7","0","0","-10","48","16","0.677246","0.009277","-0.733337","-0.059448","0.007634","0.007634","-0.015267","9.597827","0.930713","-0.872095","-0.12561","-0.046655","-0.130396","0.136377","-0.043066","-0.118433"
"K","1617446021.5657878","7","0","0","-11","48","11","0.677124","0.009094","-0.733398","-0.059509","0","0","-0.007634","9.573901","0.96062","-0.884058","-0.14834","-0.014355","-0.139966","0.149536","-0.010767","-0.137573"
"K","1617446021.5558069","7","1","-9","-12","48","15","0.677185","0.008972","-0.733337","-0.059509","-0.007634","-0.007634","-0.007634","9.547583","0.979761","-0.88645","-0.174658","0.004785","-0.143555","0.156714","0.00957","-0.161499"
"K","1617446021.5458336","7","1","1","-10","46","17","0.677246","0.008972","-0.733276","-0.059448","-0.015267","-0.007634","-0.007634","9.53562","0.995313","-0.872095","-0.186621","0.021533","-0.130396","0.145947","0.028711","-0.172266"
"K","1617446021.535763","7","2","3","-10","48","16","0.677368","0.009033","-0.733215","-0.059326","-0.015267","-0.007634","-0.007634","9.538013","0.99292","-0.842188","-0.185425","0.020337","-0.102881","0.118433","0.028711","-0.173462"
"K","1617446021.5257194","7","1","0","-8","51","13","0.677429","0.009033","-0.733154","-0.059143","-0.007634","-0.007634","-0.015267","9.538013","0.971387","-0.830225","-0.185425","0.001196","-0.093311","0.107666","0.010767","-0.175854"
"K","1617446021.5157762","7","-1","-1","-7","50","15","0.677551","0.008911","-0.733093","-0.05896","0","-0.015267","-0.015267","9.522461","0.92832","-0.832617","-0.202173","-0.037085","-0.096899","0.110059","-0.025122","-0.196191"
"K","1617446021.5056894","7","1","0","-7","52","17","0.677673","0.008789","-0.732971","-0.058838","0","-0.007634","-0.015267","9.504517","0.890039","-0.836206","-0.220117","-0.071777","-0.104077","0.11604","-0.058618","-0.216528"
"K","1617446021.4957938","7","-1","0","-10","41","16","0.677795","0.008545","-0.732849","-0.058777","0","0","-0.015267","9.514087","0.863721","-0.832617","-0.211743","-0.093311","-0.104077","0.113647","-0.080151","-0.210547"
"K","1617446021.485705","7","2","0","-6","47","13","0.677795","0.008362","-0.732849","-0.058777","0","0.007634","-0.015267","9.543994","0.864917","-0.817065","-0.181836","-0.089722","-0.088525","0.095703","-0.078955","-0.181836"
"K","1617446021.4756637","7","1","0","-6","51","13","0.677734","0.008301","-0.73291","-0.058716","-0.007634","0","-0.007634","9.56792","0.881665","-0.797925","-0.15791","-0.071777","-0.068188","0.075366","-0.061011","-0.15791"
"K","1617446021.4659956","7","-3","3","-10","44","13","0.677734","0.008362","-0.73291","-0.058655","-0.015267","0","-0.007634","9.547583","0.903198","-0.778784","-0.178247","-0.050244","-0.047852","0.058618","-0.037085","-0.177051"
"K","1617446021.455862","7","-3","1","-11","48","11","0.677734","0.008484","-0.73291","-0.058533","-0.022901","-0.007634","0","9.509302","0.930713","-0.758447","-0.216528","-0.022729","-0.027515","0.043066","-0.003589","-0.214136"
"K","1617446021.4456828","7","0","0","-9","49","15","0.677795","0.008667","-0.73291","-0.05835","-0.022901","-0.007634","0","9.466235","0.933105","-0.759644","-0.259595","-0.019141","-0.029907","0.049048","0.002393","-0.257202"
"K","1617446021.4358604","7","4","1","-9","50","15","0.677856","0.008911","-0.732849","-0.058167","-0.022901","-0.007634","0","9.445898","0.936694","-0.757251","-0.279932","-0.016748","-0.028711","0.049048","0.005981","-0.276343"
"K","1617446021.425815","7","0","-13","-10","47","14","0.677856","0.009094","-0.732849","-0.057922","-0.015267","-0.007634","-0.007634","9.441113","0.91875","-0.758447","-0.284717","-0.033496","-0.029907","0.050244","-0.008374","-0.283521"
"K","1617446021.4157665","7","-1","-1","-33","47","17","0.677917","0.009155","-0.732788","-0.057739","-0.015267","0","-0.007634","9.443506","0.892432","-0.76084","-0.282324","-0.057422","-0.033496","0.05144","-0.033496","-0.282324"
"K","1617446021.405801","7","3","-1","-9","47","13","0.677917","0.009155","-0.732788","-0.057617","-0.007634","-0.007634","-0.007634","9.45188","0.869702","-0.757251","-0.27395","-0.078955","-0.029907","0.046655","-0.055029","-0.276343"
"K","1617446021.395907","7","0","-1","-6","56","15","0.677917","0.009155","-0.732788","-0.057556","-0.007634","-0.007634","-0.007634","9.444702","0.861328","-0.76084","-0.281128","-0.086133","-0.033496","0.050244","-0.062207","-0.284717"
"K","1617446021.3857925","7","0","1","-10","50","16","0.677979","0.009155","-0.732788","-0.057434","-0.007634","0","-0.007634","9.454272","0.85415","-0.757251","-0.272754","-0.092114","-0.029907","0.045459","-0.068188","-0.276343"
"K","1617446021.3759782","7","-1","-1","-10","52","16","0.677979","0.009216","-0.732788","-0.057312","-0.015267","0","-0.007634","9.488965","0.86731","-0.741699","-0.238062","-0.077759","-0.014355","0.027515","-0.056226","-0.24165"
"K","1617446021.3660028","7","3","-1","-8","51","16","0.677979","0.009277","-0.732788","-0.057129","-0.015267","0","-0.007634","9.506909","0.88645","-0.724951","-0.220117","-0.056226","0.001196","0.011963","-0.034692","-0.223706"
"K","1617446021.35585","7","1","1","-10","48","14","0.677979","0.009399","-0.732849","-0.056885","-0.015267","-0.007634","-0.007634","9.498535","0.881665","-0.712988","-0.228491","-0.059814","0.014355","0","-0.037085","-0.233276"
"K","1617446021.3457158","7","-1","-2","-10","48","12","0.677979","0.009399","-0.732788","-0.056702","-0.007634","-0.007634","-0.015267","9.494946","0.855347","-0.707007","-0.23208","-0.08374","0.019141","-0.004785","-0.059814","-0.239258"
"K","1617446021.335946","7","0","0","-7","47","15","0.67804","0.009277","-0.732788","-0.05658","0","-0.007634","-0.015267","9.500928","0.824243","-0.703418","-0.226099","-0.111255","0.022729","-0.010767","-0.087329","-0.235669"
"K","1617446021.3258562","7","1","0","-10","48","12","0.678101","0.009216","-0.732727","-0.056519","-0.007634","-0.007634","-0.007634","9.503321","0.821851","-0.701025","-0.224902","-0.111255","0.022729","-0.010767","-0.088525","-0.234473"
"K","1617446021.315735","7","0","-1","-11","48","17","0.678162","0.009216","-0.732666","-0.056519","-0.007634","-0.015267","-0.007634","9.490161","0.836206","-0.702222","-0.238062","-0.096899","0.020337","-0.007178","-0.072974","-0.246436"
"K","1617446021.3059342","7","-1","-1","-11","49","14","0.678284","0.009338","-0.732605","-0.056458","-0.015267","-0.015267","0","9.482984","0.861328","-0.703418","-0.245239","-0.072974","0.016748","-0.001196","-0.049048","-0.251221"
"K","1617446021.2958827","7","-3","0","-10","50","15","0.678406","0.009521","-0.732483","-0.056396","-0.015267","-0.015267","0","9.482984","0.893628","-0.703418","-0.245239","-0.04187","0.013159","0.003589","-0.017944","-0.247632"
"K","1617446021.2861924","7","1","-1","-11","48","13","0.678467","0.009705","-0.732361","-0.056335","-0.007634","-0.015267","0","9.492554","0.906787","-0.705811","-0.234473","-0.029907","0.008374","0.007178","-0.007178","-0.235669"
"K","1617446021.2759724","7","0","1","-10","51","15","0.678589","0.009888","-0.7323","-0.056335","-0.007634","-0.015267","0","9.508105","0.917554","-0.720166","-0.220117","-0.021533","-0.007178","0.022729","-0.001196","-0.218921"
"K","1617446021.2656882","7","1","-2","-11","46","15","0.678711","0.009949","-0.732178","-0.056396","0","-0.007634","0","9.523657","0.92832","-0.715381","-0.204565","-0.013159","-0.005981","0.020337","0.004785","-0.203369"
"K","1617446021.255724","7","0","1","-8","48","13","0.678833","0.009888","-0.732056","-0.056519","0.007634","-0.007634","0","9.529638","0.927124","-0.707007","-0.198584","-0.014355","-0.001196","0.015552","0.003589","-0.197388"
"K","1617446021.2457805","7","1","1","-8","47","17","0.678833","0.009766","-0.731995","-0.056702","0.007634","-0.007634","-0.007634","9.552368","0.939087","-0.693848","-0.175854","-0.003589","0.00957","0.003589","0.011963","-0.174658"
"K","1617446021.2357855","7","1","0","-7","48","17","0.678894","0.009583","-0.731995","-0.056885","0.007634","-0.007634","0","9.575098","0.958228","-0.692651","-0.154321","0.014355","0.00957","0.002393","0.028711","-0.151929"
"K","1617446021.2258496","7","-1","0","-10","46","15","0.678894","0.00946","-0.731934","-0.057007","0.007634","-0.007634","0","9.57749","0.964209","-0.699829","-0.150732","0.020337","0.002393","0.00957","0.033496","-0.147144"
"K","1617446020.936042","7","1","-1","-10","44","17","0.677368","0.008728","-0.733582","-0.05481","-0.007634","0","0","9.475805","0.873291","-0.745288","-0.253613","-0.029907","0.002393","0.015552","-0.007178","-0.253613"
"K","1617446020.926591","7","2","0","-10","47","15","0.677368","0.00885","-0.733582","-0.054749","-0.015267","-0.007634","0","9.484179","0.906787","-0.732129","-0.245239","0.001196","0.015552","0.003589","0.022729","-0.244043"
"K","1617446020.9160428","7","1","0","-7","47","17","0.677368","0.009094","-0.733582","-0.054626","-0.022901","-0.007634","0","9.499731","0.927124","-0.699829","-0.229687","0.020337","0.047852","-0.026318","0.043066","-0.229687"
"K","1617446020.9065578","7","1","0","-9","48","19","0.677429","0.009338","-0.733521","-0.054443","-0.022901","-0.007634","0","9.504517","0.930713","-0.678296","-0.224902","0.023926","0.068188","-0.047852","0.047852","-0.226099"
"K","1617446020.8966565","7","1","0","-10","50","14","0.67749","0.00946","-0.733459","-0.05426","-0.007634","-0.007634","-0.007634","9.502124","0.917554","-0.662744","-0.226099","0.010767","0.082544","-0.062207","0.035889","-0.229687"
"K","1617446020.886729","7","0","-1","-11","48","15","0.677551","0.009399","-0.733398","-0.054138","0","-0.007634","-0.007634","9.504517","0.869702","-0.667529","-0.224902","-0.0323","0.076563","-0.058618","-0.007178","-0.230884"
"K","1617446020.876718","7","1","2","-10","46","16","0.677612","0.009216","-0.733337","-0.054138","0.015267","-0.007634","-0.015267","9.508105","0.829028","-0.66394","-0.221313","-0.070581","0.077759","-0.063403","-0.045459","-0.23208"
"K","1617446020.8668818","7","0","-1","-6","47","15","0.677673","0.008911","-0.733276","-0.05426","0.015267","-0.007634","-0.015267","9.517675","0.801514","-0.665137","-0.211743","-0.095703","0.075366","-0.063403","-0.070581","-0.223706"
"K","1617446020.8565896","7","1","0","-10","51","15","0.677673","0.008667","-0.733276","-0.054382","0.007634","-0.007634","-0.007634","9.534424","0.809888","-0.657959","-0.194995","-0.086133","0.082544","-0.070581","-0.062207","-0.206958"
"K","1617446020.8466823","7","-3","1","-10","47","14","0.677673","0.008606","-0.733337","-0.054565","0","-0.007634","0","9.538013","0.843384","-0.671118","-0.192603","-0.055029","0.069385","-0.056226","-0.0323","-0.200977"
"K","1617446020.8367336","7","-3","-1","-10","50","16","0.677612","0.008667","-0.733337","-0.05481","-0.007634","-0.007634","0.015267","9.540405","0.879272","-0.693848","-0.189014","-0.022729","0.047852","-0.033496","-0.002393","-0.192603"
"K","1617446020.82602","7","1","1","-8","48","15","0.677612","0.008911","-0.733337","-0.054932","-0.007634","-0.007634","0.015267","9.539209","0.910376","-0.714185","-0.19021","0.002393","0.027515","-0.010767","0.020337","-0.19021"
"K","1617446020.8168397","7","0","3","-10","48","13","0.677551","0.009155","-0.733337","-0.055054","-0.007634","0","0.007634","9.533228","0.925928","-0.734522","-0.194995","0.011963","0.007178","0.008374","0.028711","-0.192603"
"K","1617446020.8066332","7","0","-1","-10","48","16","0.67749","0.009216","-0.733398","-0.055054","0","0","0","9.536817","0.897217","-0.768018","-0.191406","-0.015552","-0.022729","0.037085","0","-0.189014"
"K","1617446020.7967722","7","0","0","-8","43","16","0.67749","0.009033","-0.733398","-0.055115","0.015267","0","-0.015267","9.559546","0.824243","-0.801514","-0.168677","-0.087329","-0.057422","0.0646","-0.075366","-0.171069"
"K","1617446020.786754","7","1","0","-12","47","16","0.677429","0.008545","-0.733459","-0.055237","0.030534","0.007634","-0.022901","9.583471","0.753662","-0.814673","-0.144751","-0.153125","-0.068188","0.069385","-0.143555","-0.151929"
"K","1617446020.7766955","7","-8","-1","-11","48","13","0.677368","0.007935","-0.733521","-0.05542","0.030534","0","-0.030534","9.60979","0.703418","-0.801514","-0.119629","-0.198584","-0.053833","0.050244","-0.19021","-0.132788"
"K","1617446020.7667506","7","0","-2","-12","46","12","0.677368","0.007385","-0.733521","-0.055603","0.022901","0","-0.022901","9.612183","0.689062","-0.781177","-0.117236","-0.208154","-0.033496","0.028711","-0.198584","-0.132788"
"K","1617446020.756707","7","3","-1","-10","52","16","0.677429","0.006897","-0.733459","-0.055786","0.022901","-0.007634","-0.015267","9.594238","0.690259","-0.764429","-0.136377","-0.202173","-0.019141","0.016748","-0.19021","-0.151929"
"K","1617446020.7468128","7","0","6","-11","48","13","0.67749","0.006592","-0.733398","-0.055969","0.015267","-0.015267","-0.015267","9.55835","0.710596","-0.747681","-0.172266","-0.18064","-0.004785","0.005981","-0.165088","-0.186621"
"K","1617446020.7367852","7","2","1","-10","48","13","0.677551","0.006409","-0.733276","-0.056152","0.007634","-0.015267","-0.007634","9.514087","0.736914","-0.763232","-0.216528","-0.154321","-0.022729","0.029907","-0.136377","-0.227295"
"K","1617446020.7266147","7","2","1","-8","47","11","0.677673","0.006409","-0.733215","-0.056335","0","-0.007634","0","9.465039","0.785962","-0.789551","-0.265576","-0.107666","-0.05144","0.0646","-0.087329","-0.269165"
"K","1617446020.7169447","7","0","-1","-8","48","15","0.677673","0.00647","-0.733154","-0.056519","0","0","0.007634","9.433935","0.840991","-0.827832","-0.29668","-0.056226","-0.090918","0.110059","-0.035889","-0.291895"
"K","1617446020.7065926","7","0","-1","-7","47","18","0.677612","0.006531","-0.733215","-0.056702","0.007634","0.007634","0.007634","9.430346","0.882861","-0.893628","-0.300269","-0.017944","-0.155518","0.177051","-0.002393","-0.287109"
"K","1617446020.6967192","7","1","1","-8","48","12","0.677429","0.006531","-0.733398","-0.057007","0.015267","0.022901","0.007634","9.424365","0.904395","-0.968994","-0.305054","-0.001196","-0.226099","0.248828","0.008374","-0.284717"
"K","1617446020.6867185","7","0","4","-10","44","15","0.677124","0.006348","-0.733643","-0.057373","0.022901","0.030534","0","9.412402","0.927124","-1.041968","-0.317017","0.016748","-0.291895","0.317017","0.021533","-0.290698"
"K","1617446020.676686","7","0","1","-11","50","12","0.676758","0.006104","-0.733887","-0.0578","0.022901","0.030534","0","9.380102","0.968994","-1.114941","-0.346924","0.056226","-0.356494","0.386401","0.058618","-0.311035"
"K","1617446020.66658","7","-1","-1","-7","46","15","0.676392","0.005859","-0.734192","-0.058228","0.022901","0.038168","0.007634","9.358569","1.009668","-1.1604","-0.367261","0.093311","-0.393579","0.428271","0.093311","-0.324194"
"K","1617446020.656759","7","0","-3","-10","46","13","0.676025","0.005676","-0.734497","-0.058716","0.015267","0.038168","0.015267","9.356176","1.049145","-1.199878","-0.368457","0.128003","-0.424683","0.461768","0.12561","-0.319409"
"K","1617446020.6467211","7","2","-4","-8","50","15","0.67572","0.005676","-0.734802","-0.059143","0","0.030534","0.022901","9.353785","1.129297","-1.216626","-0.37085","0.202173","-0.433057","0.476123","0.198584","-0.313428"
"K","1617446020.6368322","7","1","0","-10","50","15","0.675415","0.00592","-0.735046","-0.059448","-0.015267","0.022901","0.030534","9.337036","1.222607","-1.227393","-0.386401","0.287109","-0.436646","0.488086","0.284717","-0.320605"
"K","1617446020.626778","7","0","1","-10","47","15","0.675232","0.006409","-0.735168","-0.059631","-0.022901","0.015267","0.030534","9.325073","1.303955","-1.214233","-0.395972","0.358887","-0.419897","0.477319","0.35769","-0.324194"
"K","1617446020.6170175","7","1","5","-10","49","17","0.675171","0.006958","-0.735229","-0.059692","-0.030534","0.007634","0.030534","9.321485","1.351807","-1.197485","-0.399561","0.398364","-0.400757","0.460571","0.399561","-0.324194"
"K","1617446020.6067894","7","2","1","-11","47","14","0.675232","0.007507","-0.735168","-0.059509","-0.030534","0","0.015267","9.329859","1.355396","-1.166382","-0.38999","0.398364","-0.372046","0.430664","0.401953","-0.317017"
"K","1617446020.5969226","7","2","1","-13","47","14","0.675354","0.007812","-0.735046","-0.059143","-0.030534","-0.007634","0","9.365747","1.277637","-1.110156","-0.354102","0.321802","-0.318213","0.368457","0.326587","-0.293091"
"K","1617446020.5866928","7","2","-1","-10","47","13","0.675659","0.007874","-0.734863","-0.058655","-0.022901","-0.015267","-0.022901","9.427954","1.143652","-1.033594","-0.294287","0.193799","-0.247632","0.284717","0.19978","-0.252417"
"K","1617446020.5767913","7","3","-1","-10","50","17","0.676025","0.007568","-0.734558","-0.057983","-0.015267","-0.030534","-0.045802","9.469824","0.976172","-0.927124","-0.253613","0.040674","-0.149536","0.172266","0.05144","-0.235669"
"K","1617446020.5667338","7","3","1","-10","48","16","0.676514","0.00708","-0.734131","-0.057312","-0.015267","-0.038168","-0.053435","9.514087","0.805103","-0.803906","-0.211743","-0.112451","-0.038281","0.047852","-0.095703","-0.216528"
"K","1617446020.556916","7","0","0","-10","45","16","0.677124","0.006714","-0.733643","-0.056519","-0.030534","-0.045802","-0.053435","9.569117","0.662744","-0.668726","-0.159106","-0.238062","0.081348","-0.082544","-0.216528","-0.185425"
"K","1617446020.5468924","7","1","0","-11","48","18","0.677795","0.006531","-0.733154","-0.055664","-0.045802","-0.053435","-0.053435","9.620557","0.588574","-0.537134","-0.111255","-0.297876","0.197388","-0.205762","-0.271558","-0.151929"
"K","1617446020.5367289","7","2","1","-8","51","15","0.678406","0.006592","-0.732605","-0.054688","-0.053435","-0.061069","-0.045802","9.649267","0.544312","-0.428271","-0.08374","-0.327783","0.291895","-0.303857","-0.297876","-0.132788"
"K","1617446020.526677","7","1","1","-6","47","15","0.679016","0.006897","-0.732117","-0.053772","-0.061069","-0.061069","-0.030534","9.650464","0.517993","-0.35769","-0.084937","-0.344531","0.34812","-0.361279","-0.311035","-0.13877"
"K","1617446020.5167642","7","1","1","-8","46","17","0.679626","0.007385","-0.731628","-0.052917","-0.061069","-0.053435","-0.022901","9.63252","0.515601","-0.309839","-0.105273","-0.340942","0.381616","-0.392383","-0.303857","-0.160303"
"K","1617446020.506697","7","1","0","-7","48","13","0.680054","0.007996","-0.731262","-0.052185","-0.061069","-0.045802","-0.007634","9.610987","0.52876","-0.317017","-0.126807","-0.325391","0.364868","-0.372046","-0.288306","-0.179443"
"K","1617446020.496781","7","1","1","-11","48","12","0.680298","0.008728","-0.731079","-0.051636","-0.053435","-0.022901","0","9.605005","0.564648","-0.369653","-0.133984","-0.290698","0.30625","-0.311035","-0.258398","-0.179443"
"K","1617446020.4868054","7","-1","1","-10","50","15","0.680359","0.009399","-0.731018","-0.05127","-0.038168","-0.007634","0.007634","9.620557","0.608911","-0.447412","-0.117236","-0.250024","0.227295","-0.230884","-0.223706","-0.153125"
"K","1617446020.4767754","7","1","1","-10","52","17","0.680237","0.01001","-0.73114","-0.051147","-0.030534","0","0.015267","9.626538","0.656763","-0.540723","-0.111255","-0.209351","0.137573","-0.139966","-0.19021","-0.137573"
"K","1617446020.467135","7","2","1","-10","46","15","0.680115","0.01062","-0.731262","-0.051147","-0.030534","0","0.015267","9.599024","0.71897","-0.617285","-0.137573","-0.155518","0.0646","-0.062207","-0.13877","-0.154321"
"K","1617446020.456843","7","0","0","-8","52","15","0.680054","0.011169","-0.731323","-0.051147","-0.022901","-0.007634","0.015267","9.557154","0.776392","-0.671118","-0.179443","-0.105273","0.013159","-0.004785","-0.087329","-0.187817"
"K","1617446020.4467385","7","0","3","-10","46","14","0.680054","0.011719","-0.731262","-0.051208","-0.030534","-0.015267","0.015267","9.504517","0.833813","-0.689062","-0.229687","-0.056226","-0.004785","0.017944","-0.035889","-0.23208"
"K","1617446020.4368398","7","-3","0","-6","44","17","0.680176","0.012268","-0.731201","-0.051208","-0.030534","-0.015267","0.015267","9.465039","0.887646","-0.698633","-0.270361","-0.00957","-0.016748","0.035889","0.013159","-0.267969"
"K","1617446020.426855","7","1","1","-11","48","17","0.680298","0.012817","-0.731018","-0.051147","-0.022901","-0.015267","0.015267","9.460254","0.917554","-0.689062","-0.27395","0.013159","-0.010767","0.031104","0.035889","-0.269165"
"K","1617446020.4168794","7","1","0","-10","48","12","0.68042","0.013245","-0.730896","-0.051147","-0.015267","-0.015267","0.015267","9.469824","0.927124","-0.684277","-0.263184","0.016748","-0.00957","0.028711","0.039478","-0.258398"
"K","1617446020.4067993","7","1","1","-8","52","15","0.680542","0.01355","-0.730774","-0.051147","-0.007634","-0.007634","0.007634","9.485376","0.91875","-0.684277","-0.247632","0.004785","-0.013159","0.031104","0.025122","-0.244043"
"K","1617446020.3968658","7","2","0","-5","46","16","0.680603","0.013611","-0.730713","-0.05127","0.007634","-0.007634","0","9.499731","0.904395","-0.684277","-0.233276","-0.010767","-0.014355","0.029907","0.008374","-0.230884"
"K","1617446020.3867948","7","0","0","-7","47","17","0.680664","0.013489","-0.730652","-0.051392","0.015267","-0.007634","-0.007634","9.516479","0.884058","-0.691455","-0.216528","-0.031104","-0.023926","0.037085","-0.011963","-0.215332"
"K","1617446020.3769288","7","3","-1","-8","48","16","0.680786","0.013306","-0.730591","-0.051575","0.015267","-0.015267","-0.007634","9.517675","0.874487","-0.693848","-0.216528","-0.040674","-0.028711","0.04187","-0.021533","-0.216528"
"K","1617446020.367124","7","3","-1","-10","47","16","0.680908","0.013123","-0.730408","-0.051697","0.007634","-0.015267","0","9.482984","0.872095","-0.689062","-0.251221","-0.043066","-0.028711","0.044263","-0.021533","-0.251221"
"K","1617446020.3568673","7","2","-1","-13","45","15","0.681091","0.013062","-0.730225","-0.05188","0","-0.015267","0","9.475805","0.874487","-0.678296","-0.258398","-0.04187","-0.022729","0.038281","-0.019141","-0.258398"
"K","1617446020.3468018","7","1","-2","-10","46","15","0.681274","0.013184","-0.730103","-0.052002","-0.015267","-0.015267","0.007634","9.488965","0.902002","-0.665137","-0.246436","-0.017944","-0.014355","0.029907","0.002393","-0.245239"
"K","1617446020.3370385","7","2","1","-8","46","15","0.681335","0.013489","-0.72998","-0.052002","-0.022901","-0.015267","0.007634","9.502124","0.959424","-0.657959","-0.23208","0.034692","-0.00957","0.027515","0.053833","-0.226099"
"K","1617446020.326991","7","3","0","-8","47","14","0.681458","0.013855","-0.729919","-0.051941","-0.022901","-0.007634","0.007634","9.502124","0.997705","-0.665137","-0.23208","0.069385","-0.019141","0.038281","0.088525","-0.22251"
"K","1617446020.3170412","7","2","3","-11","48","16","0.681519","0.01416","-0.729858","-0.051819","-0.007634","-0.007634","0","9.506909","0.997705","-0.6771","-0.227295","0.066992","-0.0323","0.05144","0.084937","-0.216528"
"K","1617446020.306968","7","4","0","-7","52","17","0.68158","0.014099","-0.729797","-0.051758","0.007634","-0.007634","-0.007634","9.500928","0.966602","-0.699829","-0.233276","0.037085","-0.056226","0.07417","0.053833","-0.223706"
"K","1617446020.2968364","7","2","3","-8","50","15","0.68158","0.013855","-0.729797","-0.051758","0.015267","0","-0.015267","9.508105","0.902002","-0.712988","-0.226099","-0.022729","-0.069385","0.08374","-0.005981","-0.221313"
"K","1617446020.286902","7","-1","0","-10","50","16","0.68158","0.013428","-0.729797","-0.051819","0.022901","0","-0.022901","9.516479","0.843384","-0.721362","-0.218921","-0.076563","-0.078955","0.089722","-0.059814","-0.218921"
"K","1617446020.277192","7","0","1","-11","47","13","0.68158","0.012939","-0.729797","-0.05188","0.015267","0.007634","-0.022901","9.543994","0.806299","-0.73811","-0.191406","-0.107666","-0.095703","0.102881","-0.094507","-0.193799"
"K","1617446020.266861","7","2","-3","-9","50","15","0.681458","0.012573","-0.729919","-0.051941","0.007634","0.007634","-0.015267","9.553564","0.788355","-0.742895","-0.181836","-0.122021","-0.096899","0.102881","-0.110059","-0.185425"
"K","1617446020.2568915","7","0","3","-8","47","16","0.681458","0.012451","-0.729919","-0.052063","-0.007634","0","-0.007634","9.552368","0.820654","-0.744092","-0.183032","-0.089722","-0.098096","0.105273","-0.077759","-0.183032"
"K","1617446020.2469313","7","1","0","-8","48","15","0.681396","0.012512","-0.729919","-0.052063","-0.022901","0","0","9.541601","0.892432","-0.729736","-0.193799","-0.019141","-0.082544","0.094507","-0.005981","-0.187817"
"K","1617446020.2376714","7","-1","0","-8","48","16","0.681396","0.012878","-0.72998","-0.051941","-0.030534","0","0.007634","9.534424","0.971387","-0.702222","-0.200977","0.056226","-0.055029","0.071777","0.070581","-0.19021"
"K","1617446020.226974","7","2","-1","-11","48","15","0.681396","0.013306","-0.72998","-0.051697","-0.038168","0","0","9.533228","1.032398","-0.668726","-0.202173","0.114844","-0.020337","0.039478","0.130396","-0.187817"
"K","1617446020.216899","7","1","0","-10","46","13","0.681335","0.013611","-0.730042","-0.05127","-0.030534","0.007634","-0.007634","9.534424","1.068286","-0.628052","-0.200977","0.151929","0.021533","0","0.169873","-0.186621"
"K","1617446020.2076397","7","-1","0","-10","50","14","0.681213","0.013672","-0.730225","-0.050781","-0.007634","0.007634","-0.022901","9.530835","1.006079","-0.623267","-0.204565","0.095703","0.031104","-0.010767","0.114844","-0.196191"
"K","1617446020.1969235","7","0","-5","-10","44","15","0.68103","0.013306","-0.730408","-0.050415","0.007634","0.007634","-0.038168","9.529638","0.890039","-0.630444","-0.205762","-0.008374","0.028711","-0.013159","0.010767","-0.206958"
"K","1617446020.186973","7","0","0","-10","48","15","0.680908","0.012573","-0.73053","-0.05011","0.022901","0.007634","-0.045802","9.514087","0.747681","-0.642407","-0.22251","-0.137573","0.020337","-0.010767","-0.11604","-0.234473"
"K","1617446020.1772876","7","0","-1","-6","47","17","0.680786","0.011719","-0.730713","-0.049988","0.030534","0.007634","-0.045802","9.482984","0.608911","-0.672314","-0.25481","-0.263184","-0.004785","0.00957","-0.239258","-0.275146"
"K","1617446020.167752","7","1","0","-10","48","11","0.680664","0.010986","-0.730835","-0.049988","0.015267","0.015267","-0.038168","9.469824","0.52876","-0.702222","-0.269165","-0.333765","-0.031104","0.0323","-0.311035","-0.294287"
"K","1617446020.1576252","7","1","0","-11","45","13","0.680481","0.01062","-0.731018","-0.049988","-0.015267","0.015267","-0.022901","9.480591","0.53833","-0.72854","-0.258398","-0.319409","-0.052637","0.053833","-0.299072","-0.281128"
"K","1617446020.1477523","7","1","-1","-8","48","15","0.680298","0.010803","-0.731201","-0.049805","-0.045802","0.015267","-0.007634","9.494946","0.628052","-0.733325","-0.244043","-0.229687","-0.05144","0.056226","-0.210547","-0.258398"
"K","1617446020.137671","7","0","-1","-11","50","17","0.680115","0.011414","-0.731384","-0.049438","-0.068702","0.007634","0.007634","9.494946","0.745288","-0.73811","-0.242847","-0.114844","-0.05144","0.063403","-0.095703","-0.247632"
"K","1617446020.1276815","7","1","-1","-12","46","15","0.679932","0.012329","-0.731506","-0.048889","-0.068702","0.007634","0.015267","9.511694","0.827832","-0.736914","-0.224902","-0.037085","-0.045459","0.059814","-0.020337","-0.22251"
"K","1617446020.1177578","7","-1","0","-10","44","13","0.67981","0.013184","-0.731628","-0.04834","-0.053435","0","0.007634","9.506909","0.862524","-0.745288","-0.228491","-0.005981","-0.049048","0.0646","0.010767","-0.223706"
"K","1617446020.107753","7","1","0","-7","44","15","0.679749","0.013794","-0.73175","-0.047913","-0.038168","0","0","9.516479","0.840991","-0.736914","-0.218921","-0.029907","-0.037085","0.05144","-0.011963","-0.216528"
"K","1617446020.0976212","7","-1","-3","-10","52","17","0.679749","0.014099","-0.731812","-0.047607","-0.022901","0","0","9.522461","0.801514","-0.729736","-0.214136","-0.068188","-0.028711","0.040674","-0.050244","-0.216528"
"K","1617446020.0875504","7","1","0","-8","47","12","0.679749","0.014282","-0.731812","-0.047485","-0.015267","-0.007634","0","9.511694","0.778784","-0.723755","-0.224902","-0.092114","-0.022729","0.034692","-0.072974","-0.229687"
"K","1617446020.077603","7","2","-1","-8","51","16","0.679749","0.014526","-0.73175","-0.047424","-0.022901","-0.007634","0","9.503321","0.817065","-0.705811","-0.23208","-0.056226","-0.005981","0.020337","-0.035889","-0.234473"
"K","1617446020.0677123","7","0","3","-7","50","13","0.67981","0.014832","-0.73175","-0.047363","-0.022901","-0.007634","0.007634","9.486572","0.852954","-0.69624","-0.248828","-0.023926","0.002393","0.014355","-0.001196","-0.248828"
"K","1617446020.0571165","7","-1","-1","-10","48","15","0.67981","0.015198","-0.731689","-0.047241","-0.030534","-0.007634","0.015267","9.485376","0.874487","-0.695044","-0.248828","-0.004785","0.002393","0.015552","0.016748","-0.247632"
"K","1617446020.0475607","7","3","2","-10","50","17","0.679871","0.015686","-0.731628","-0.047119","-0.030534","-0.007634","0.015267","9.486572","0.905591","-0.692651","-0.247632","0.020337","0.003589","0.015552","0.04187","-0.244043"
"K","1617446020.0369854","7","-1","3","-8","44","14","0.679932","0.016174","-0.731567","-0.046997","-0.022901","-0.007634","0.015267","9.49375","0.91875","-0.693848","-0.240454","0.028711","0.001196","0.017944","0.049048","-0.235669"
"K","1617446020.0276382","7","3","2","-8","51","15","0.679993","0.016541","-0.731506","-0.046936","-0.015267","-0.007634","0.007634","9.527246","0.903198","-0.691455","-0.205762","0.00957","0.001196","0.014355","0.027515","-0.203369"
"K","1617446020.0178092","7","1","1","-11","44","16","0.679993","0.016846","-0.731506","-0.046875","-0.015267","-0.007634","0.007634","9.53562","0.873291","-0.689062","-0.197388","-0.022729","0.003589","0.00957","-0.004785","-0.197388"
"K","1617446020.0076284","7","7","-3","-12","47","16","0.680054","0.016968","-0.731506","-0.046936","-0.007634","-0.007634","0","9.510498","0.860132","-0.691455","-0.223706","-0.038281","0.001196","0.013159","-0.017944","-0.224902"
"K","1617446019.9977078","7","-1","-1","-33","45","15","0.680115","0.017029","-0.731445","-0.046936","0","-0.007634","0","9.496142","0.829028","-0.704614","-0.238062","-0.070581","-0.013159","0.027515","-0.049048","-0.24165"
"K","1617446019.9877105","7","0","-1","-10","48","19","0.680115","0.017029","-0.731445","-0.047058","0","0","0","9.503321","0.81228","-0.716577","-0.230884","-0.088525","-0.025122","0.038281","-0.068188","-0.235669"
"K","1617446019.9777043","7","0","0","-10","49","13","0.680054","0.01709","-0.731445","-0.047119","-0.007634","0","0","9.521265","0.817065","-0.734522","-0.211743","-0.086133","-0.04187","0.053833","-0.068188","-0.214136"
"K","1617446019.9678","7","0","-3","-11","44","15","0.679993","0.017212","-0.731506","-0.04718","-0.015267","0","0.007634","9.533228","0.836206","-0.740503","-0.19978","-0.069385","-0.046655","0.058618","-0.052637","-0.200977"
"K","1617446019.9578817","7","2","1","-11","48","16","0.679993","0.017456","-0.731445","-0.047241","-0.015267","-0.007634","0.007634","9.529638","0.878076","-0.730933","-0.202173","-0.031104","-0.037085","0.050244","-0.014355","-0.200977"
"K","1617446019.947698","7","-1","0","-11","46","15","0.680054","0.017761","-0.731384","-0.04718","-0.022901","-0.015267","0.007634","9.510498","0.922339","-0.717773","-0.221313","0.008374","-0.026318","0.04187","0.026318","-0.216528"
"K","1617446019.9377513","7","1","1","-7","46","13","0.680176","0.018066","-0.731323","-0.047119","-0.015267","-0.015267","0.007634","9.498535","0.946265","-0.705811","-0.233276","0.029907","-0.016748","0.034692","0.049048","-0.227295"
"K","1617446019.9278896","7","-1","0","-10","47","15","0.680298","0.018188","-0.731201","-0.047119","0","-0.007634","0","9.500928","0.945068","-0.705811","-0.230884","0.026318","-0.019141","0.037085","0.045459","-0.224902"
"K","1617446019.917724","7","1","-1","-7","48","19","0.68042","0.018127","-0.731079","-0.047119","0.007634","-0.007634","-0.007634","9.510498","0.912769","-0.703418","-0.22251","-0.003589","-0.020337","0.035889","0.015552","-0.218921"
"K","1617446019.907988","7","3","-1","-12","51","16","0.680481","0.017883","-0.731018","-0.047302","0.015267","-0.007634","-0.007634","9.517675","0.875684","-0.692651","-0.215332","-0.039478","-0.011963","0.025122","-0.019141","-0.216528"
"K","1617446019.8977687","7","0","-1","-8","54","16","0.680542","0.0177","-0.730957","-0.047485","0.007634","-0.007634","-0.007634","9.511694","0.864917","-0.69624","-0.221313","-0.05144","-0.016748","0.029907","-0.031104","-0.22251"
"K","1617446019.8878126","7","0","0","-8","49","14","0.680603","0.017639","-0.730896","-0.047668","0","-0.007634","0","9.49375","0.897217","-0.684277","-0.239258","-0.020337","-0.007178","0.022729","0","-0.238062"
"K","1617446019.877728","7","0","-18","-12","48","14","0.680725","0.017639","-0.730774","-0.047668","-0.007634","-0.007634","0","9.484179","0.922339","-0.675903","-0.248828","0.003589","-0.002393","0.020337","0.025122","-0.246436"
"K","1617446019.8678794","7","0","-1","-8","46","12","0.680786","0.017761","-0.730713","-0.047607","-0.015267","-0.007634","0","9.514087","0.911572","-0.662744","-0.218921","-0.007178","0.008374","0.007178","0.011963","-0.217725"
"K","1617446019.857823","7","1","1","-11","50","15","0.680847","0.017883","-0.730713","-0.047546","-0.007634","-0.007634","-0.007634","9.538013","0.894824","-0.651978","-0.196191","-0.023926","0.017944","-0.003589","-0.004785","-0.197388"
"K","1617446019.847717","7","1","0","-10","49","15","0.680847","0.017822","-0.730713","-0.047424","0","-0.007634","-0.015267","9.528442","0.85415","-0.653174","-0.205762","-0.062207","0.016748","-0.003589","-0.04187","-0.210547"
"K","1617446019.8377662","7","2","0","-10","47","14","0.680847","0.017639","-0.730713","-0.047363","0.007634","0","-0.015267","9.521265","0.808691","-0.679492","-0.212939","-0.104077","-0.008374","0.019141","-0.08374","-0.220117"
"K","1617446019.8277843","7","1","-1","-12","47","16","0.680786","0.017395","-0.730774","-0.047424","0.007634","0.007634","-0.015267","9.528442","0.773999","-0.699829","-0.205762","-0.136377","-0.026318","0.034692","-0.117236","-0.214136"
"K","1617446019.8177657","7","1","0","-7","48","15","0.680664","0.017151","-0.730835","-0.047485","0.007634","0.007634","-0.015267","9.522461","0.781177","-0.722559","-0.210547","-0.126807","-0.046655","0.056226","-0.108862","-0.216528"
"K","1617446019.8078592","7","-1","0","-10","47","17","0.680542","0.017029","-0.730957","-0.047546","0","0.007634","-0.007634","9.503321","0.825439","-0.741699","-0.229687","-0.082544","-0.063403","0.076563","-0.063403","-0.230884"
"K","1617446019.797855","7","1","0","-9","51","17","0.680481","0.01709","-0.731018","-0.047607","-0.007634","0.007634","0","9.485376","0.874487","-0.750073","-0.247632","-0.034692","-0.069385","0.084937","-0.014355","-0.244043"
"K","1617446019.787698","7","1","1","-8","50","16","0.680359","0.017334","-0.731079","-0.047668","-0.022901","0.007634","0.007634","9.474609","0.942676","-0.76084","-0.257202","0.027515","-0.077759","0.096899","0.046655","-0.246436"
"K","1617446019.7779589","7","1","2","-8","50","17","0.680298","0.0177","-0.731201","-0.047607","-0.022901","0.007634","0.007634","9.477002","0.998901","-0.75127","-0.256006","0.080151","-0.065796","0.087329","0.099292","-0.24165"
"K","1617446019.7681396","7","-3","0","-10","48","9","0.680237","0.018005","-0.731262","-0.047546","-0.015267","0.007634","0.007634","9.496142","1.008472","-0.739307","-0.235669","0.086133","-0.05144","0.071777","0.104077","-0.221313"
"K","1617446019.7579343","7","-7","0","-10","46","12","0.680176","0.018127","-0.731323","-0.047363","-0.007634","0","0","9.508105","0.972583","-0.721362","-0.223706","0.05144","-0.0323","0.050244","0.069385","-0.214136"
"K","1617446019.748075","7","0","0","-8","47","16","0.680176","0.018066","-0.731323","-0.047302","0","-0.007634","-0.015267","9.509302","0.915161","-0.722559","-0.22251","-0.003589","-0.033496","0.049048","0.014355","-0.218921"
"K","1617446019.7377956","7","0","1","-10","48","15","0.680237","0.017944","-0.731262","-0.04718","0","-0.007634","-0.015267","9.503321","0.870898","-0.698633","-0.229687","-0.044263","-0.010767","0.025122","-0.022729","-0.230884"
"K","1617446019.7276876","7","2","0","-11","51","15","0.680298","0.017761","-0.731201","-0.047058","0","-0.007634","-0.015267","9.500928","0.837402","-0.675903","-0.23208","-0.072974","0.00957","0.004785","-0.050244","-0.236865"
"K","1617446019.7181964","7","1","1","-6","47","15","0.680359","0.017578","-0.73114","-0.046936","0","-0.007634","-0.015267","9.509302","0.801514","-0.66394","-0.223706","-0.105273","0.019141","-0.005981","-0.08374","-0.23208"
"K","1617446019.707962","7","3","-4","-9","47","13","0.680481","0.017517","-0.731018","-0.046875","0","-0.015267","-0.007634","9.509302","0.782373","-0.645996","-0.223706","-0.122021","0.033496","-0.021533","-0.099292","-0.235669"
"K","1617446019.6977785","7","1","-1","-12","48","16","0.680603","0.017517","-0.730957","-0.046875","-0.007634","-0.007634","-0.007634","9.508105","0.796728","-0.637622","-0.226099","-0.107666","0.039478","-0.026318","-0.084937","-0.236865"
"K","1617446019.6878495","7","3","-3","-11","48","17","0.680603","0.017639","-0.730957","-0.046875","-0.015267","-0.007634","0","9.509302","0.836206","-0.632837","-0.224902","-0.070581","0.044263","-0.029907","-0.047852","-0.23208"
"K","1617446019.677807","7","1","0","-10","47","15","0.680603","0.017883","-0.730957","-0.046875","-0.015267","0","0.007634","9.508105","0.875684","-0.637622","-0.226099","-0.033496","0.039478","-0.023926","-0.010767","-0.229687"
"K","1617446019.667826","7","1","1","-12","48","15","0.680542","0.018066","-0.730957","-0.046814","-0.015267","0","0","9.512891","0.919946","-0.650781","-0.220117","0.007178","0.027515","-0.010767","0.027515","-0.218921"
"K","1617446019.6578465","7","1","0","-7","44","15","0.68042","0.018188","-0.731079","-0.046814","-0.007634","0.015267","0","9.549975","0.94148","-0.674707","-0.183032","0.027515","0.007178","0.007178","0.043066","-0.179443"
"K","1617446019.647937","7","-4","0","-10","48","17","0.680237","0.01825","-0.731262","-0.046875","0","0.015267","0","9.587061","0.940283","-0.697437","-0.144751","0.023926","-0.00957","0.020337","0.035889","-0.139966"
"K","1617446019.6378558","7","-3","0","-7","44","15","0.679993","0.01825","-0.731506","-0.046997","0","0.007634","0","9.587061","0.942676","-0.717773","-0.144751","0.025122","-0.022729","0.033496","0.037085","-0.13877"
"K","1617446019.627907","7","2","0","-10","46","15","0.679871","0.01825","-0.731567","-0.047058","0","0","0","9.561938","0.937891","-0.736914","-0.168677","0.019141","-0.039478","0.052637","0.0323","-0.162695"
"K","1617446019.6180646","7","1","1","-6","49","12","0.67981","0.01825","-0.731628","-0.047058","0","-0.007634","0","9.528442","0.915161","-0.756055","-0.202173","-0.002393","-0.057422","0.071777","0.013159","-0.196191"
"K","1617446019.6077878","7","4","0","-10","94","17","0.679871","0.018127","-0.731628","-0.047119","0.007634","0","-0.007634","9.510498","0.870898","-0.772803","-0.221313","-0.045459","-0.075366","0.089722","-0.027515","-0.217725"
"K","1617446019.5982666","7","0","0","-10","47","13","0.679871","0.017883","-0.731567","-0.047119","0.007634","0.007634","-0.015267","9.536817","0.81228","-0.766821","-0.194995","-0.100488","-0.069385","0.078955","-0.084937","-0.197388"
"K","1617446019.587897","7","2","-1","-10","47","15","0.67981","0.017578","-0.731689","-0.047119","0.007634","0.007634","-0.022901","9.584668","0.772803","-0.76084","-0.147144","-0.136377","-0.061011","0.065796","-0.124414","-0.154321"
"K","1617446019.5779574","7","0","-1","-8","48","15","0.679688","0.017273","-0.73175","-0.047119","0.007634","0.007634","-0.022901","9.616968","0.756055","-0.759644","-0.114844","-0.149536","-0.057422","0.059814","-0.139966","-0.123218"
"K","1617446019.568027","7","0","1","-11","48","15","0.679626","0.017029","-0.731812","-0.04718","0","0","-0.015267","9.61936","0.771606","-0.741699","-0.112451","-0.131592","-0.038281","0.040674","-0.122021","-0.120825"
"K","1617446019.5578923","7","-1","-1","-10","54","13","0.679688","0.017029","-0.731812","-0.047119","-0.007634","-0.007634","-0.007634","9.571508","0.827832","-0.721362","-0.161499","-0.07417","-0.019141","0.027515","-0.059814","-0.165088"
"K","1617446019.5480268","7","2","-1","-10","48","15","0.679749","0.01709","-0.73175","-0.046997","-0.015267","-0.015267","0","9.504517","0.879272","-0.710596","-0.228491","-0.021533","-0.00957","0.025122","-0.001196","-0.227295"
"K","1617446019.537912","7","0","-1","-12","51","15","0.679871","0.017212","-0.731628","-0.046875","-0.007634","-0.015267","0","9.453076","0.887646","-0.730933","-0.279932","-0.013159","-0.033496","0.053833","0.00957","-0.276343"
"K","1617446019.527996","7","1","0","-7","51","17","0.680054","0.017334","-0.731445","-0.046875","-0.007634","-0.015267","0","9.424365","0.873291","-0.747681","-0.308643","-0.028711","-0.055029","0.076563","-0.002393","-0.305054"
"K","1617446019.5179513","7","0","1","-11","51","15","0.680176","0.017334","-0.731323","-0.046875","0","-0.007634","-0.007634","9.417188","0.866113","-0.759644","-0.31582","-0.035889","-0.070581","0.092114","-0.00957","-0.311035"
"K","1617446019.507817","7","2","-1","-10","47","15","0.680237","0.017273","-0.731323","-0.046814","0","0","-0.007634","9.45188","0.858936","-0.768018","-0.282324","-0.04187","-0.078955","0.096899","-0.019141","-0.278735"
"K","1617446019.4977872","7","1","3","-8","48","13","0.680237","0.017151","-0.731323","-0.046875","0","0","0","9.497339","0.845776","-0.764429","-0.236865","-0.053833","-0.075366","0.089722","-0.035889","-0.234473"
"K","1617446019.48786","7","0","0","-9","48","15","0.680176","0.017151","-0.731323","-0.046997","0","0","0","9.515284","0.845776","-0.757251","-0.217725","-0.056226","-0.068188","0.081348","-0.039478","-0.216528"
"K","1617446019.477826","7","0","0","-11","48","16","0.680237","0.017212","-0.731323","-0.047119","-0.007634","-0.007634","0","9.486572","0.873291","-0.753662","-0.247632","-0.031104","-0.065796","0.082544","-0.010767","-0.244043"
"K","1617446019.4683824","7","2","2","-12","48","17","0.680298","0.017273","-0.731201","-0.04718","0","-0.007634","0","9.450684","0.891235","-0.739307","-0.282324","-0.014355","-0.053833","0.072974","0.008374","-0.277539"
"K","1617446019.45796","7","1","-1","-10","48","8","0.680359","0.017212","-0.73114","-0.047119","0","-0.007634","-0.007634","9.424365","0.882861","-0.747681","-0.308643","-0.021533","-0.063403","0.084937","0.002393","-0.303857"
"K","1617446019.4484828","7","1","0","-11","52","15","0.680481","0.01709","-0.731079","-0.047119","0","0","-0.007634","9.425562","0.862524","-0.757251","-0.308643","-0.039478","-0.075366","0.095703","-0.014355","-0.303857"
"K","1617446019.0689087","7","-1","0","-11","46","11","0.679688","0.014587","-0.731873","-0.046082","0.007634","0.022901","-0.022901","9.530835","0.698633","-0.888843","-0.205762","-0.156714","-0.185425","0.193799","-0.147144","-0.204565"
"K","1617446019.058901","7","0","0","-10","48","15","0.679504","0.014343","-0.732056","-0.046021","0","0.007634","-0.015267","9.521265","0.722559","-0.857739","-0.215332","-0.128003","-0.14834","0.15791","-0.11604","-0.214136"
"K","1617446019.0489202","7","1","-1","-12","47","17","0.679443","0.014221","-0.732117","-0.045959","-0.007634","0","-0.007634","9.485376","0.747681","-0.838599","-0.251221","-0.100488","-0.128003","0.142358","-0.084937","-0.248828"
"K","1617446019.038802","7","0","0","-10","48","13","0.679504","0.014343","-0.732117","-0.045898","-0.022901","-0.007634","0","9.474609","0.795532","-0.808691","-0.261987","-0.053833","-0.099292","0.11604","-0.035889","-0.257202"
"K","1617446019.0288038","7","0","-1","-12","44","17","0.679565","0.014587","-0.732056","-0.045776","-0.022901","-0.007634","0","9.475805","0.842188","-0.785962","-0.260791","-0.008374","-0.077759","0.096899","0.00957","-0.253613"
"K","1617446019.0187104","7","-1","1","-10","47","12","0.679688","0.014832","-0.731934","-0.045593","-0.015267","-0.007634","0","9.480591","0.851758","-0.77041","-0.256006","0","-0.065796","0.08374","0.017944","-0.248828"
"K","1617446019.0089395","7","-1","0","-12","46","12","0.67981","0.015015","-0.731812","-0.045471","-0.007634","-0.015267","0","9.480591","0.823047","-0.757251","-0.256006","-0.028711","-0.055029","0.071777","-0.00957","-0.252417"
"K","1617446018.9987726","7","-1","0","-10","44","14","0.679932","0.015076","-0.73175","-0.04541","0","-0.007634","-0.007634","9.474609","0.771606","-0.750073","-0.263184","-0.080151","-0.050244","0.065796","-0.059814","-0.26438"
"K","1617446018.9888177","7","2","0","-10","46","13","0.679993","0.014893","-0.731689","-0.045471","0.007634","-0.007634","-0.007634","9.481787","0.723755","-0.765625","-0.256006","-0.126807","-0.068188","0.081348","-0.107666","-0.259595"
"K","1617446018.978703","7","-3","0","-8","47","15","0.680054","0.014709","-0.731628","-0.045593","0.007634","0","-0.007634","9.499731","0.702222","-0.766821","-0.238062","-0.147144","-0.070581","0.081348","-0.129199","-0.244043"
"K","1617446018.9689815","7","1","0","-12","46","13","0.679993","0.014648","-0.731628","-0.045715","0","0","0","9.549975","0.72854","-0.754858","-0.187817","-0.122021","-0.058618","0.066992","-0.107666","-0.192603"
"K","1617446018.958713","7","0","0","-8","49","18","0.679932","0.014771","-0.731689","-0.045776","-0.015267","0.007634","0","9.599024","0.794336","-0.732129","-0.137573","-0.058618","-0.033496","0.040674","-0.047852","-0.13877"
"K","1617446018.948739","7","2","0","-12","45","13","0.679871","0.015076","-0.73175","-0.045776","-0.022901","0","0.007634","9.631323","0.882861","-0.711792","-0.105273","0.025122","-0.011963","0.020337","0.0323","-0.100488"
"K","1617446018.9388735","7","0","1","-6","48","15","0.679871","0.015442","-0.73175","-0.045593","-0.030534","-0.007634","0.007634","9.62295","0.937891","-0.690259","-0.113647","0.077759","0.008374","0.002393","0.087329","-0.10647"
"K","1617446018.9287386","7","1","0","-10","48","16","0.679932","0.015869","-0.731689","-0.045471","-0.022901","-0.015267","0.007634","9.566724","0.939087","-0.689062","-0.169873","0.075366","0.008374","0.007178","0.089722","-0.162695"
"K","1617446018.9190414","7","3","-1","-7","52","13","0.680054","0.016174","-0.731567","-0.045349","-0.015267","-0.015267","0.007634","9.530835","0.92832","-0.685474","-0.205762","0.062207","0.00957","0.007178","0.078955","-0.198584"
"K","1617446018.9090514","7","-1","0","-10","48","13","0.680115","0.016296","-0.731506","-0.045288","-0.007634","-0.007634","0","9.542798","0.885254","-0.683081","-0.193799","0.017944","0.00957","0.004785","0.034692","-0.191406"
"K","1617446018.8988092","7","2","0","-10","47","15","0.680115","0.016296","-0.731506","-0.045227","0","0","-0.007634","9.561938","0.831421","-0.683081","-0.174658","-0.033496","0.00957","0.001196","-0.017944","-0.177051"
"K","1617446018.888814","7","1","3","-7","47","13","0.680115","0.016113","-0.731567","-0.045227","0.007634","0","-0.007634","9.570312","0.788355","-0.697437","-0.166284","-0.07417","-0.002393","0.010767","-0.058618","-0.171069"
"K","1617446018.8788607","7","0","1","-11","48","15","0.680115","0.015991","-0.731567","-0.045288","0","0","-0.007634","9.573901","0.762036","-0.690259","-0.162695","-0.100488","0.003589","0.003589","-0.084937","-0.169873"
"K","1617446018.869023","7","1","3","-10","39","15","0.680115","0.01593","-0.731506","-0.045349","-0.007634","-0.007634","-0.007634","9.573901","0.783569","-0.674707","-0.162695","-0.078955","0.017944","-0.008374","-0.063403","-0.168677"
"K","1617446018.858873","7","0","-1","-8","47","16","0.680176","0.015991","-0.731445","-0.045349","-0.015267","-0.007634","0","9.572705","0.81228","-0.655566","-0.163892","-0.050244","0.035889","-0.025122","-0.033496","-0.168677"
"K","1617446018.848843","7","1","0","-10","48","16","0.680237","0.016113","-0.731384","-0.045227","-0.015267","-0.015267","0","9.565527","0.838599","-0.629248","-0.171069","-0.023926","0.059814","-0.047852","-0.005981","-0.175854"
"K","1617446018.838827","7","2","1","-10","51","13","0.680359","0.016235","-0.731323","-0.045166","-0.015267","-0.015267","0","9.551172","0.855347","-0.617285","-0.186621","-0.008374","0.069385","-0.055029","0.00957","-0.19021"
"K","1617446018.8288996","7","1","0","-10","45","15","0.68042","0.016357","-0.731262","-0.045044","-0.015267","-0.015267","0","9.532031","0.887646","-0.608911","-0.205762","0.022729","0.076563","-0.059814","0.043066","-0.206958"
"K","1617446018.8189056","7","-1","0","-11","47","17","0.680542","0.016479","-0.73114","-0.044983","-0.007634","-0.015267","0","9.487768","0.902002","-0.614893","-0.250024","0.037085","0.066992","-0.046655","0.061011","-0.248828"
"K","1617446018.8088474","7","3","0","-23","51","13","0.680725","0.016541","-0.731018","-0.044922","0","-0.015267","0","9.460254","0.906787","-0.630444","-0.277539","0.04187","0.047852","-0.025122","0.066992","-0.275146"
"K","1617446018.799057","7","0","-3","-10","47","15","0.680847","0.016479","-0.730896","-0.044922","0","-0.015267","-0.007634","9.447095","0.890039","-0.648389","-0.291895","0.026318","0.026318","-0.003589","0.05144","-0.289502"
"K","1617446018.789039","7","-4","-1","-11","48","17","0.680969","0.016357","-0.730774","-0.044922","0.007634","-0.007634","-0.007634","9.447095","0.863721","-0.665137","-0.291895","0.001196","0.005981","0.014355","0.025122","-0.289502"
"K","1617446018.7789154","7","3","1","-11","48","15","0.68103","0.016174","-0.730713","-0.044922","0.007634","-0.007634","-0.007634","9.463842","0.830225","-0.683081","-0.275146","-0.028711","-0.011963","0.029907","-0.004785","-0.27395"
"K","1617446018.7689323","7","-5","-3","-11","46","13","0.68103","0.016052","-0.730652","-0.044983","0","0","-0.007634","9.494946","0.805103","-0.693848","-0.242847","-0.052637","-0.023926","0.038281","-0.0323","-0.244043"
"K","1617446018.7588234","7","0","-2","-4","48","16","0.681091","0.01593","-0.730652","-0.044983","0","0","-0.007634","9.521265","0.79314","-0.699829","-0.217725","-0.063403","-0.031104","0.043066","-0.045459","-0.218921"
"K","1617446018.7487714","7","1","-1","-11","51","13","0.681091","0.015869","-0.730652","-0.044922","0","0","-0.007634","9.52605","0.788355","-0.704614","-0.212939","-0.065796","-0.035889","0.047852","-0.049048","-0.214136"
"K","1617446018.7389617","7","-3","1","-11","46","15","0.681091","0.015808","-0.730652","-0.044922","0","0","-0.007634","9.520068","0.790747","-0.702222","-0.218921","-0.063403","-0.033496","0.046655","-0.045459","-0.220117"
"K","1617446018.7289712","7","0","-2","-7","48","15","0.681091","0.015747","-0.730652","-0.044861","0","0","-0.007634","9.517675","0.791943","-0.691455","-0.221313","-0.059814","-0.022729","0.035889","-0.04187","-0.22251"
"K","1617446018.718783","7","0","-2","-10","48","13","0.681091","0.015625","-0.730652","-0.044861","0","0","-0.015267","9.516479","0.795532","-0.69624","-0.22251","-0.055029","-0.027515","0.040674","-0.037085","-0.223706"
"K","1617446018.7088609","7","1","1","-10","54","17","0.68103","0.015503","-0.730713","-0.044739","0","0","-0.015267","9.505713","0.788355","-0.704614","-0.233276","-0.058618","-0.033496","0.047852","-0.039478","-0.234473"
"K","1617446018.6993787","7","3","1","-10","52","17","0.68103","0.01532","-0.730713","-0.044739","0.007634","0","-0.015267","9.488965","0.764429","-0.724951","-0.251221","-0.080151","-0.053833","0.068188","-0.061011","-0.252417"
"K","1617446018.6891265","7","1","-1","-7","44","15","0.68103","0.015076","-0.730713","-0.044678","0.007634","-0.007634","-0.015267","9.473413","0.733325","-0.750073","-0.266772","-0.107666","-0.078955","0.093311","-0.088525","-0.267969"
"K","1617446018.678873","7","-3","0","-12","45","15","0.681091","0.014893","-0.730652","-0.044739","0","-0.007634","-0.007634","9.453076","0.71897","-0.768018","-0.287109","-0.119629","-0.099292","0.114844","-0.099292","-0.288306"
"K","1617446018.669423","7","0","1","-8","47","16","0.681152","0.014893","-0.730591","-0.044739","-0.007634","-0.007634","-0.007634","9.455469","0.724951","-0.777588","-0.284717","-0.113647","-0.110059","0.12561","-0.094507","-0.284717"
"K","1617446018.6596875","7","0","0","-7","51","15","0.681213","0.014893","-0.730591","-0.044739","-0.007634","0","-0.007634","9.475805","0.736914","-0.771606","-0.265576","-0.101685","-0.105273","0.119629","-0.08374","-0.26438"
"K","1617446018.6496942","7","2","-1","-8","48","16","0.681213","0.014954","-0.730591","-0.044678","-0.007634","0","-0.007634","9.502124","0.741699","-0.763232","-0.239258","-0.096899","-0.096899","0.108862","-0.080151","-0.239258"
"K","1617446018.638872","7","0","-1","-6","48","13","0.681152","0.014954","-0.730591","-0.044739","0","0.007634","-0.007634","9.534424","0.759644","-0.745288","-0.205762","-0.080151","-0.077759","0.088525","-0.065796","-0.205762"
"K","1617446018.6289508","7","0","-1","-7","50","13","0.681091","0.014954","-0.730652","-0.044739","0","0","0","9.545191","0.775195","-0.73811","-0.194995","-0.0646","-0.069385","0.080151","-0.050244","-0.193799"
"K","1617446018.6190307","7","1","0","-11","48","12","0.681091","0.014954","-0.730713","-0.0448","-0.007634","0","0","9.532031","0.803906","-0.735718","-0.209351","-0.037085","-0.065796","0.078955","-0.021533","-0.205762"
"K","1617446018.609565","7","-3","0","-8","47","17","0.681091","0.015015","-0.730652","-0.044861","-0.007634","-0.007634","0","9.502124","0.827832","-0.740503","-0.238062","-0.014355","-0.071777","0.087329","0.001196","-0.23208"
"K","1617446018.5996912","7","0","-1","-10","50","16","0.681152","0.015137","-0.730591","-0.044922","-0.015267","-0.007634","0","9.487768","0.838599","-0.741699","-0.252417","-0.005981","-0.07417","0.090918","0.010767","-0.245239"
"K","1617446018.589007","7","-10","-3","-10","46","17","0.681274","0.01532","-0.730469","-0.044861","-0.015267","-0.007634","0","9.482984","0.864917","-0.721362","-0.257202","0.017944","-0.057422","0.075366","0.035889","-0.250024"
"K","1617446018.5796423","7","1","1","-6","50","15","0.681396","0.015503","-0.730408","-0.044739","-0.015267","-0.007634","-0.007634","9.494946","0.87688","-0.691455","-0.245239","0.028711","-0.029907","0.047852","0.046655","-0.239258"
"K","1617446018.5697603","7","1","-2","-10","48","17","0.681458","0.015503","-0.730347","-0.044495","-0.007634","-0.007634","-0.007634","9.524854","0.842188","-0.669922","-0.216528","-0.001196","-0.00957","0.023926","0.015552","-0.214136"
"K","1617446018.559766","7","0","1","-10","47","16","0.681519","0.015442","-0.730286","-0.044373","-0.007634","-0.007634","-0.007634","9.542798","0.773999","-0.655566","-0.198584","-0.066992","0.001196","0.00957","-0.049048","-0.202173"
"K","1617446018.5496397","7","1","1","-12","43","16","0.68158","0.015381","-0.730225","-0.044312","-0.007634","-0.007634","-0.015267","9.536817","0.734522","-0.648389","-0.204565","-0.104077","0.007178","0.002393","-0.086133","-0.211743"
"K","1617446018.53973","7","1","-1","-10","48","15","0.681641","0.01532","-0.730164","-0.044189","-0.007634","-0.007634","-0.007634","9.528442","0.705811","-0.653174","-0.212939","-0.130396","0.001196","0.008374","-0.111255","-0.22251"
"K","1617446018.5296748","7","0","-1","-11","46","15","0.681702","0.015259","-0.730103","-0.044128","-0.007634","-0.007634","-0.007634","9.517675","0.684277","-0.66394","-0.223706","-0.150732","-0.010767","0.020337","-0.131592","-0.234473"
"K","1617446018.519608","7","1","26","-8","48","19","0.681763","0.015259","-0.730042","-0.044128","-0.007634","-0.007634","-0.007634","9.512891","0.680689","-0.675903","-0.228491","-0.154321","-0.023926","0.033496","-0.135181","-0.238062"
"K","1617446018.509751","7","0","0","-7","48","15","0.681824","0.015381","-0.730042","-0.044067","-0.015267","0","-0.007634","9.509302","0.699829","-0.68667","-0.233276","-0.135181","-0.035889","0.046655","-0.11604","-0.240454"
"K","1617446018.499829","7","-3","-1","-12","47","16","0.681763","0.015503","-0.730103","-0.044067","-0.015267","0.007634","0","9.533228","0.742895","-0.685474","-0.209351","-0.094507","-0.0323","0.043066","-0.077759","-0.212939"
"K","1617446018.4896631","7","3","0","-10","48","15","0.681641","0.015686","-0.730164","-0.044006","-0.015267","0.007634","0","9.554761","0.806299","-0.671118","-0.186621","-0.0323","-0.015552","0.026318","-0.016748","-0.186621"
"K","1617446018.4789982","7","1","-2","-10","48","16","0.68158","0.01593","-0.730286","-0.043945","-0.015267","0","0","9.518872","0.870898","-0.660352","-0.22251","0.028711","-0.002393","0.017944","0.046655","-0.217725"
"K","1617446018.4697237","7","1","-2","-10","47","15","0.681519","0.016174","-0.730286","-0.043884","-0.015267","-0.007634","0.007634","9.467432","0.922339","-0.655566","-0.272754","0.077759","0.002393","0.019141","0.099292","-0.26438"
"K","1617446018.4588232","7","1","1","-5","48","19","0.68158","0.016418","-0.730286","-0.043884","-0.015267","-0.007634","0.007634","9.450684","0.957031","-0.640015","-0.290698","0.108862","0.016748","0.007178","0.132788","-0.279932"
"K","1617446018.449659","7","2","1","-10","51","20","0.68158","0.016602","-0.730225","-0.043884","-0.007634","0","0.007634","9.465039","0.96062","-0.623267","-0.275146","0.110059","0.033496","-0.00957","0.133984","-0.265576"
"K","1617446018.4389806","7","1","13","-10","50","14","0.68158","0.016724","-0.730225","-0.043823","-0.007634","0","0","9.478198","0.943872","-0.599341","-0.261987","0.092114","0.057422","-0.034692","0.11604","-0.256006"
"K","1617446018.429814","7","0","0","-7","50","-23","0.681519","0.016724","-0.730286","-0.043762","0","0","-0.007634","9.487768","0.88645","-0.586182","-0.252417","0.035889","0.071777","-0.05144","0.059814","-0.252417"
"K","1617446018.419716","7","4","1","-10","46","14","0.681519","0.016602","-0.730347","-0.04364","0","0","-0.015267","9.488965","0.81228","-0.58977","-0.252417","-0.033496","0.069385","-0.05144","-0.008374","-0.258398"
"K","1617446018.409866","7","2","1","-11","48","17","0.681458","0.016357","-0.730408","-0.043579","0.007634","0","-0.022901","9.499731","0.724951","-0.607715","-0.24165","-0.117236","0.052637","-0.039478","-0.093311","-0.253613"
"K","1617446018.399732","7","1","-1","-11","46","17","0.681335","0.015991","-0.730469","-0.043518","0.007634","0.007634","-0.022901","9.52605","0.660352","-0.628052","-0.214136","-0.175854","0.034692","-0.025122","-0.155518","-0.229687"
"K","1617446018.3897605","7","1","-1","-11","48","13","0.681152","0.015747","-0.730652","-0.043457","0","0.007634","-0.022901","9.560742","0.638818","-0.636426","-0.179443","-0.192603","0.0323","-0.026318","-0.174658","-0.196191"
