"Alphabet","timestamp","user_id","flex_1","flex_2","flex_3","flex_4","flex_5","Qw","Qx","Qy","Qz","GYRx","GYRy","GYRz","ACCx","ACCy","ACCz","ACCx_body","ACCy_body","ACCz_body","ACCx_world","ACCy_world","ACCz_world"
"L","1617446078.8715284","7","-38","4","52","50","21","0.772095","-0.324158","-0.541443","-0.075012","-0.007634","-0.022901","0.007634","8.145533","-3.805396","2.020532","-0.523975","0.303857","0.025122","-0.088525","0.126807","-0.584985"
"L","1617446078.8613274","7","-36","1","49","51","23","0.772217","-0.324036","-0.541321","-0.075195","-0.007634","-0.015267","0.007634","8.17544","-3.81377","2.046851","-0.495264","0.291895","0.047852","-0.100488","0.13877","-0.550293"
"L","1617446078.851229","7","-42","3","52","51","21","0.772278","-0.323914","-0.541321","-0.075378","-0.007634","-0.015267","0.007634","8.207739","-3.798218","2.080347","-0.46416","0.303857","0.078955","-0.10647","0.173462","-0.521582"
"L","1617446078.8413415","7","-36","1","53","52","24","0.772278","-0.323853","-0.54126","-0.075439","-0.007634","-0.007634","0","8.232862","-3.787451","2.107861","-0.437842","0.313428","0.105273","-0.112451","0.202173","-0.49646"
"L","1617446078.8313289","7","-37","4","50","53","20","0.772339","-0.323853","-0.54126","-0.0755","-0.007634","-0.015267","0","8.24602","-3.804199","2.106665","-0.425879","0.29668","0.102881","-0.113647","0.19021","-0.479712"
"L","1617446078.8212829","7","-37","3","48","46","20","0.772339","-0.323792","-0.54126","-0.0755","-0.015267","-0.007634","0","8.257983","-3.826929","2.088721","-0.413916","0.272754","0.084937","-0.105273","0.163892","-0.462964"
"L","1617446078.8115642","7","-37","6","50","52","21","0.772339","-0.32373","-0.54126","-0.075439","-0.015267","-0.007634","-0.007634","8.269946","-3.838892","2.057617","-0.401953","0.260791","0.053833","-0.081348","0.139966","-0.453394"
"L","1617446078.8014164","7","-36","6","52","54","23","0.772339","-0.32373","-0.541321","-0.075317","-0.007634","-0.007634","-0.007634","8.277124","-3.859229","2.014551","-0.394775","0.24165","0.010767","-0.053833","0.101685","-0.447412"
"L","1617446078.7915435","7","-35","1","50","52","24","0.772339","-0.323792","-0.541321","-0.075195","0","0","-0.007634","8.269946","-3.89751","1.954736","-0.400757","0.205762","-0.046655","-0.027515","0.038281","-0.449805"
"L","1617446078.781433","7","-35","3","51","54","24","0.772217","-0.323914","-0.541382","-0.075073","0","0.007634","-0.015267","8.275928","-3.941772","1.887744","-0.393579","0.163892","-0.110059","0.003589","-0.028711","-0.439038"
"L","1617446078.7713945","7","-35","28","54","52","23","0.772095","-0.324097","-0.541504","-0.074951","0","0.015267","-0.015267","8.296265","-3.959717","1.854248","-0.374438","0.14834","-0.13877","0.027515","-0.052637","-0.421094"
"L","1617446078.761343","7","-37","4","52","52","23","0.771973","-0.324158","-0.541626","-0.074768","-0.007634","0.007634","-0.007634","8.304639","-3.942969","1.84707","-0.364868","0.16748","-0.142358","0.043066","-0.038281","-0.421094"
"L","1617446078.7513","7","-38","5","52","56","21","0.771973","-0.324097","-0.541748","-0.074585","-0.015267","0","-0.007634","8.257983","-3.89751","1.841089","-0.41272","0.214136","-0.147144","0.049048","-0.015552","-0.484497"
"L","1617446078.7413666","7","-39","3","50","52","26","0.772034","-0.323975","-0.541748","-0.074463","-0.015267","-0.007634","0","8.208936","-3.866406","1.830322","-0.460571","0.245239","-0.160303","0.055029","-0.010767","-0.541919"
"L","1617446078.7314987","7","-39","3","50","51","21","0.772095","-0.323853","-0.541687","-0.074402","-0.007634","-0.007634","0","8.174243","-3.841284","1.817163","-0.495264","0.269165","-0.174658","0.063403","-0.008374","-0.586182"
"L","1617446078.7214396","7","-35","2","50","54","23","0.772217","-0.323792","-0.541626","-0.074402","0","-0.007634","0","8.16228","-3.831714","1.813574","-0.507227","0.278735","-0.181836","0.068188","-0.007178","-0.601733"
"L","1617446078.7115293","7","-37","4","54","50","19","0.772217","-0.323853","-0.541565","-0.074463","0.007634","0","0","8.153906","-3.850854","1.808789","-0.514404","0.259595","-0.186621","0.061011","-0.026318","-0.601733"
"L","1617446078.7012937","7","-38","4","52","54","23","0.772095","-0.324036","-0.541565","-0.074585","0.015267","0.007634","-0.007634","8.169458","-3.87478","1.813574","-0.498853","0.236865","-0.179443","0.050244","-0.037085","-0.576611"
"L","1617446078.691342","7","-37","4","52","52","23","0.771912","-0.32428","-0.541687","-0.074768","0.022901","0.015267","-0.007634","8.208936","-3.889136","1.833911","-0.460571","0.22251","-0.153125","0.038281","-0.023926","-0.531152"
"L","1617446078.6813383","7","-36","6","52","54","21","0.771729","-0.324585","-0.541748","-0.074829","0.015267","0.007634","-0.007634","8.225683","-3.880762","1.859033","-0.443823","0.233276","-0.123218","0.027515","0.004785","-0.514404"
"L","1617446078.6714642","7","-35","4","51","52","25","0.771545","-0.324768","-0.54187","-0.07489","0","0","-0.007634","8.208936","-3.852051","1.900903","-0.461768","0.263184","-0.076563","-0.001196","0.050244","-0.533545"
"L","1617446078.6622145","7","-35","3","50","52","17","0.771606","-0.324829","-0.541809","-0.074951","-0.007634","-0.015267","0","8.168262","-3.795825","1.935596","-0.502441","0.320605","-0.043066","-0.017944","0.105273","-0.587378"
"L","1617446078.6521838","7","-33","5","49","52","21","0.771729","-0.324646","-0.541687","-0.075012","-0.022901","-0.022901","0","8.119214","-3.74917","1.945166","-0.551489","0.364868","-0.037085","-0.021533","0.131592","-0.648389"
"L","1617446078.6420712","7","-37","3","50","49","15","0.771973","-0.324402","-0.541443","-0.074951","-0.015267","-0.022901","0","8.084521","-3.719263","1.937988","-0.583789","0.393579","-0.052637","-0.00957","0.137573","-0.691455"
"L","1617446078.631565","7","-37","6","52","54","22","0.772217","-0.324341","-0.54126","-0.074951","-0.007634","-0.022901","-0.007634","8.061792","-3.74917","1.910474","-0.606519","0.363672","-0.086133","-0.005981","0.089722","-0.705811"
"L","1617446078.621383","7","-35","4","49","50","17","0.772278","-0.324402","-0.541077","-0.074951","0.007634","-0.007634","-0.007634","8.086914","-3.816162","1.876978","-0.579004","0.299072","-0.122021","0.001196","0.025122","-0.661548"
"L","1617446078.6116705","7","-35","4","52","51","24","0.772217","-0.324585","-0.541016","-0.07489","0.007634","0.007634","-0.015267","8.137158","-3.875977","1.859033","-0.527563","0.24165","-0.13877","0.008374","-0.016748","-0.595752"
"L","1617446078.6012554","7","-37","4","52","55","23","0.772095","-0.324829","-0.541077","-0.074829","0.007634","0.015267","-0.015267","8.201757","-3.89751","1.860229","-0.461768","0.223706","-0.132788","0.022729","-0.011963","-0.52876"
"L","1617446078.5921571","7","-37","1","52","52","25","0.771912","-0.325012","-0.541199","-0.074707","0","0.007634","-0.015267","8.24602","-3.886743","1.885352","-0.417505","0.238062","-0.102881","0.022729","0.026318","-0.489282"
"L","1617446078.582241","7","-35","3","51","57","17","0.771851","-0.325134","-0.541321","-0.074524","-0.007634","0","-0.007634","8.250806","-3.867603","1.892529","-0.41272","0.259595","-0.092114","0.026318","0.050244","-0.492871"
"L","1617446078.5715714","7","-39","0","49","54","17","0.771851","-0.325073","-0.541382","-0.074341","-0.015267","-0.007634","-0.007634","8.225683","-3.843677","1.899707","-0.437842","0.284717","-0.08374","0.021533","0.068188","-0.523975"
"L","1617446078.5615342","7","-36","1","53","54","20","0.771973","-0.324951","-0.541321","-0.074158","-0.022901","-0.007634","-0.007634","8.18501","-3.822144","1.892529","-0.477319","0.307446","-0.094507","0.025122","0.070581","-0.57063"
"L","1617446078.5521026","7","-37","3","49","52","19","0.772095","-0.324768","-0.54126","-0.074036","-0.022901","-0.007634","0","8.155103","-3.814966","1.884155","-0.50603","0.313428","-0.10647","0.025122","0.061011","-0.600537"
"L","1617446078.5421965","7","-37","1","52","50","23","0.772217","-0.324646","-0.541138","-0.073853","-0.015267","-0.007634","-0.007634","8.131177","-3.83291","1.874585","-0.52876","0.29668","-0.119629","0.017944","0.035889","-0.616089"
"L","1617446078.5322297","7","-37","5","50","51","25","0.772278","-0.324585","-0.541077","-0.073792","-0.007634","0","-0.007634","8.123999","-3.87478","1.855444","-0.534741","0.25481","-0.141162","0.013159","-0.00957","-0.607715"
"L","1617446078.5221453","7","-38","3","49","54","19","0.772278","-0.324646","-0.541138","-0.073669","-0.007634","0.007634","-0.007634","8.155103","-3.914258","1.853052","-0.503638","0.217725","-0.142358","0.00957","-0.0323","-0.564648"
"L","1617446078.512102","7","-37","3","50","44","22","0.772156","-0.324646","-0.54126","-0.073608","-0.007634","0.007634","-0.007634","8.183813","-3.925025","1.861426","-0.476123","0.206958","-0.130396","0.005981","-0.027515","-0.533545"
"L","1617446078.502127","7","-37","1","50","51","20","0.772156","-0.324585","-0.541382","-0.073486","-0.015267","0.007634","0","8.182617","-3.919043","1.866211","-0.477319","0.212939","-0.124414","0.003589","-0.019141","-0.535937"
"L","1617446078.4922795","7","-38","3","52","51","20","0.772156","-0.324463","-0.541443","-0.073364","-0.015267","0","0","8.165869","-3.91665","1.872192","-0.494067","0.214136","-0.118433","-0.005981","-0.019141","-0.550293"
"L","1617446078.4822645","7","-37","4","51","52","24","0.772156","-0.324341","-0.541565","-0.073242","-0.015267","0.007634","0","8.144336","-3.935791","1.868603","-0.516797","0.194995","-0.120825","-0.021533","-0.040674","-0.563452"
"L","1617446078.4720824","7","-37","5","50","56","23","0.772095","-0.324219","-0.541687","-0.07312","-0.015267","0.007634","-0.007634","8.150317","-3.94895","1.884155","-0.510815","0.18064","-0.104077","-0.039478","-0.040674","-0.5479"
"L","1617446078.4622087","7","-33","3","50","54","21","0.772034","-0.324097","-0.54187","-0.072876","-0.015267","0.007634","-0.007634","8.169458","-3.940576","1.908081","-0.492871","0.189014","-0.077759","-0.049048","-0.014355","-0.529956"
"L","1617446078.452169","7","-37","3","53","52","26","0.771973","-0.323975","-0.541992","-0.072693","-0.015267","0.007634","-0.007634","8.17185","-3.947754","1.900903","-0.489282","0.181836","-0.082544","-0.046655","-0.022729","-0.525171"
"L","1617446078.4422362","7","-38","5","50","55","22","0.771973","-0.323853","-0.542114","-0.072571","-0.015267","0","0","8.163477","-3.93938","1.894922","-0.498853","0.189014","-0.088525","-0.04187","-0.022729","-0.53833"
"L","1617446078.4323363","7","-37","4","48","55","24","0.771973","-0.32373","-0.542175","-0.072449","-0.007634","0","0","8.155103","-3.944165","1.881763","-0.507227","0.183032","-0.101685","-0.038281","-0.037085","-0.545508"
"L","1617446078.422197","7","-38","1","50","51","19","0.771973","-0.32373","-0.542297","-0.072388","0","0","-0.007634","8.14314","-3.965698","1.859033","-0.520386","0.162695","-0.123218","-0.035889","-0.068188","-0.552686"
"L","1617446078.412184","7","-36","3","50","50","23","0.771851","-0.323792","-0.542358","-0.072449","0.007634","0.007634","-0.007634","8.151514","-3.996802","1.836304","-0.513208","0.130396","-0.142358","-0.0323","-0.102881","-0.537134"
"L","1617446078.4021585","7","-37","5","49","52","17","0.771667","-0.323975","-0.54248","-0.072449","0.007634","0.015267","-0.007634","8.17185","-3.999194","1.836304","-0.492871","0.130396","-0.137573","-0.027515","-0.095703","-0.517993"
"L","1617446078.3921864","7","-36","3","56","51","20","0.771545","-0.324097","-0.542664","-0.072388","0.007634","0.007634","-0.007634","8.179029","-3.977661","1.856641","-0.48689","0.153125","-0.112451","-0.034692","-0.062207","-0.516797"
"L","1617446078.3821805","7","-35","5","50","49","21","0.771423","-0.324219","-0.542725","-0.072449","0","-0.007634","0","8.14314","-3.956128","1.836304","-0.522778","0.174658","-0.129199","-0.025122","-0.063403","-0.56106"
"L","1617446078.3722727","7","-31","3","51","57","19","0.771423","-0.324158","-0.542725","-0.07251","-0.007634","-0.007634","0","8.121607","-3.92981","1.82793","-0.544312","0.19978","-0.13877","-0.015552","-0.055029","-0.593359"
"L","1617446078.3621702","7","-36","4","50","51","22","0.771484","-0.324036","-0.542725","-0.072571","-0.007634","-0.015267","0","8.12041","-3.890332","1.831519","-0.546704","0.236865","-0.136377","-0.001196","-0.025122","-0.610107"
"L","1617446078.3522596","7","-37","4","50","54","17","0.771606","-0.323975","-0.542603","-0.072571","0","-0.015267","0","8.100073","-3.877173","1.823145","-0.565845","0.250024","-0.14834","0.005981","-0.026318","-0.635229"
"L","1617446078.3422103","7","-36","5","50","54","21","0.771667","-0.323975","-0.54248","-0.072693","0","-0.007634","0","8.114429","-3.898706","1.81477","-0.551489","0.227295","-0.159106","0.00957","-0.046655","-0.614893"
"L","1617446078.332209","7","-37","5","50","51","20","0.771667","-0.324036","-0.542419","-0.072815","0.007634","-0.007634","0","8.149121","-3.917847","1.8052","-0.516797","0.208154","-0.169873","0.022729","-0.058618","-0.577808"
"L","1617446078.322241","7","-41","6","50","54","23","0.771667","-0.324158","-0.542358","-0.072937","0.007634","-0.007634","0","8.165869","-3.919043","1.801611","-0.500049","0.208154","-0.173462","0.0323","-0.057422","-0.564648"
"L","1617446078.312484","7","-36","3","48","53","23","0.771606","-0.324341","-0.542297","-0.07312","0.015267","-0.007634","0","8.169458","-3.915454","1.811182","-0.49646","0.211743","-0.162695","0.027515","-0.047852","-0.559863"
"L","1617446078.3021245","7","-36","3","52","56","22","0.771606","-0.324463","-0.542175","-0.073303","0.015267","-0.015267","0","8.167066","-3.908276","1.826733","-0.497656","0.218921","-0.147144","0.017944","-0.033496","-0.56106"
"L","1617446078.292302","7","-38","1","49","52","22","0.771606","-0.324707","-0.542053","-0.073547","0.015267","-0.015267","0","8.150317","-3.898706","1.832715","-0.514404","0.229687","-0.141162","0.010767","-0.025122","-0.579004"
"L","1617446078.2821114","7","-36","3","51","52","21","0.771606","-0.324829","-0.54187","-0.073853","0.015267","-0.022901","0","8.140747","-3.904687","1.829126","-0.523975","0.22251","-0.147144","0.008374","-0.037085","-0.586182"
"L","1617446078.2723336","7","-39","3","50","50","25","0.771729","-0.32489","-0.541687","-0.074158","0","-0.022901","0","8.151514","-3.860425","1.851856","-0.513208","0.265576","-0.128003","0.017944","0.00957","-0.590967"
"L","1617446078.2622485","7","-39","3","49","52","19","0.771851","-0.324768","-0.541504","-0.074402","-0.007634","-0.022901","0.007634","8.140747","-3.795825","1.87937","-0.523975","0.326587","-0.105273","0.023926","0.068188","-0.620874"
"L","1617446078.2522435","7","-36","4","50","51","21","0.772034","-0.324646","-0.541321","-0.074585","-0.007634","-0.015267","0.007634","8.158691","-3.733618","1.903296","-0.50603","0.386401","-0.087329","0.044263","0.129199","-0.626855"
"L","1617446078.2422","7","-34","5","50","55","23","0.772156","-0.324585","-0.541199","-0.074646","0","-0.015267","0","8.17544","-3.734814","1.899707","-0.489282","0.385205","-0.094507","0.056226","0.129199","-0.613696"
"L","1617446078.232365","7","-36","1","50","53","21","0.772095","-0.324768","-0.541077","-0.074829","0.015267","-0.007634","0","8.21731","-3.793433","1.886548","-0.446216","0.326587","-0.107666","0.056226","0.084937","-0.552686"
"L","1617446078.2223425","7","-35","5","52","54","21","0.772034","-0.325012","-0.541077","-0.075012","0.015267","-0.007634","0","8.253199","-3.859229","1.867407","-0.411523","0.263184","-0.124414","0.053833","0.034692","-0.498853"
"L","1617446078.2122636","7","-35","5","51","54","23","0.771912","-0.325256","-0.541016","-0.075195","0.007634","-0.007634","0","8.27832","-3.873584","1.863818","-0.385205","0.248828","-0.12561","0.059814","0.028711","-0.470142"
"L","1617446078.2024393","7","-35","5","49","52","21","0.771851","-0.325378","-0.541016","-0.075378","0","-0.007634","0","8.283106","-3.859229","1.859033","-0.381616","0.263184","-0.128003","0.069385","0.039478","-0.47373"
"L","1617446078.1922133","7","-37","4","53","56","20","0.771912","-0.325317","-0.541016","-0.075378","-0.015267","-0.007634","0","8.27832","-3.819751","1.863818","-0.386401","0.302661","-0.124414","0.082544","0.070581","-0.494067"
"L","1617446078.1822965","7","-36","4","49","50","24","0.771973","-0.325195","-0.540955","-0.075378","-0.022901","-0.007634","0","8.254395","-3.783862","1.873389","-0.410327","0.336157","-0.117236","0.08374","0.095703","-0.527563"
"L","1617446078.1724598","7","-35","4","52","52","21","0.772156","-0.324951","-0.540894","-0.075195","-0.030534","-0.007634","0","8.222095","-3.747974","1.876978","-0.442627","0.372046","-0.118433","0.087329","0.114844","-0.571826"
"L","1617446078.1622348","7","-35","5","52","52","20","0.772339","-0.324646","-0.540833","-0.075012","-0.030534","-0.007634","0","8.198169","-3.7396","1.870996","-0.465356","0.379224","-0.130396","0.090918","0.108862","-0.596948"
"L","1617446078.1522913","7","-35","4","54","52","21","0.772461","-0.324463","-0.540833","-0.074768","-0.022901","0.007634","-0.007634","8.21372","-3.746777","1.868603","-0.449805","0.372046","-0.135181","0.098096","0.104077","-0.581396"
"L","1617446078.142567","7","-35","8","41","52","20","0.7724","-0.324341","-0.540894","-0.074524","-0.007634","0.007634","-0.007634","8.22688","-3.79104","1.865015","-0.435449","0.328979","-0.137573","0.084937","0.072974","-0.550293"
"L","1617446078.132386","7","-35","5","50","57","21","0.772339","-0.324463","-0.541077","-0.07428","0","0.015267","-0.007634","8.23645","-3.853247","1.854248","-0.425879","0.270361","-0.144751","0.066992","0.025122","-0.519189"
"L","1617446078.1223717","7","-33","4","51","51","23","0.772156","-0.324585","-0.54126","-0.074097","0","0.015267","-0.007634","8.240039","-3.910669","1.848267","-0.42229","0.215332","-0.144751","0.043066","-0.015552","-0.492871"
"L","1617446078.1124802","7","-37","5","53","55","22","0.772034","-0.324707","-0.541382","-0.073975","-0.007634","0.015267","-0.007634","8.21731","-3.942969","1.857837","-0.44502","0.185425","-0.130396","0.00957","-0.037085","-0.497656"
"L","1617446078.1023617","7","-35","4","50","54","24","0.771912","-0.324646","-0.541565","-0.073792","-0.022901","0.007634","-0.007634","8.192187","-3.936987","1.872192","-0.470142","0.191406","-0.112451","-0.010767","-0.027515","-0.517993"
"L","1617446078.092334","7","-35","6","54","54","23","0.771973","-0.324463","-0.541687","-0.073486","-0.030534","0","-0.015267","8.155103","-3.875977","1.897314","-0.507227","0.252417","-0.088525","-0.016748","0.023926","-0.571826"
"L","1617446078.082371","7","-36","5","52","51","21","0.772095","-0.324097","-0.541748","-0.07312","-0.038168","0","-0.015267","8.109644","-3.835303","1.917651","-0.552686","0.291895","-0.070581","-0.031104","0.053833","-0.625659"
"L","1617446078.0724058","7","-37","1","54","52","20","0.772278","-0.323853","-0.541748","-0.072632","-0.030534","0","-0.015267","8.074951","-3.828125","1.912866","-0.586182","0.302661","-0.078955","-0.0323","0.050244","-0.661548"
"L","1617446078.0623112","7","-37","5","52","52","22","0.7724","-0.323669","-0.541748","-0.072205","-0.022901","0.007634","-0.015267","8.094091","-3.880762","1.905689","-0.564648","0.252417","-0.088525","-0.040674","0.00957","-0.623267"
"L","1617446078.0525124","7","-36","6","53","53","23","0.772339","-0.323547","-0.54187","-0.071838","-0.015267","0.015267","-0.022901","8.153906","-3.934595","1.910474","-0.503638","0.19978","-0.081348","-0.045459","-0.010767","-0.545508"
"L","1617446078.0424995","7","-36","5","50","53","21","0.772217","-0.323608","-0.542053","-0.071472","-0.007634","0.015267","-0.022901","8.192187","-3.984839","1.910474","-0.465356","0.153125","-0.077759","-0.053833","-0.037085","-0.490479"
"L","1617446078.032569","7","-36","0","52","54","23","0.772095","-0.323792","-0.542236","-0.071106","-0.007634","0.015267","-0.015267","8.198169","-4.026709","1.908081","-0.458179","0.117236","-0.07417","-0.070581","-0.061011","-0.468945"
"L","1617446078.0224285","7","-38","3","58","52","22","0.771973","-0.323853","-0.542358","-0.070862","-0.007634","0.007634","-0.015267","8.176636","-4.056616","1.897314","-0.478516","0.089722","-0.081348","-0.086133","-0.092114","-0.476123"
"L","1617446078.0123205","7","-33","6","52","55","21","0.771912","-0.323853","-0.542419","-0.07074","-0.015267","0","-0.007634","8.150317","-4.049438","1.900903","-0.504834","0.098096","-0.075366","-0.096899","-0.088525","-0.502441"
"L","1617446078.0026112","7","-36","3","52","52","23","0.771973","-0.323669","-0.54248","-0.070618","-0.022901","0","-0.007634","8.113233","-3.982446","1.923633","-0.541919","0.163892","-0.053833","-0.099292","-0.033496","-0.558667"
"L","1617446077.9924016","7","-35","7","52","52","24","0.772095","-0.323364","-0.542542","-0.070435","-0.030534","-0.007634","-0.007634","8.074951","-3.908276","1.936792","-0.581396","0.235669","-0.044263","-0.089722","0.016748","-0.62207"
"L","1617446077.9824927","7","-33","5","51","54","20","0.772217","-0.32312","-0.542603","-0.070251","-0.015267","-0.007634","0","8.0594","-3.884351","1.916455","-0.596948","0.258398","-0.066992","-0.066992","0.017944","-0.649585"
"L","1617446077.9724042","7","-33","4","52","52","23","0.772217","-0.322998","-0.542664","-0.070129","-0.007634","0","-0.007634","8.079737","-3.895117","1.885352","-0.576611","0.247632","-0.098096","-0.039478","-0.002393","-0.632837"
"L","1617446077.9623747","7","-35","6","50","56","21","0.772095","-0.323059","-0.542786","-0.070129","0.007634","0.015267","-0.007634","8.121607","-3.917847","1.842285","-0.535937","0.224902","-0.137573","-0.002393","-0.0323","-0.595752"
"L","1617446077.953258","7","-37","3","48","52","21","0.771851","-0.323242","-0.54303","-0.070068","0.015267","0.015267","-0.007634","8.168262","-3.942969","1.808789","-0.490479","0.200977","-0.163892","0.025122","-0.056226","-0.550293"
"L","1617446077.9425228","7","-36","-13","51","53","21","0.771545","-0.323547","-0.543213","-0.070068","0.015267","0.015267","-0.007634","8.20415","-3.950146","1.792041","-0.45459","0.196191","-0.171069","0.043066","-0.055029","-0.517993"
"L","1617446077.9323587","7","-37","5","50","54","25","0.771301","-0.323792","-0.543396","-0.070068","0.007634","0.007634","-0.007634","8.212524","-3.938184","1.801611","-0.446216","0.209351","-0.154321","0.039478","-0.033496","-0.513208"
"L","1617446077.922458","7","-37","4","52","51","19","0.77124","-0.323975","-0.543457","-0.070007","0","-0.007634","-0.007634","8.17185","-3.90708","1.813574","-0.48689","0.244043","-0.139966","0.028711","-0.008374","-0.56106"
"L","1617446077.912433","7","-37","3","52","52","21","0.771301","-0.323975","-0.543335","-0.069946","-0.015267","-0.015267","-0.007634","8.122803","-3.87478","1.848267","-0.534741","0.277539","-0.107666","0","0.023926","-0.611304"
"L","1617446077.9030864","7","-37","0","52","52","21","0.771545","-0.323914","-0.543091","-0.069885","-0.015267","-0.022901","-0.007634","8.084521","-3.847266","1.890137","-0.571826","0.30625","-0.071777","-0.031104","0.057422","-0.648389"
"L","1617446077.892656","7","-36","3","50","51","23","0.77179","-0.323792","-0.542847","-0.069824","-0.007634","-0.030534","-0.007634","8.065381","-3.856836","1.909277","-0.588574","0.297876","-0.059814","-0.05144","0.053833","-0.657959"
"L","1617446077.8824425","7","-36","5","52","54","23","0.771973","-0.323792","-0.542542","-0.069885","0.007634","-0.022901","-0.007634","8.065381","-3.915454","1.9021","-0.586182","0.240454","-0.072974","-0.066992","0.002393","-0.634033"
"L","1617446077.8726215","7","-35","4","52","53","23","0.772034","-0.324036","-0.542297","-0.069946","0.015267","-0.015267","-0.015267","8.100073","-3.999194","1.881763","-0.549097","0.160303","-0.095703","-0.070581","-0.063403","-0.571826"
"L","1617446077.8631258","7","-36","4","49","48","23","0.771973","-0.32428","-0.542236","-0.070068","0.015267","0","-0.015267","8.164673","-4.035083","1.878174","-0.484497","0.126807","-0.098096","-0.058618","-0.075366","-0.501245"
"L","1617446077.853125","7","-36","5","52","51","23","0.77179","-0.324646","-0.542297","-0.070129","0.015267","0.007634","-0.015267","8.21731","-4.036279","1.881763","-0.43186","0.129199","-0.088525","-0.043066","-0.055029","-0.453394"
"L","1617446077.8423734","7","-36","5","52","52","23","0.771545","-0.324951","-0.542358","-0.07019","0.015267","0.007634","-0.007634","8.24602","-4.025513","1.875781","-0.401953","0.141162","-0.088525","-0.026318","-0.038281","-0.43186"
"L","1617446077.8325658","7","-35","3","52","52","21","0.771423","-0.325134","-0.54248","-0.070251","0","0.007634","-0.007634","8.24602","-3.983643","1.872192","-0.403149","0.184229","-0.087329","-0.007178","-0.004785","-0.451001"
"L","1617446077.8223171","7","-37","3","50","50","18","0.771362","-0.325134","-0.542542","-0.07019","-0.015267","-0.007634","-0.007634","8.210132","-3.905884","1.885352","-0.439038","0.263184","-0.072974","0.002393","0.055029","-0.513208"
"L","1617446077.8123984","7","-35","4","52","54","20","0.771484","-0.324951","-0.542542","-0.070129","-0.022901","-0.015267","0","8.141943","-3.835303","1.861426","-0.508423","0.332568","-0.099292","0.027515","0.076563","-0.608911"
"L","1617446077.802468","7","-36","6","50","54","24","0.771606","-0.324646","-0.54248","-0.070129","-0.022901","-0.015267","0.007634","8.12998","-3.78147","1.849463","-0.520386","0.381616","-0.11604","0.057422","0.102881","-0.643604"
"L","1617446077.7925878","7","-35","7","50","54","23","0.77179","-0.324341","-0.542419","-0.070129","-0.015267","-0.007634","0.007634","8.123999","-3.74917","1.835107","-0.526367","0.411523","-0.135181","0.08374","0.113647","-0.666333"
"L","1617446077.7830515","7","-37","1","52","47","22","0.77179","-0.324219","-0.54248","-0.070068","0","0","0","8.128784","-3.782666","1.800415","-0.521582","0.375635","-0.169873","0.096899","0.066992","-0.653174"
"L","1617446077.7732818","7","-36","5","51","49","23","0.771667","-0.324402","-0.542603","-0.070068","0.015267","0.015267","0","8.17185","-3.860425","1.762134","-0.479712","0.300269","-0.204565","0.10647","0","-0.590967"
"L","1617446077.7631736","7","-36","4","49","48","23","0.771423","-0.324646","-0.542786","-0.070129","0.015267","0.022901","-0.007634","8.21372","-3.917847","1.734619","-0.439038","0.244043","-0.224902","0.113647","-0.046655","-0.535937"
"L","1617446077.7532449","7","-36","0","49","52","20","0.771179","-0.324829","-0.542969","-0.070129","0","0.022901","-0.007634","8.230469","-3.917847","1.74419","-0.42229","0.245239","-0.208154","0.107666","-0.0323","-0.517993"
"L","1617446077.7433326","7","-35","7","52","48","23","0.771057","-0.32489","-0.543213","-0.069946","-0.015267","0.015267","-0.007634","8.23645","-3.860425","1.789648","-0.417505","0.303857","-0.15791","0.096899","0.043066","-0.52876"
"L","1617446077.733298","7","-37","4","52","48","23","0.770996","-0.324829","-0.543274","-0.069702","-0.022901","0","-0.007634","8.201757","-3.807788","1.831519","-0.451001","0.35769","-0.114844","0.07417","0.101685","-0.573022"
"L","1617446077.7231488","7","-36","3","52","53","19","0.771118","-0.324707","-0.543213","-0.069397","-0.022901","-0.015267","-0.007634","8.132373","-3.786255","1.843481","-0.519189","0.381616","-0.105273","0.050244","0.108862","-0.641211"
"L","1617446077.7131572","7","-36","5","54","51","21","0.771362","-0.324524","-0.54303","-0.069214","-0.022901","-0.015267","-0.007634","8.08811","-3.799414","1.839893","-0.56106","0.369653","-0.11604","0.035889","0.082544","-0.674707"
"L","1617446077.702402","7","-36","4","53","52","21","0.771545","-0.324402","-0.542847","-0.069092","-0.007634","-0.015267","-0.007634","8.090503","-3.829321","1.836304","-0.557471","0.340942","-0.124414","0.031104","0.056226","-0.661548"
"L","1617446077.693079","7","-36","5","52","96","20","0.771606","-0.324463","-0.542786","-0.069031","0","0","-0.007634","8.112036","-3.875977","1.825537","-0.534741","0.295483","-0.136377","0.028711","0.020337","-0.624463"
"L","1617446077.683297","7","-36","3","50","55","21","0.771545","-0.324646","-0.542786","-0.068909","0.007634","0.007634","-0.007634","8.149121","-3.923828","1.811182","-0.49646","0.252417","-0.14834","0.033496","-0.00957","-0.574219"
"L","1617446077.6732075","7","-37","4","50","52","20","0.771362","-0.324829","-0.542908","-0.068848","0.007634","0.015267","-0.015267","8.182617","-3.964502","1.809985","-0.462964","0.212939","-0.144751","0.026318","-0.031104","-0.527563"
"L","1617446077.6631036","7","-37","4","50","54","20","0.771179","-0.325134","-0.54303","-0.068726","0.007634","0.015267","-0.015267","8.183813","-3.978858","1.796826","-0.461768","0.203369","-0.150732","0.027515","-0.04187","-0.523975"
"L","1617446077.6534092","7","-37","3","52","54","21","0.771057","-0.325256","-0.543152","-0.068665","-0.007634","0.007634","-0.007634","8.167066","-3.970483","1.801611","-0.478516","0.212939","-0.142358","0.017944","-0.033496","-0.540723"
"L","1617446077.6432228","7","-35","6","50","54","22","0.770996","-0.325195","-0.543213","-0.068542","-0.015267","-0.007634","-0.007634","8.135962","-3.928613","1.809985","-0.509619","0.25481","-0.132788","0.017944","-0.003589","-0.583789"
"L","1617446077.63316","7","-37","5","46","54","21","0.771179","-0.325012","-0.543152","-0.068359","-0.022901","-0.015267","-0.007634","8.076147","-3.908276","1.796826","-0.568237","0.276343","-0.150732","0.017944","-0.011963","-0.648389"
"L","1617446077.6232307","7","-32","4","49","48","23","0.771362","-0.324768","-0.543091","-0.068176","-0.030534","-0.007634","-0.007634","8.066577","-3.904687","1.79563","-0.577808","0.278735","-0.156714","0.020337","-0.015552","-0.659155"
"L","1617446077.613227","7","-37","5","51","50","22","0.771484","-0.324524","-0.543091","-0.067932","-0.022901","0","-0.007634","8.098877","-3.921436","1.784863","-0.544312","0.261987","-0.169873","0.035889","-0.027515","-0.625659"
"L","1617446077.6033535","7","-33","4","52","54","22","0.771545","-0.32428","-0.543152","-0.067688","-0.022901","0","-0.007634","8.119214","-3.959717","1.760937","-0.523975","0.22251","-0.194995","0.045459","-0.066992","-0.595752"
"L","1617446077.5932422","7","-37","1","52","53","23","0.771545","-0.324158","-0.543213","-0.067505","-0.015267","0","-0.007634","8.126391","-4.008765","1.729834","-0.516797","0.173462","-0.226099","0.05144","-0.122021","-0.574219"
"L","1617446077.5832107","7","-37","1","50","52","23","0.771545","-0.324036","-0.543274","-0.067383","-0.007634","0.007634","-0.007634","8.12041","-4.061401","1.691553","-0.522778","0.120825","-0.26438","0.055029","-0.186621","-0.564648"
"L","1617446077.5732608","7","-40","3","54","62","19","0.771545","-0.323914","-0.543396","-0.067322","-0.007634","0.015267","-0.007634","8.157495","-4.103271","1.678394","-0.48689","0.077759","-0.277539","0.061011","-0.218921","-0.517993"
"L","1617446077.563425","7","-36","5","49","55","21","0.771423","-0.323792","-0.54364","-0.0672","-0.015267","0.015267","-0.007634","8.210132","-4.110449","1.692749","-0.435449","0.068188","-0.259595","0.062207","-0.203369","-0.46416"
"L","1617446077.5532544","7","-38","10","50","50","20","0.771362","-0.323608","-0.543823","-0.066956","-0.015267","0.007634","0","8.224487","-4.090112","1.701123","-0.421094","0.088525","-0.248828","0.069385","-0.177051","-0.458179"
"L","1617446077.5434082","7","-37","4","52","52","23","0.771423","-0.323364","-0.543945","-0.066895","-0.022901","0","0","8.195776","-4.073364","1.692749","-0.452197","0.101685","-0.258398","0.070581","-0.179443","-0.492871"
"L","1617446077.5333917","7","-38","4","52","53","21","0.771545","-0.322998","-0.544006","-0.066895","-0.022901","-0.007634","0.007634","8.186206","-4.037476","1.703516","-0.462964","0.132788","-0.251221","0.075366","-0.154321","-0.514404"
"L","1617446077.5233183","7","-38","4","52","53","22","0.771729","-0.322571","-0.543945","-0.066956","-0.022901","-0.007634","0.007634","8.188599","-4.001587","1.742993","-0.461768","0.162695","-0.217725","0.062207","-0.110059","-0.519189"
"L","1617446077.5133483","7","-36","4","54","57","21","0.771912","-0.322266","-0.543945","-0.066956","-0.015267","-0.015267","0.007634","8.182617","-3.972876","1.780078","-0.468945","0.187817","-0.185425","0.045459","-0.07417","-0.529956"
"L","1617446077.5033617","7","-36","5","50","52","17","0.772034","-0.322083","-0.543823","-0.067078","0","-0.022901","0.007634","8.156299","-3.983643","1.79563","-0.495264","0.174658","-0.174658","0.020337","-0.084937","-0.545508"
"L","1617446077.493258","7","-36","4","52","52","22","0.772156","-0.322021","-0.54364","-0.067383","0.007634","-0.022901","0.007634","8.132373","-4.00398","1.8052","-0.520386","0.150732","-0.168677","-0.004785","-0.105273","-0.556274"
"L","1617446077.4833844","7","-37","5","50","50","22","0.772278","-0.322083","-0.543396","-0.067688","0.015267","-0.015267","0","8.122803","-3.99082","1.842285","-0.52876","0.162695","-0.136377","-0.028711","-0.080151","-0.562256"
"L","1617446077.4732783","7","-37","4","53","20","-11","0.772339","-0.322205","-0.543213","-0.068054","0.015267","-0.015267","0","8.12041","-3.956128","1.899707","-0.532349","0.196191","-0.081348","-0.058618","-0.022729","-0.569434"
"L","1617446077.4632325","7","-31","5","52","53","22","0.772339","-0.322327","-0.543091","-0.068359","0.015267","-0.022901","0","8.114429","-3.911865","1.966699","-0.53833","0.239258","-0.015552","-0.093311","0.046655","-0.579004"
"L","1617446077.4532788","7","-37","1","51","55","23","0.7724","-0.322449","-0.542847","-0.068665","0.015267","-0.030534","0","8.065381","-3.864014","2.014551","-0.586182","0.285913","0.027515","-0.12561","0.095703","-0.632837"
"L","1617446077.4432397","7","-37","4","51","52","23","0.772522","-0.322571","-0.542542","-0.06897","0.007634","-0.030534","0","8.037867","-3.829321","2.068384","-0.6125","0.320605","0.076563","-0.160303","0.144751","-0.660352"
"L","1617446077.4334435","7","-37","3","51","52","17","0.772644","-0.322693","-0.542358","-0.069275","0.007634","-0.030534","0","8.03667","-3.792236","2.113843","-0.613696","0.35769","0.118433","-0.177051","0.198584","-0.668726"
"L","1617446077.4234462","7","-37","5","52","56","23","0.772705","-0.322815","-0.542114","-0.069519","0.007634","-0.030534","0","8.016333","-3.763525","2.13418","-0.632837","0.386401","0.136377","-0.185425","0.226099","-0.693848"
"L","1617446077.4132428","7","-35","5","53","54","24","0.772766","-0.323059","-0.54187","-0.069763","0.015267","-0.030534","0","8.010351","-3.789844","2.098291","-0.637622","0.361279","0.098096","-0.168677","0.184229","-0.695044"
"L","1617446077.403554","7","-37","4","52","55","21","0.772705","-0.323364","-0.541687","-0.070068","0.022901","-0.015267","0","8.047437","-3.837695","2.06001","-0.599341","0.314624","0.059814","-0.144751","0.133984","-0.649585"
"L","1617446077.3932238","7","-38","6","52","54","24","0.772583","-0.32373","-0.541626","-0.070374","0.022901","-0.007634","-0.007634","8.096484","-3.869995","2.01814","-0.551489","0.284717","0.021533","-0.107666","0.100488","-0.60293"
"L","1617446077.3833225","7","-37","4","51","52","21","0.7724","-0.324158","-0.541626","-0.070618","0.022901","0","-0.007634","8.127588","-3.884351","1.967896","-0.520386","0.272754","-0.022729","-0.065796","0.072974","-0.579004"
"L","1617446075.465406","7","-36","5","54","54","22","0.776978","-0.323547","-0.53595","-0.065979","-0.015267","-0.030534","-0.007634","7.847656","-3.898706","1.957129","-0.732129","0.334961","-0.160303","-0.027515","-0.008374","-0.819458"
"L","1617446075.4555628","7","-37","4","52","50","24","0.777283","-0.323364","-0.535706","-0.065979","-0.007634","-0.022901","-0.007634","7.863208","-3.904687","1.942773","-0.715381","0.327783","-0.183032","-0.005981","-0.022729","-0.807495"
"L","1617446075.445464","7","-35","1","49","53","24","0.777405","-0.323303","-0.535522","-0.065979","0","-0.007634","-0.007634","7.905078","-3.940576","1.929614","-0.672314","0.293091","-0.19978","0.008374","-0.049048","-0.758447"
"L","1617446075.4355974","7","-37","7","54","73","23","0.777405","-0.323486","-0.5354","-0.065979","0.007634","0","-0.007634","7.961304","-4.000391","1.917651","-0.614893","0.235669","-0.212939","0.016748","-0.087329","-0.685474"
"L","1617446075.4262033","7","-35","6","50","57","24","0.777283","-0.32373","-0.5354","-0.065979","0.015267","0.007634","-0.015267","8.018725","-4.080542","1.912866","-0.556274","0.15791","-0.214136","0.007178","-0.135181","-0.600537"
"L","1617446075.4160705","7","-37","3","51","54","24","0.777161","-0.324036","-0.535461","-0.06604","0.015267","0.007634","-0.007634","8.064184","-4.134375","1.922436","-0.510815","0.107666","-0.19978","-0.007178","-0.154321","-0.535937"
"L","1617446075.405694","7","-36","3","50","52","21","0.776978","-0.32428","-0.535522","-0.066162","0.007634","0","-0.007634","8.10127","-4.152319","1.934399","-0.47373","0.090918","-0.183032","-0.011963","-0.149536","-0.492871"
"L","1617446075.3954265","7","-37","1","50","54","20","0.776978","-0.324341","-0.535461","-0.066284","0","-0.015267","0","8.094091","-4.128394","1.957129","-0.480908","0.114844","-0.160303","-0.021533","-0.119629","-0.504834"
"L","1617446075.3861735","7","-37","5","51","51","19","0.777161","-0.32428","-0.535217","-0.066406","-0.015267","-0.030534","0","8.053418","-4.102075","1.983447","-0.520386","0.139966","-0.139966","-0.043066","-0.098096","-0.545508"
"L","1617446075.376095","7","-36","2","50","51","19","0.777466","-0.324036","-0.534912","-0.066589","-0.015267","-0.030534","0.007634","8.022314","-4.075757","2.016943","-0.551489","0.162695","-0.11604","-0.065796","-0.072974","-0.577808"
"L","1617446075.365505","7","-39","5","52","52","17","0.777771","-0.323669","-0.534668","-0.066772","-0.015267","-0.030534","0.007634","8.017529","-4.036279","2.06001","-0.556274","0.197388","-0.08374","-0.077759","-0.027515","-0.58977"
"L","1617446075.3562768","7","-37","6","50","51","21","0.778076","-0.323364","-0.534424","-0.066895","-0.015267","-0.022901","0.007634","8.001978","-4.009961","2.080347","-0.571826","0.220117","-0.071777","-0.08374","-0.007178","-0.610107"
"L","1617446075.3460836","7","-33","6","50","51","21","0.778259","-0.32312","-0.534241","-0.067078","-0.007634","-0.022901","0.007634","7.993604","-4.000391","2.100684","-0.5802","0.224902","-0.058618","-0.095703","0.002393","-0.617285"
"L","1617446075.336319","7","-34","4","49","53","21","0.77832","-0.322998","-0.53418","-0.067261","-0.007634","-0.007634","0.007634","8.018725","-3.994409","2.11145","-0.555078","0.228491","-0.050244","-0.089722","0.015552","-0.594556"
"L","1617446075.326098","7","-37","5","53","53","25","0.778381","-0.322815","-0.534241","-0.067444","-0.007634","-0.007634","0.007634","8.057007","-3.978858","2.130591","-0.519189","0.239258","-0.0323","-0.084937","0.043066","-0.563452"
"L","1617446075.316363","7","-36","3","49","52","25","0.77832","-0.322693","-0.534363","-0.067566","-0.007634","0","0.007634","8.082129","-3.95852","2.131787","-0.49646","0.256006","-0.029907","-0.069385","0.063403","-0.550293"
"L","1617446075.3062809","7","-37","6","53","55","24","0.77832","-0.32251","-0.534485","-0.067688","-0.015267","0","0.007634","8.109644","-3.941772","2.135376","-0.471338","0.267969","-0.026318","-0.056226","0.081348","-0.533545"
"L","1617446075.2961442","7","-38","4","51","51","23","0.778259","-0.322327","-0.534607","-0.067749","-0.007634","0","0.007634","8.126391","-3.936987","2.128198","-0.455786","0.269165","-0.0323","-0.044263","0.082544","-0.521582"
"L","1617446075.286126","7","-39","1","52","52","21","0.778198","-0.322205","-0.53479","-0.06781","-0.007634","0","0.007634","8.137158","-3.957324","2.103076","-0.447412","0.245239","-0.056226","-0.0323","0.052637","-0.508423"
"L","1617446075.2762334","7","-36","4","50","52","23","0.778198","-0.322021","-0.534912","-0.06781","-0.007634","0","0.007634","8.150317","-3.969287","2.076758","-0.435449","0.230884","-0.082544","-0.013159","0.028711","-0.497656"
"L","1617446075.2662797","7","-39","3","52","51","21","0.778076","-0.32196","-0.535095","-0.06781","-0.007634","0","0.007634","8.151514","-3.980054","2.039673","-0.436646","0.217725","-0.11604","0.005981","0","-0.501245"
"L","1617446075.25629","7","-37","5","51","52","24","0.778015","-0.321777","-0.535278","-0.067871","-0.015267","0.007634","0.007634","8.145533","-3.969287","1.99541","-0.44502","0.224902","-0.159106","0.040674","-0.020337","-0.520386"
"L","1617446075.246169","7","-38","4","51","54","24","0.778015","-0.321594","-0.535461","-0.067871","-0.015267","0.007634","0","8.151514","-3.93938","1.978662","-0.441431","0.251221","-0.174658","0.065796","-0.008374","-0.532349"
"L","1617446075.236361","7","-36","5","50","50","21","0.777954","-0.321411","-0.535645","-0.06781","-0.015267","0.007634","0.007634","8.15271","-3.886743","1.972681","-0.441431","0.301465","-0.178247","0.092114","0.028711","-0.555078"
"L","1617446075.2261791","7","-37","4","50","52","20","0.777893","-0.321228","-0.535828","-0.067749","-0.015267","0.007634","0.007634","8.147924","-3.871192","1.967896","-0.447412","0.314624","-0.181836","0.098096","0.034692","-0.565845"
"L","1617446075.2161305","7","-36","4","52","55","22","0.777832","-0.320984","-0.536011","-0.06781","-0.007634","0.007634","0.007634","8.158691","-3.866406","1.966699","-0.439038","0.314624","-0.181836","0.101685","0.037085","-0.558667"
"L","1617446075.2061665","7","-36","4","52","55","22","0.777771","-0.320862","-0.536194","-0.067871","0","0.007634","0.007634","8.156299","-3.864014","1.983447","-0.443823","0.313428","-0.162695","0.084937","0.046655","-0.558667"
"L","1617446075.1961548","7","-35","5","51","56","25","0.77771","-0.320862","-0.536377","-0.067871","0.007634","0.007634","0","8.165869","-3.871192","2.014551","-0.436646","0.305054","-0.129199","0.057422","0.061011","-0.540723"
"L","1617446075.186115","7","-35","3","52","53","24","0.777527","-0.320984","-0.536499","-0.067932","0.007634","0.007634","0","8.168262","-3.892725","2.036084","-0.434253","0.283521","-0.102881","0.027515","0.059814","-0.523975"
"L","1617446075.176325","7","-35","3","52","57","21","0.777405","-0.321045","-0.53656","-0.068054","0.007634","-0.007634","0.007634","8.141943","-3.917847","2.050439","-0.461768","0.257202","-0.086133","-0.007178","0.04187","-0.533545"
"L","1617446075.1662383","7","-35","5","54","57","23","0.777405","-0.321106","-0.53656","-0.068237","0","-0.007634","0","8.102466","-3.905884","2.068384","-0.502441","0.269165","-0.066992","-0.033496","0.052637","-0.569434"
"L","1617446075.1562848","7","-35","4","46","55","23","0.777405","-0.321106","-0.536499","-0.068298","-0.007634","-0.015267","0","8.082129","-3.881958","2.088721","-0.521582","0.291895","-0.047852","-0.046655","0.076563","-0.592163"
"L","1617446075.1463652","7","-32","1","52","51","21","0.777527","-0.321045","-0.536438","-0.06842","-0.007634","-0.015267","0","8.072558","-3.86521","2.098291","-0.532349","0.307446","-0.04187","-0.049048","0.089722","-0.606519"
"L","1617446075.1361587","7","-37","2","48","52","21","0.777588","-0.320923","-0.536377","-0.068481","-0.015267","-0.015267","0","8.073755","-3.83291","2.097095","-0.531152","0.337354","-0.045459","-0.0323","0.111255","-0.619678"
"L","1617446075.1261773","7","-37","4","50","51","22","0.77771","-0.32074","-0.536255","-0.06842","-0.015267","-0.015267","0","8.079737","-3.816162","2.089917","-0.523975","0.352905","-0.056226","-0.013159","0.119629","-0.62207"
"L","1617446075.116245","7","-35","5","53","54","24","0.777832","-0.320679","-0.536194","-0.06842","-0.007634","-0.007634","0","8.10127","-3.826929","2.076758","-0.502441","0.342139","-0.072974","0.002393","0.10647","-0.601733"
"L","1617446075.1062963","7","-35","4","54","53","22","0.777832","-0.320679","-0.536133","-0.068359","-0.007634","-0.007634","-0.007634","8.127588","-3.85564","2.055225","-0.474927","0.314624","-0.094507","0.017944","0.078955","-0.57063"
"L","1617446075.0962574","7","-36","4","52","54","23","0.777832","-0.32074","-0.536133","-0.068359","0","0","-0.007634","8.158691","-3.895117","2.03728","-0.443823","0.276343","-0.112451","0.028711","0.046655","-0.531152"
"L","1617446075.0861704","7","-36","5","51","54","24","0.777771","-0.320862","-0.536133","-0.068298","0","-0.007634","-0.007634","8.157495","-3.923828","2.02771","-0.443823","0.248828","-0.119629","0.021533","0.020337","-0.521582"
"L","1617446075.0762014","7","-36","5","50","52","24","0.777771","-0.320984","-0.536072","-0.068298","0","-0.007634","-0.007634","8.132373","-3.941772","2.012158","-0.468945","0.233276","-0.135181","0.016748","-0.004785","-0.539526"
"L","1617446075.0663452","7","-37","4","53","47","21","0.777832","-0.321106","-0.53595","-0.068359","0","-0.007634","-0.007634","8.10127","-3.94895","2.007373","-0.498853","0.227295","-0.141162","0.005981","-0.020337","-0.564648"
"L","1617446075.0563946","7","-36","5","51","51","21","0.777893","-0.321106","-0.535828","-0.068359","-0.007634","-0.015267","-0.007634","8.076147","-3.940576","2.014551","-0.522778","0.236865","-0.136377","-0.002393","-0.015552","-0.588574"
"L","1617446075.0461898","7","-37","5","51","55","20","0.778015","-0.321045","-0.535706","-0.068298","-0.015267","-0.015267","-0.007634","8.053418","-3.936987","2.022925","-0.544312","0.240454","-0.131592","-0.014355","-0.015552","-0.608911"
"L","1617446075.0364316","7","-35","6","48","55","24","0.778198","-0.320923","-0.535522","-0.068237","-0.015267","-0.015267","-0.007634","8.042651","-3.947754","2.02771","-0.553882","0.230884","-0.132788","-0.021533","-0.026318","-0.6125"
"L","1617446075.0264795","7","-39","3","53","54","23","0.77832","-0.320862","-0.5354","-0.068115","-0.015267","-0.007634","-0.007634","8.055811","-3.960913","2.033691","-0.539526","0.218921","-0.129199","-0.023926","-0.029907","-0.594556"
"L","1617446075.0162723","7","-32","6","53","47","17","0.778381","-0.320801","-0.5354","-0.068054","-0.007634","0","-0.007634","8.090503","-3.99082","2.036084","-0.504834","0.189014","-0.128003","-0.023926","-0.044263","-0.551489"
"L","1617446075.006142","7","-39","5","51","50","21","0.77832","-0.320862","-0.535339","-0.067932","0","0","-0.015267","8.107251","-4.036279","2.021729","-0.485693","0.144751","-0.142358","-0.025122","-0.082544","-0.517993"
"L","1617446074.996148","7","-35","4","50","54","24","0.778259","-0.321045","-0.535339","-0.067871","0.007634","0","-0.015267","8.103662","-4.090112","2.008569","-0.489282","0.094507","-0.153125","-0.040674","-0.129199","-0.502441"
"L","1617446074.9947572","7","-37","4","54","55","22","0.778198","-0.321289","-0.535339","-0.067871","0.007634","0","-0.015267","8.100073","-4.134375","1.99541","-0.491675","0.053833","-0.163892","-0.05144","-0.168677","-0.489282"
"L","1617446074.9935591","7","-37","2","38","54","23","0.778137","-0.321472","-0.535339","-0.067932","0.007634","0","-0.007634","8.11084","-4.134375","1.991821","-0.480908","0.055029","-0.165088","-0.045459","-0.165088","-0.480908"
"L","1617446074.9663763","7","-35","3","54","51","21","0.778076","-0.321533","-0.535339","-0.067993","0.007634","-0.007634","-0.007634","8.090503","-4.111646","1.994214","-0.501245","0.077759","-0.161499","-0.046655","-0.150732","-0.507227"
"L","1617446074.956391","7","-37","5","52","52","21","0.778137","-0.321533","-0.535278","-0.068115","0","-0.015267","0","8.060596","-4.059009","1.991821","-0.532349","0.129199","-0.166284","-0.0323","-0.120825","-0.557471"
"L","1617446074.9463148","7","-35","5","50","55","19","0.778198","-0.32135","-0.535217","-0.06842","-0.007634","-0.015267","0.007634","8.095288","-3.995605","2.044458","-0.498853","0.187817","-0.11604","-0.031104","-0.037085","-0.543115"
"L","1617446074.9363728","7","-35","4","53","52","23","0.77832","-0.321106","-0.535156","-0.068604","-0.015267","-0.015267","0.007634","8.054614","-3.903491","2.061206","-0.540723","0.275146","-0.104077","-0.019141","0.027515","-0.613696"
"L","1617446074.9264233","7","-35","5","53","51","23","0.778442","-0.320801","-0.535095","-0.068787","-0.015267","-0.007634","0.007634","8.067774","-3.81377","2.115039","-0.52876","0.358887","-0.055029","-0.015552","0.124414","-0.628052"
"L","1617446074.916248","7","-38","5","50","52","21","0.778564","-0.320618","-0.535095","-0.068848","-0.007634","-0.007634","0.007634","8.074951","-3.752759","2.165283","-0.522778","0.417505","-0.007178","-0.023926","0.19978","-0.637622"
"L","1617446074.9063222","7","-37","2","52","53","24","0.778564","-0.320496","-0.535095","-0.06897","0","-0.007634","0.007634","8.072558","-3.728833","2.201172","-0.525171","0.437842","0.026318","-0.04187","0.234473","-0.640015"
"L","1617446074.8964546","7","-35","4","51","99","25","0.778503","-0.320557","-0.535156","-0.069092","0.007634","0","0.007634","8.080933","-3.746777","2.211938","-0.517993","0.418701","0.038281","-0.057422","0.228491","-0.623267"
"L","1617446074.886425","7","-31","4","53","50","24","0.778381","-0.320679","-0.535278","-0.069214","0.007634","0.007634","0","8.113233","-3.765918","2.205957","-0.488086","0.399561","0.037085","-0.052637","0.218921","-0.58977"
"L","1617446074.8761938","7","-38","5","50","52","24","0.778137","-0.320862","-0.535461","-0.069275","0.007634","0.007634","0","8.150317","-3.780273","2.204761","-0.451001","0.385205","0.04187","-0.046655","0.218921","-0.550293"
"L","1617446074.8665938","7","-35","3","51","54","24","0.777954","-0.321045","-0.535706","-0.069275","0","0.007634","0","8.158691","-3.795825","2.173657","-0.44502","0.372046","0.017944","-0.031104","0.196191","-0.544312"
"L","1617446074.8562355","7","-37","-13","53","54","24","0.777771","-0.321167","-0.535828","-0.069214","-0.007634","0.007634","-0.007634","8.153906","-3.808984","2.132983","-0.449805","0.360083","-0.016748","-0.010767","0.166284","-0.551489"
"L","1617446074.8465672","7","-31","4","52","24","7","0.77771","-0.321228","-0.53595","-0.069031","-0.015267","0","-0.007634","8.15271","-3.820947","2.083935","-0.451001","0.349316","-0.063403","0.019141","0.130396","-0.557471"
"L","1617446074.8364425","7","-36","4","53","55","25","0.777649","-0.321167","-0.536072","-0.068848","-0.015267","0.007634","-0.007634","8.158691","-3.847266","2.020532","-0.44502","0.324194","-0.124414","0.058618","0.076563","-0.555078"
"L","1617446074.8263197","7","-35","7","49","55","23","0.777588","-0.321167","-0.536194","-0.068604","-0.015267","0.007634","-0.007634","8.16228","-3.892725","1.959522","-0.441431","0.279932","-0.183032","0.087329","0.00957","-0.546704"
"L","1617446074.8163514","7","-37","7","52","52","23","0.777527","-0.321167","-0.536316","-0.068359","-0.007634","0.015267","-0.015267","8.186206","-3.962109","1.905689","-0.416309","0.212939","-0.234473","0.107666","-0.065796","-0.507227"
"L","1617446074.8065212","7","-36","4","50","52","21","0.777405","-0.321228","-0.536499","-0.068054","0","0.022901","-0.015267","8.222095","-4.011157","1.893726","-0.38042","0.16748","-0.24165","0.107666","-0.096899","-0.456982"
"L","1617446074.7964396","7","-37","4","53","52","22","0.777161","-0.32135","-0.536804","-0.067749","0","0.030534","-0.015267","8.242432","-4.054224","1.896118","-0.360083","0.126807","-0.230884","0.089722","-0.118433","-0.419897"
"L","1617446074.7865517","7","-38","4","52","56","21","0.776917","-0.321533","-0.537048","-0.067505","0","0.030534","-0.015267","8.256787","-4.078149","1.926025","-0.345728","0.10647","-0.193799","0.057422","-0.110059","-0.38999"
"L","1617446074.776539","7","-39","3","54","52","23","0.776672","-0.321716","-0.537354","-0.067261","0","0.022901","-0.015267","8.234057","-4.072168","1.976269","-0.369653","0.11604","-0.135181","0.005981","-0.075366","-0.403149"
"L","1617446074.766453","7","-37","1","50","52","20","0.77655","-0.321777","-0.537476","-0.067078","-0.007634","0","-0.007634","8.170654","-4.04585","2.016943","-0.43186","0.144751","-0.090918","-0.040674","-0.04187","-0.460571"
"L","1617446074.756545","7","-38","4","52","52","16","0.776611","-0.321716","-0.537476","-0.066956","-0.015267","-0.015267","-0.007634","8.077344","-4.029101","2.042065","-0.525171","0.161499","-0.066992","-0.090918","-0.038281","-0.544312"
"L","1617446074.7464964","7","-35","5","53","52","21","0.776733","-0.321594","-0.537415","-0.066956","-0.015267","-0.022901","0","8.001978","-4.012353","2.052832","-0.600537","0.178247","-0.058618","-0.120825","-0.038281","-0.614893"
"L","1617446074.736566","7","-37","3","50","50","21","0.776978","-0.32135","-0.537231","-0.066895","-0.022901","-0.022901","0","7.951734","-3.992017","2.056421","-0.650781","0.196191","-0.062207","-0.131592","-0.038281","-0.667529"
"L","1617446074.7271242","7","-38","8","50","56","23","0.777161","-0.321045","-0.537109","-0.066895","-0.022901","-0.015267","-0.007634","7.929004","-3.975269","2.050439","-0.672314","0.210547","-0.07417","-0.124414","-0.038281","-0.695044"
"L","1617446074.7166066","7","-35","6","53","52","23","0.777283","-0.320862","-0.537048","-0.066833","-0.015267","0","-0.007634","7.958911","-3.975269","2.040869","-0.642407","0.209351","-0.087329","-0.102881","-0.039478","-0.671118"
"L","1617446074.7064998","7","-35","4","49","52","24","0.777161","-0.320862","-0.537231","-0.066711","0","0.022901","-0.007634","8.041455","-4.008765","2.036084","-0.56106","0.175854","-0.088525","-0.082544","-0.046655","-0.586182"
"L","1617446074.6965623","7","-36","4","52","52","25","0.776855","-0.321045","-0.537598","-0.066589","0.015267","0.030534","-0.007634","8.128784","-4.056616","2.03728","-0.474927","0.129199","-0.077759","-0.076563","-0.057422","-0.488086"
"L","1617446074.686618","7","-40","5","50","54","25","0.776428","-0.32135","-0.538086","-0.066528","0.015267","0.038168","-0.007634","8.174243","-4.092505","2.026514","-0.433057","0.095703","-0.07417","-0.076563","-0.071777","-0.436646"
"L","1617446074.6765656","7","-35","4","51","51","23","0.776001","-0.321594","-0.538513","-0.066528","0.007634","0.030534","0","8.195776","-4.069776","2.038476","-0.413916","0.118433","-0.050244","-0.076563","-0.035889","-0.424683"
"L","1617446074.666419","7","-35","4","48","53","23","0.775696","-0.321655","-0.53894","-0.066528","0","0.015267","0.007634","8.177832","-4.02312","2.031299","-0.434253","0.163892","-0.047852","-0.065796","-0.003589","-0.461768"
"L","1617446074.656541","7","-36","4","52","52","22","0.775513","-0.321533","-0.539246","-0.066589","-0.015267","0.007634","0.007634","8.138354","-3.950146","2.013355","-0.477319","0.233276","-0.061011","-0.04187","0.031104","-0.531152"
"L","1617446074.6465678","7","-39","3","52","51","23","0.775513","-0.321228","-0.539429","-0.06665","-0.022901","0","0.015267","8.092896","-3.866406","1.989429","-0.525171","0.311035","-0.084937","-0.007178","0.066992","-0.611304"
"L","1617446074.6365125","7","-40","3","50","52","23","0.775513","-0.320862","-0.539612","-0.066772","-0.022901","0","0.015267","8.070166","-3.801807","1.965503","-0.551489","0.368457","-0.108862","0.026318","0.093311","-0.66394"
"L","1617446074.6263647","7","-36","4","52","51","21","0.775513","-0.320496","-0.539795","-0.066833","-0.015267","0.007634","0.015267","8.074951","-3.763525","1.934399","-0.549097","0.400757","-0.139966","0.066992","0.101685","-0.683081"
"L","1617446074.6163604","7","-37","3","52","51","24","0.775452","-0.320312","-0.539978","-0.066833","-0.007634","0.015267","0.007634","8.092896","-3.75874","1.905689","-0.533545","0.401953","-0.16748","0.095703","0.090918","-0.674707"
"L","1617446074.6064715","7","-36","11","50","54","23","0.775269","-0.320374","-0.540283","-0.066833","0.007634","0.030534","0","8.140747","-3.782666","1.881763","-0.488086","0.376831","-0.185425","0.117236","0.071777","-0.628052"
"L","1617446074.5965166","7","-35","7","49","51","23","0.774902","-0.320618","-0.540649","-0.066711","0.015267","0.038168","-0.007634","8.186206","-3.819751","1.874585","-0.443823","0.342139","-0.18064","0.11604","0.057422","-0.573022"
"L","1617446074.5872648","7","-38","4","49","53","21","0.774475","-0.320984","-0.541077","-0.06665","0.015267","0.038168","-0.007634","8.211329","-3.853247","1.8698","-0.421094","0.312231","-0.172266","0.10647","0.044263","-0.539526"
"L","1617446074.5771616","7","-37","4","51","49","21","0.774048","-0.32135","-0.541443","-0.066467","0.015267","0.022901","-0.007634","8.198169","-3.869995","1.863818","-0.434253","0.299072","-0.165088","0.089722","0.033496","-0.543115"
"L","1617446074.5672302","7","-36","4","51","24","22","0.773743","-0.321655","-0.541687","-0.066406","0.007634","0.007634","-0.007634","8.147924","-3.871192","1.838696","-0.484497","0.301465","-0.181836","0.08374","0.013159","-0.592163"
"L","1617446074.557143","7","-36","4","51","55","26","0.773621","-0.321838","-0.541748","-0.066345","0","-0.007634","-0.007634","8.06897","-3.859229","1.793237","-0.563452","0.31582","-0.223706","0.092114","-0.017944","-0.675903"
"L","1617446074.547234","7","-35","5","52","52","23","0.773682","-0.321838","-0.541748","-0.066345","-0.015267","-0.007634","0","8.013941","-3.83291","1.747778","-0.619678","0.342139","-0.269165","0.117236","-0.037085","-0.746484"
"L","1617446074.5364466","7","-33","4","52","56","25","0.773804","-0.321655","-0.541687","-0.066345","-0.022901","-0.007634","0","7.997192","-3.785058","1.725049","-0.636426","0.388794","-0.295483","0.153125","-0.019141","-0.787158"
"L","1617446074.5272815","7","-37","4","52","54","19","0.773926","-0.321411","-0.541687","-0.066223","-0.022901","0","0","8.007959","-3.755151","1.708301","-0.625659","0.416309","-0.31582","0.185425","-0.005981","-0.79314"
"L","1617446074.5172548","7","-36","3","50","55","23","0.773926","-0.321228","-0.541748","-0.066101","-0.007634","0.007634","0","8.043848","-3.768311","1.681982","-0.58977","0.401953","-0.342139","0.214136","-0.023926","-0.76084"
"L","1617446074.5065262","7","-37","5","50","51","19","0.773865","-0.321289","-0.541809","-0.065979","0","0.015267","-0.007634","8.077344","-3.82334","1.654468","-0.555078","0.34812","-0.368457","0.224902","-0.071777","-0.712988"
"L","1617446074.497279","7","-35","5","52","54","21","0.773743","-0.321472","-0.541931","-0.065857","0.007634","0.015267","-0.007634","8.104858","-3.890332","1.634131","-0.527563","0.284717","-0.384009","0.220117","-0.124414","-0.665137"
"L","1617446074.4873018","7","-36","6","49","54","23","0.77356","-0.321655","-0.542053","-0.065796","0.007634","0.015267","-0.007634","8.139551","-3.944165","1.636523","-0.492871","0.233276","-0.375635","0.204565","-0.151929","-0.610107"
"L","1617446074.4771671","7","-35","7","52","55","21","0.773438","-0.321838","-0.542114","-0.065796","0","0.007634","-0.007634","8.163477","-3.957324","1.676001","-0.468945","0.221313","-0.332568","0.174658","-0.131592","-0.575415"
"L","1617446074.467158","7","-32","4","53","56","23","0.773438","-0.321899","-0.542053","-0.065674","-0.007634","-0.015267","-0.007634","8.135962","-3.950146","1.726245","-0.495264","0.230884","-0.282324","0.128003","-0.101685","-0.592163"
"L","1617446074.4572368","7","-36","5","51","50","36","0.773682","-0.321777","-0.541809","-0.065674","-0.022901","-0.030534","0","8.066577","-3.933398","1.762134","-0.563452","0.247632","-0.253613","0.084937","-0.088525","-0.653174"
"L","1617446074.447242","7","-35","5","53","57","21","0.774109","-0.321411","-0.541443","-0.065613","-0.038168","-0.038168","0","8.023511","-3.891528","1.802808","-0.604126","0.288306","-0.226099","0.0646","-0.050244","-0.701025"
"L","1617446074.4372766","7","-35","3","51","54","22","0.774658","-0.320862","-0.541016","-0.065552","-0.038168","-0.038168","0","8.011548","-3.852051","1.845874","-0.614893","0.324194","-0.19978","0.053833","-0.00957","-0.720166"
"L","1617446074.4273574","7","-36","4","50","55","23","0.775146","-0.320435","-0.540588","-0.06543","-0.030534","-0.030534","-0.007634","8.043848","-3.848462","1.882959","-0.579004","0.326587","-0.177051","0.05144","0.014355","-0.685474"
"L","1617446074.4172149","7","-37","4","52","50","20","0.775513","-0.32019","-0.540222","-0.065247","-0.015267","-0.022901","-0.007634","8.08811","-3.901099","1.906885","-0.532349","0.27395","-0.163892","0.034692","-0.007178","-0.618481"
"L","1617446074.407199","7","-37","4","51","56","23","0.775696","-0.320129","-0.539978","-0.065186","-0.007634","-0.015267","-0.007634","8.150317","-3.983643","1.917651","-0.467749","0.192603","-0.15791","0.020337","-0.05144","-0.526367"
"L","1617446074.3972857","7","-36","4","51","54","22","0.775818","-0.32019","-0.539795","-0.065186","0.007634","-0.007634","-0.015267","8.19458","-4.049438","1.954736","-0.42229","0.129199","-0.124414","-0.015552","-0.071777","-0.452197"
"L","1617446074.3872132","7","-37","4","54","52","21","0.775879","-0.320374","-0.539612","-0.065125","0.007634","-0.007634","-0.015267","8.22688","-4.104468","2.003784","-0.387598","0.077759","-0.077759","-0.061011","-0.077759","-0.38999"
"L","1617446074.377962","7","-38","6","52","54","24","0.775879","-0.320618","-0.53949","-0.065063","0.007634","-0.007634","-0.015267","8.244824","-4.149927","2.06001","-0.367261","0.037085","-0.020337","-0.117236","-0.071777","-0.342139"
"L","1617446074.3672252","7","-36","6","53","55","23","0.77594","-0.32074","-0.539307","-0.065002","-0.007634","-0.022901","-0.015267","8.224487","-4.158301","2.125806","-0.385205","0.0323","0.04187","-0.175854","-0.044263","-0.343335"
"L","1617446074.3572097","7","-36","7","49","52","23","0.776123","-0.320679","-0.539062","-0.064941","-0.022901","-0.030534","-0.015267","8.17185","-4.136767","2.179639","-0.435449","0.055029","0.089722","-0.224902","-0.011963","-0.386401"
"L","1617446074.347201","7","-38","4","48","52","20","0.776489","-0.320435","-0.538757","-0.06488","-0.030534","-0.038168","-0.007634","8.127588","-4.091309","2.234668","-0.478516","0.099292","0.135181","-0.259595","0.037085","-0.433057"
"L","1617446074.3373652","7","-36","-7","48","55","20","0.776855","-0.320129","-0.538391","-0.064758","-0.030534","-0.030534","-0.007634","8.098877","-4.06499","2.274146","-0.504834","0.12561","0.162695","-0.281128","0.066992","-0.461768"
"L","1617446074.3271427","7","-33","3","49","56","19","0.7771","-0.319824","-0.538208","-0.064636","-0.022901","-0.022901","-0.007634","8.100073","-4.067383","2.28252","-0.502441","0.122021","0.163892","-0.282324","0.065796","-0.456982"
"L","1617446074.317255","7","-36","5","52","55","25","0.777222","-0.319702","-0.538086","-0.064514","-0.007634","-0.007634","-0.007634","8.112036","-4.092505","2.271753","-0.488086","0.096899","0.149536","-0.276343","0.04187","-0.436646"
"L","1617446074.3072722","7","-39","3","54","48","22","0.777222","-0.319702","-0.538147","-0.064514","0","0.007634","0","8.128784","-4.124804","2.247827","-0.472534","0.0646","0.126807","-0.266772","0.007178","-0.413916"
"L","1617446074.2972448","7","-37","5","52","53","23","0.776978","-0.319763","-0.538391","-0.064575","0.007634","0.015267","0","8.163477","-4.14873","2.219116","-0.440234","0.038281","0.104077","-0.246436","-0.017944","-0.379224"
"L","1617446074.2873542","7","-37","3","50","55","23","0.776611","-0.319885","-0.538818","-0.064697","0.015267","0.030534","0","8.208936","-4.152319","2.191602","-0.398364","0.033496","0.087329","-0.217725","-0.020337","-0.344531"
"L","1617446074.277335","7","-38","-6","50","56","25","0.776184","-0.320007","-0.539429","-0.064819","0.007634","0.038168","0.007634","8.240039","-4.10686","2.172461","-0.372046","0.075366","0.081348","-0.183032","0.014355","-0.340942"
"L","1617446074.2672944","7","-35","1","51","55","23","0.775696","-0.320068","-0.540039","-0.064819","0","0.030534","0.007634","8.248413","-4.020728","2.144946","-0.368457","0.159106","0.068188","-0.132788","0.072974","-0.376831"
"L","1617446074.257281","7","-37","3","51","50","24","0.77533","-0.319946","-0.540649","-0.06488","-0.007634","0.022901","0.015267","8.210132","-3.92981","2.105469","-0.411523","0.244043","0.040674","-0.089722","0.113647","-0.456982"
"L","1617446074.247264","7","-59","1","50","24","-8","0.775085","-0.319763","-0.541077","-0.064941","-0.015267","0.015267","0.015267","8.141943","-3.840088","2.06001","-0.484497","0.327783","0.001196","-0.050244","0.13877","-0.564648"
"L","1617446074.2373435","7","-37","5","52","48","21","0.774963","-0.319519","-0.541443","-0.065002","-0.015267","0.007634","0.015267","8.07854","-3.776685","1.996606","-0.551489","0.386401","-0.056226","-0.005981","0.136377","-0.661548"
"L","1617446074.2272928","7","-36","3","52","52","20","0.774841","-0.319275","-0.541748","-0.065063","-0.015267","0.015267","0.015267","8.033081","-3.722852","1.947559","-0.600537","0.434253","-0.101685","0.031104","0.136377","-0.734522"
"L","1617446074.2172525","7","-36","4","49","51","23","0.774658","-0.319092","-0.542114","-0.065125","-0.007634","0.022901","0.007634","8.021118","-3.68457","1.917651","-0.616089","0.467749","-0.126807","0.061011","0.144751","-0.766821"
"L","1617446074.2071838","7","-36","3","51","54","23","0.774414","-0.319031","-0.54248","-0.065063","-0.007634","0.030534","0.007634","8.034277","-3.66543","1.904492","-0.606519","0.484497","-0.131592","0.076563","0.15791","-0.766821"
"L","1617446074.1973076","7","-36","5","54","55","21","0.774109","-0.319092","-0.542908","-0.06488","0","0.030534","0","8.040258","-3.678589","1.894922","-0.601733","0.471338","-0.131592","0.072974","0.14834","-0.757251"
"L","1617446074.1873794","7","-37","4","51","50","23","0.773743","-0.319336","-0.543274","-0.064758","0.007634","0.022901","-0.007634","8.042651","-3.720459","1.876978","-0.600537","0.43186","-0.13877","0.062207","0.112451","-0.740503"
"L","1617446074.1773064","7","-33","5","50","52","22","0.773438","-0.319641","-0.543579","-0.064636","0.015267","0.022901","-0.015267","8.057007","-3.775488","1.848267","-0.587378","0.38042","-0.15791","0.061011","0.0646","-0.711792"
"L","1617446074.167241","7","-35","1","52","52","23","0.773132","-0.319946","-0.543884","-0.064453","0.007634","0.022901","-0.015267","8.095288","-3.82334","1.830322","-0.550293","0.337354","-0.165088","0.062207","0.034692","-0.661548"
"L","1617446074.1573217","7","-36","4","52","52","23","0.772766","-0.320312","-0.544128","-0.06427","0.007634","0.022901","-0.015267","8.141943","-3.868799","1.801611","-0.502441","0.29668","-0.183032","0.077759","0.003589","-0.605322"
"L","1617446074.1475449","7","-36","2","56","52","21","0.772522","-0.320618","-0.544373","-0.064026","0","0.015267","-0.015267","8.16228","-3.89751","1.76333","-0.482104","0.27395","-0.212939","0.100488","-0.025122","-0.583789"
"L","1617446074.137363","7","-36","3","50","57","25","0.7724","-0.320801","-0.544495","-0.063843","-0.007634","0.007634","-0.015267","8.151514","-3.901099","1.725049","-0.492871","0.27395","-0.246436","0.123218","-0.046655","-0.600537"
"L","1617446074.1273663","7","-38","4","49","54","23","0.772339","-0.320862","-0.544556","-0.063599","-0.015267","0.007634","-0.015267","8.138354","-3.87478","1.707104","-0.504834","0.302661","-0.263184","0.144751","-0.037085","-0.626855"
"L","1617446074.1176727","7","-35","4","52","54","20","0.772339","-0.320801","-0.544617","-0.063354","-0.007634","0.007634","-0.015267","8.167066","-3.869995","1.732227","-0.474927","0.309839","-0.236865","0.13877","-0.00957","-0.598145"
"L","1617446074.1073916","7","-36","3","52","54","20","0.772339","-0.320862","-0.544617","-0.063049","-0.007634","0.007634","-0.015267","8.132373","-3.867603","1.732227","-0.508423","0.31582","-0.235669","0.126807","-0.011963","-0.630444"
"L","1617446074.0973184","7","-40","1","50","51","25","0.772278","-0.320984","-0.544678","-0.062805","0","0.015267","-0.015267","8.14314","-3.896313","1.740601","-0.49646","0.290698","-0.224902","0.111255","-0.022729","-0.606519"
"L","1617446074.087362","7","-35","1","50","52","21","0.772095","-0.321167","-0.5448","-0.062561","0.007634","0.015267","-0.015267","8.16228","-3.92981","1.759741","-0.474927","0.261987","-0.200977","0.088525","-0.027515","-0.57063"
"L","1617446074.0775473","7","-32","5","49","53","20","0.771912","-0.321472","-0.544922","-0.062378","0.007634","0.015267","-0.015267","8.157495","-3.947754","1.789648","-0.479712","0.248828","-0.163892","0.050244","-0.017944","-0.56106"
"L","1617446074.0673585","7","-37","5","51","52","20","0.771729","-0.321655","-0.545105","-0.062317","0","0.007634","-0.007634","8.144336","-3.952539","1.809985","-0.492871","0.246436","-0.137573","0.023926","-0.008374","-0.567041"
"L","1617446074.0575445","7","-37","5","49","50","22","0.771606","-0.321716","-0.545227","-0.062256","-0.007634","0","0","8.12998","-3.934595","1.833911","-0.507227","0.265576","-0.110059","0.004785","0.016748","-0.582593"
"L","1617446074.0472713","7","-36","1","50","48","23","0.771606","-0.321533","-0.545288","-0.062195","-0.015267","0","0","8.108447","-3.902295","1.855444","-0.529956","0.295483","-0.089722","-0.005981","0.045459","-0.611304"
"L","1617446074.037476","7","-36","4","52","52","23","0.771667","-0.32135","-0.545349","-0.062073","-0.022901","-0.007634","0","8.092896","-3.864014","1.874585","-0.545508","0.332568","-0.071777","-0.010767","0.081348","-0.636426"
"L","1617446074.0275414","7","-36","3","52","52","22","0.77179","-0.321167","-0.545349","-0.061951","-0.015267","-0.007634","-0.007634","8.074951","-3.856836","1.880566","-0.563452","0.33855","-0.068188","-0.017944","0.08374","-0.65437"
"L","1617446074.0175486","7","-35","5","52","54","23","0.771851","-0.321045","-0.545349","-0.061768","-0.007634","0","-0.007634","8.083325","-3.893921","1.878174","-0.555078","0.302661","-0.071777","-0.027515","0.055029","-0.632837"
"L","1617446074.0075536","7","-36","5","52","51","24","0.77179","-0.321167","-0.545349","-0.061646","0","0","-0.007634","8.109644","-3.956128","1.859033","-0.527563","0.242847","-0.089722","-0.028711","0.004785","-0.586182"
"L","1617446073.9974053","7","-36","1","52","52","23","0.771667","-0.32135","-0.54541","-0.061584","0.007634","0.007634","-0.015267","8.147924","-4.018335","1.845874","-0.488086","0.183032","-0.099292","-0.0323","-0.035889","-0.527563"
"L","1617446073.9873598","7","-37","1","50","52","20","0.771545","-0.321533","-0.545532","-0.061523","0.007634","0.007634","-0.015267","8.173047","-4.047046","1.831519","-0.46416","0.156714","-0.108862","-0.026318","-0.056226","-0.497656"
"L","1617446073.977743","7","-36","5","52","51","23","0.771423","-0.321716","-0.545593","-0.061401","0","0","-0.015267","8.169458","-4.036279","1.823145","-0.466553","0.171069","-0.113647","-0.016748","-0.049048","-0.50603"
"L","1617446073.6181834","7","-39","3","49","53","21","0.771973","-0.322998","-0.544006","-0.061462","0","0","-0.007634","8.035474","-3.91665","1.690356","-0.583789","0.314624","-0.263184","0.11604","-0.05144","-0.701025"
"L","1617446073.6082225","7","-37","2","50","51","22","0.771973","-0.32312","-0.543945","-0.061401","0","0","-0.007634","8.011548","-3.922632","1.691553","-0.606519","0.311035","-0.261987","0.105273","-0.059814","-0.71897"
"L","1617446073.5981946","7","-38","4","53","52","21","0.772034","-0.32312","-0.543884","-0.061401","-0.015267","-0.007634","-0.007634","7.982837","-3.91665","1.702319","-0.635229","0.317017","-0.253613","0.089722","-0.057422","-0.745288"
"L","1617446073.5882928","7","-37","5","50","70","38","0.772156","-0.322937","-0.543823","-0.06134","-0.022901","-0.015267","0","7.952929","-3.883154","1.720264","-0.665137","0.349316","-0.239258","0.080151","-0.031104","-0.783569"
"L","1617446073.5782945","7","-37","4","52","51","20","0.7724","-0.32251","-0.543701","-0.061218","-0.038168","-0.015267","0","7.940967","-3.828125","1.751367","-0.6771","0.401953","-0.215332","0.078955","0.019141","-0.811084"
"L","1617446073.568326","7","-37","5","52","52","20","0.772705","-0.322083","-0.543579","-0.061035","-0.038168","-0.015267","0.007634","7.9302","-3.792236","1.747778","-0.68667","0.434253","-0.227295","0.098096","0.035889","-0.836206"
"L","1617446073.5582328","7","-36","4","50","50","20","0.77301","-0.321533","-0.543457","-0.060852","-0.038168","-0.015267","0.007634","7.948144","-3.798218","1.726245","-0.668726","0.424683","-0.258398","0.12561","0.016748","-0.823047"
"L","1617446073.548278","7","-37","5","46","53","24","0.773254","-0.321106","-0.543396","-0.06073","-0.030534","-0.015267","0.007634","7.979248","-3.836499","1.702319","-0.637622","0.382812","-0.288306","0.143555","-0.022729","-0.783569"
"L","1617446073.5382695","7","-37","5","51","48","24","0.773499","-0.320679","-0.543335","-0.060608","-0.030534","-0.007634","0","8.028296","-3.883154","1.68916","-0.58977","0.332568","-0.308643","0.156714","-0.061011","-0.723755"
"L","1617446073.5281775","7","-35","1","52","55","23","0.773682","-0.320374","-0.543335","-0.060425","-0.030534","0","0","8.084521","-3.93938","1.67002","-0.533545","0.275146","-0.332568","0.173462","-0.105273","-0.65437"
"L","1617446073.518413","7","-38","5","49","51","21","0.773804","-0.320007","-0.543335","-0.060242","-0.030534","0","0","8.157495","-4.006372","1.668823","-0.460571","0.204565","-0.337354","0.174658","-0.144751","-0.56106"
"L","1617446073.5084248","7","-37","3","48","54","17","0.773926","-0.319702","-0.543335","-0.059998","-0.030534","0","-0.007634","8.234057","-4.060205","1.699927","-0.382812","0.149536","-0.309839","0.160303","-0.151929","-0.46416"
"L","1617446073.4982896","7","-36","7","42","51","21","0.774109","-0.319458","-0.543274","-0.059753","-0.022901","-0.007634","-0.007634","8.265162","-4.120019","1.735815","-0.351709","0.089722","-0.278735","0.120825","-0.174658","-0.404346"
"L","1617446073.488455","7","-37","3","50","52","21","0.774353","-0.319153","-0.543152","-0.059631","-0.022901","-0.022901","0","8.25918","-4.197778","1.754956","-0.356494","0.010767","-0.266772","0.07417","-0.230884","-0.372046"
"L","1617446073.478253","7","-39","1","51","53","20","0.774658","-0.318787","-0.542847","-0.059692","-0.022901","-0.030534","0.007634","8.257983","-4.227685","1.793237","-0.356494","-0.021533","-0.238062","0.037085","-0.239258","-0.352905"
"L","1617446073.468418","7","-37","1","52","54","19","0.775085","-0.318298","-0.54248","-0.059814","-0.030534","-0.038168","0.007634","8.250806","-4.21333","1.870996","-0.362476","-0.013159","-0.173462","-0.011963","-0.198584","-0.34812"
"L","1617446073.458471","7","-37","4","53","55","19","0.775635","-0.317688","-0.542114","-0.059998","-0.030534","-0.038168","0.015267","8.248413","-4.170264","1.954736","-0.366064","0.021533","-0.10647","-0.052637","-0.133984","-0.352905"
"L","1617446073.4484186","7","-35","4","50","55","20","0.776123","-0.317017","-0.541748","-0.060242","-0.030534","-0.038168","0.015267","8.241236","-4.137964","2.052832","-0.373242","0.044263","-0.023926","-0.112451","-0.070581","-0.351709"
"L","1617446073.4382467","7","-36","5","53","52","20","0.776611","-0.316406","-0.541382","-0.060486","-0.022901","-0.038168","0.015267","8.23645","-4.120019","2.144946","-0.379224","0.053833","0.05144","-0.171069","-0.022729","-0.344531"
"L","1617446073.428557","7","-35","3","52","52","19","0.777039","-0.315918","-0.541077","-0.06073","-0.022901","-0.030534","0.015267","8.242432","-4.105664","2.251416","-0.373242","0.061011","0.144751","-0.240454","0.035889","-0.322998"
"L","1617446073.418311","7","-37","5","46","52","23","0.777344","-0.315491","-0.540833","-0.060974","-0.015267","-0.038168","0.015267","8.229273","-4.091309","2.350708","-0.387598","0.068188","0.233276","-0.314624","0.087329","-0.318213"
"L","1617446073.4083254","7","-37","6","53","48","22","0.777588","-0.315125","-0.540649","-0.06134","-0.007634","-0.038168","0.022901","8.202954","-4.09729","2.40813","-0.415112","0.055029","0.282324","-0.37085","0.098096","-0.326587"
"L","1617446073.3982437","7","-35","3","51","55","21","0.777832","-0.314819","-0.540466","-0.061829","-0.007634","-0.038168","0.022901","8.181421","-4.066186","2.455981","-0.439038","0.077759","0.322998","-0.403149","0.133984","-0.34812"
"L","1617446073.388452","7","-39","3","52","52","24","0.778015","-0.314392","-0.540344","-0.062378","-0.015267","-0.038168","0.030534","8.156299","-3.997998","2.488281","-0.467749","0.135181","0.346924","-0.409131","0.186621","-0.392383"
"L","1617446073.3781557","7","-37","5","51","51","23","0.778198","-0.314026","-0.540222","-0.062988","-0.007634","-0.030534","0.030534","8.12998","-3.925025","2.518188","-0.49646","0.197388","0.37085","-0.41272","0.242847","-0.437842"
"L","1617446073.3685875","7","-35","3","54","54","21","0.778259","-0.31366","-0.540222","-0.063599","0","-0.022901","0.030534","8.13357","-3.878369","2.515796","-0.497656","0.23208","0.363672","-0.392383","0.266772","-0.455786"
"L","1617446073.358242","7","-35","4","55","54","22","0.778198","-0.313416","-0.540405","-0.064209","0.007634","-0.007634","0.030534","8.17185","-3.835303","2.506226","-0.46416","0.26438","0.355298","-0.35769","0.29668","-0.441431"
"L","1617446073.3483407","7","-33","5","51","53","21","0.778015","-0.313293","-0.54071","-0.064758","0.007634","0.007634","0.030534","8.218506","-3.776685","2.487085","-0.423486","0.313428","0.340942","-0.307446","0.33855","-0.429468"
"L","1617446073.3383882","7","-37","5","51","52","23","0.777649","-0.313354","-0.541199","-0.065247","0.015267","0.015267","0.022901","8.256787","-3.732422","2.444019","-0.392383","0.350513","0.307446","-0.250024","0.356494","-0.424683"
"L","1617446073.328406","7","-35","4","52","52","24","0.777161","-0.313477","-0.541687","-0.065552","0.022901","0.022901","0.015267","8.280713","-3.7073","2.39856","-0.372046","0.37085","0.275146","-0.206958","0.358887","-0.42229"
"L","1617446073.31824","7","-39","4","49","56","25","0.776672","-0.313782","-0.542236","-0.065857","0.022901","0.022901","0.015267","8.27832","-3.689355","2.338745","-0.38042","0.386401","0.230884","-0.166284","0.344531","-0.446216"
"L","1617446073.3084936","7","-38","5","52","52","21","0.776184","-0.314148","-0.542725","-0.066101","0.022901","0.022901","0.007634","8.247217","-3.673804","2.28252","-0.416309","0.401953","0.189014","-0.139966","0.325391","-0.494067"
"L","1617446073.2985077","7","-35","1","51","52","23","0.775696","-0.314514","-0.543091","-0.066284","0.022901","0.015267","0","8.189795","-3.652271","2.226294","-0.474927","0.423486","0.145947","-0.118433","0.303857","-0.564648"
"L","1617446073.2883077","7","-37","4","54","52","23","0.77533","-0.314941","-0.543396","-0.066406","0.022901","0.015267","-0.007634","8.128784","-3.648682","2.160498","-0.53833","0.429468","0.090918","-0.096899","0.261987","-0.635229"
"L","1617446073.2783942","7","-37","1","54","49","19","0.774902","-0.315491","-0.543701","-0.066467","0.022901","0.022901","-0.015267","8.080933","-3.659448","2.082739","-0.587378","0.423486","0.026318","-0.066992","0.208154","-0.690259"
"L","1617446073.2683954","7","-37","5","53","55","24","0.774475","-0.315979","-0.544006","-0.066406","0.022901","0.030534","-0.015267","8.067774","-3.664233","2.021729","-0.600537","0.423486","-0.020337","-0.033496","0.178247","-0.711792"
"L","1617446073.2585783","7","-37","1","49","52","23","0.773987","-0.316589","-0.544373","-0.066223","0.022901","0.030534","-0.022901","8.062988","-3.661841","1.959522","-0.605322","0.434253","-0.066992","0.005981","0.159106","-0.729736"
"L","1617446073.248489","7","-36","1","50","54","21","0.77356","-0.317139","-0.544739","-0.065979","0.015267","0.030534","-0.022901","8.047437","-3.657056","1.88894","-0.620874","0.446216","-0.123218","0.050244","0.131592","-0.76084"
"L","1617446073.2385666","7","-36","3","54","53","17","0.773132","-0.317688","-0.544983","-0.065674","0.015267","0.022901","-0.022901","8.03667","-3.663037","1.836304","-0.630444","0.448608","-0.163892","0.081348","0.10647","-0.778784"
"L","1617446073.2285414","7","-37","4","50","57","23","0.772766","-0.318237","-0.545227","-0.06543","0.022901","0.022901","-0.022901","8.029492","-3.68457","1.787256","-0.636426","0.435449","-0.200977","0.102881","0.072974","-0.785962"
"L","1617446073.218177","7","-36","5","52","36","33","0.7724","-0.31897","-0.545349","-0.065186","0.038168","0.022901","-0.022901","8.031885","-3.743188","1.74419","-0.631641","0.388794","-0.23208","0.108862","0.019141","-0.768018"
"L","1617446073.208367","7","-36","4","52","52","22","0.771973","-0.319702","-0.545471","-0.065125","0.045802","0.022901","-0.022901","8.0594","-3.841284","1.696338","-0.601733","0.299072","-0.266772","0.108862","-0.0646","-0.710596"
"L","1617446073.1984217","7","-36","5","50","51","21","0.771606","-0.320496","-0.545593","-0.065125","0.038168","0.022901","-0.030534","8.119214","-3.927417","1.673608","-0.540723","0.22251","-0.278735","0.108862","-0.117236","-0.626855"
"L","1617446073.188296","7","-39","3","50","53","23","0.77124","-0.321228","-0.545715","-0.065125","0.030534","0.015267","-0.030534","8.183813","-3.959717","1.681982","-0.474927","0.198584","-0.258398","0.107666","-0.108862","-0.555078"
"L","1617446073.1786263","7","-37","3","50","54","22","0.770996","-0.321838","-0.545715","-0.064941","0.015267","0","-0.030534","8.208936","-3.965698","1.68916","-0.446216","0.202173","-0.244043","0.108862","-0.090918","-0.527563"
"L","1617446073.1683407","7","-35","4","50","55","21","0.770935","-0.322205","-0.545532","-0.06488","0.007634","-0.007634","-0.022901","8.201757","-3.977661","1.693945","-0.451001","0.196191","-0.236865","0.098096","-0.093311","-0.527563"
"L","1617446073.1583045","7","-37","5","52","48","22","0.771057","-0.32251","-0.545288","-0.064758","0","-0.015267","-0.022901","8.201757","-3.966895","1.720264","-0.447412","0.214136","-0.212939","0.088525","-0.065796","-0.527563"
"L","1617446073.148773","7","-37","3","49","51","19","0.771179","-0.322754","-0.544922","-0.064575","0.007634","-0.022901","-0.022901","8.210132","-3.978858","1.74419","-0.434253","0.209351","-0.193799","0.075366","-0.055029","-0.510815"
"L","1617446073.138529","7","-38","0","50","51","21","0.771362","-0.323059","-0.544556","-0.064514","0.007634","-0.015267","-0.022901","8.218506","-4.015943","1.764526","-0.42229","0.179443","-0.178247","0.053833","-0.066992","-0.484497"
"L","1617446073.1283152","7","-37","4","51","52","21","0.771423","-0.323364","-0.54425","-0.064392","0.015267","-0.007634","-0.022901","8.235254","-4.057813","1.790845","-0.400757","0.143555","-0.153125","0.026318","-0.075366","-0.44502"
"L","1617446073.1184802","7","-38","3","49","50","18","0.771362","-0.32373","-0.544067","-0.064331","0.015267","-0.007634","-0.022901","8.252002","-4.084131","1.823145","-0.381616","0.123218","-0.119629","-0.001196","-0.068188","-0.41272"
"L","1617446073.1084285","7","-36","4","50","53","22","0.771362","-0.324097","-0.543945","-0.064209","0.007634","-0.007634","-0.022901","8.234057","-4.100879","1.811182","-0.397168","0.113647","-0.130396","-0.002393","-0.086133","-0.423486"
"L","1617446073.0984857","7","-36","3","52","51","20","0.771362","-0.324341","-0.543823","-0.064148","0","-0.007634","-0.015267","8.21731","-4.103271","1.782471","-0.411523","0.11604","-0.159106","0.014355","-0.104077","-0.443823"
"L","1617446073.0891738","7","-35","4","51","56","25","0.771362","-0.324463","-0.543762","-0.064148","-0.007634","-0.007634","-0.007634","8.212524","-4.104468","1.713086","-0.416309","0.117236","-0.228491","0.068188","-0.143555","-0.461768"
"L","1617446073.0784843","7","-37","5","49","51","24","0.771423","-0.324341","-0.543701","-0.064209","-0.015267","-0.007634","0","8.210132","-4.091309","1.631738","-0.418701","0.128003","-0.312231","0.13877","-0.183032","-0.485693"
"L","1617446073.0684135","7","-37","1","49","48","22","0.771484","-0.324097","-0.543701","-0.064148","-0.030534","0","0","8.254395","-4.047046","1.587476","-0.374438","0.169873","-0.358887","0.211743","-0.166284","-0.47373"
"L","1617446073.0585034","7","-37","-1","47","52","21","0.771606","-0.323669","-0.543884","-0.064026","-0.030534","0.007634","0.007634","8.32019","-4.012353","1.539624","-0.311035","0.19978","-0.409131","0.291895","-0.154321","-0.440234"
"L","1617446073.049182","7","-39","5","52","52","22","0.771667","-0.323242","-0.544067","-0.063843","-0.022901","0.015267","0.007634","8.356079","-4.002783","1.486987","-0.276343","0.204565","-0.462964","0.350513","-0.172266","-0.42229"
"L","1617446073.0385385","7","-37","5","54","51","24","0.771667","-0.322937","-0.54425","-0.06366","-0.007634","0.022901","0","8.397949","-4.032691","1.436743","-0.235669","0.172266","-0.513208","0.392383","-0.215332","-0.382812"
"L","1617446073.0283964","7","-35","4","50","54","20","0.771484","-0.322876","-0.544556","-0.063538","0","0.030534","0","8.449389","-4.088916","1.397266","-0.186621","0.114844","-0.546704","0.413916","-0.266772","-0.321802"
"L","1617446073.019316","7","-36","-1","49","50","23","0.771362","-0.322876","-0.544739","-0.063416","0.007634","0.030534","-0.007634","8.466138","-4.117627","1.400854","-0.169873","0.086133","-0.539526","0.401953","-0.281128","-0.293091"
"L","1617446073.0092149","7","-36","4","52","56","23","0.771179","-0.322998","-0.544922","-0.063293","0","0.015267","-0.007634","8.400342","-4.134375","1.42478","-0.236865","0.070581","-0.509619","0.344531","-0.293091","-0.33855"
"L","1617446072.9991472","7","-37","4","52","54","19","0.77124","-0.323059","-0.5448","-0.063293","0","-0.007634","-0.007634","8.263965","-4.121216","1.458276","-0.372046","0.086133","-0.478516","0.272754","-0.297876","-0.459375"
"L","1617446072.9884756","7","-37","5","50","51","19","0.771423","-0.323059","-0.544556","-0.063293","0","-0.015267","-0.007634","8.11084","-4.110449","1.503735","-0.522778","0.098096","-0.437842","0.185425","-0.303857","-0.588574"
"L","1617446072.978625","7","-37","5","50","50","21","0.771606","-0.323059","-0.54425","-0.063416","0","-0.015267","-0.007634","7.993604","-4.110449","1.559961","-0.638818","0.098096","-0.387598","0.098096","-0.305054","-0.681885"
"L","1617446072.9693065","7","-37","4","50","54","24","0.771851","-0.322998","-0.544006","-0.063538","-0.007634","-0.015267","-0.007634","7.906274","-4.061401","1.630542","-0.724951","0.147144","-0.324194","0.034692","-0.252417","-0.765625"
"L","1617446072.9591808","7","-36","3","50","52","22","0.772034","-0.322815","-0.543823","-0.06366","-0.007634","-0.015267","-0.007634","7.838086","-3.972876","1.685571","-0.79314","0.233276","-0.275146","0.005981","-0.173462","-0.852954"
"L","1617446072.948517","7","-37","4","50","46","22","0.772156","-0.322754","-0.54364","-0.06366","-0.007634","-0.015267","-0.007634","7.784253","-3.883154","1.728638","-0.845776","0.322998","-0.236865","-0.003589","-0.094507","-0.930713"
"L","1617446072.9394069","7","-36","4","51","51","23","0.772217","-0.322815","-0.543518","-0.063599","0.007634","-0.007634","-0.007634","7.741187","-3.858032","1.742993","-0.88645","0.349316","-0.223706","-0.019141","-0.076563","-0.974976"
"L","1617446072.9291792","7","-37","4","37","52","20","0.772217","-0.322998","-0.543396","-0.06366","0.015267","-0.007634","-0.015267","7.718457","-3.869995","1.723853","-0.907983","0.339746","-0.242847","-0.016748","-0.100488","-0.99292"
"L","1617446072.919079","7","-37","4","49","50","23","0.772156","-0.323303","-0.543274","-0.063782","0.015267","-0.007634","-0.015267","7.725635","-3.866406","1.737012","-0.899609","0.346924","-0.228491","-0.022729","-0.084937","-0.985742"
"L","1617446072.9091876","7","-35","4","49","50","23","0.772095","-0.323669","-0.543152","-0.063843","0.015267","-0.007634","-0.015267","7.731616","-3.86521","1.720264","-0.892432","0.352905","-0.242847","-0.005981","-0.087329","-0.985742"
"L","1617446072.8992314","7","-36","4","50","56","17","0.772156","-0.323914","-0.542969","-0.063904","0.007634","-0.022901","-0.015267","7.728027","-3.85564","1.716675","-0.894824","0.366064","-0.248828","0.002393","-0.081348","-0.994116"
"L","1617446072.8891757","7","-35","1","52","54","25","0.772278","-0.323975","-0.542725","-0.063965","-0.007634","-0.030534","-0.007634","7.724439","-3.828125","1.709497","-0.896021","0.394775","-0.259595","0.022729","-0.065796","-1.009668"
"L","1617446072.879055","7","-36","4","52","53","23","0.772522","-0.323975","-0.542358","-0.064026","-0.007634","-0.030534","-0.007634","7.751953","-3.820947","1.723853","-0.866113","0.403149","-0.252417","0.0323","-0.046655","-0.985742"
"L","1617446072.86928","7","-39","5","51","53","21","0.772827","-0.323792","-0.541992","-0.064087","-0.015267","-0.030534","0","7.790235","-3.817358","1.746582","-0.825439","0.405542","-0.240454","0.039478","-0.027515","-0.948657"
"L","1617446072.8591256","7","-35","6","54","54","21","0.773132","-0.323608","-0.541687","-0.064209","-0.015267","-0.030534","0","7.841675","-3.817358","1.760937","-0.772803","0.404346","-0.234473","0.055029","-0.010767","-0.900806"
"L","1617446072.8491416","7","-37","4","51","54","21","0.773438","-0.323364","-0.541382","-0.06427","-0.015267","-0.022901","0","7.911059","-3.824536","1.798023","-0.702222","0.394775","-0.206958","0.056226","0.014355","-0.829028"
"L","1617446072.8391774","7","-36","4","51","52","23","0.773682","-0.32312","-0.541199","-0.06427","-0.015267","-0.015267","0","7.974463","-3.831714","1.830322","-0.638818","0.385205","-0.181836","0.057422","0.037085","-0.764429"
"L","1617446072.8292646","7","-36","1","52","51","21","0.773926","-0.322937","-0.541016","-0.06427","-0.015267","-0.015267","0","8.031885","-3.849658","1.876978","-0.581396","0.367261","-0.142358","0.04187","0.061011","-0.697437"
"L","1617446072.8191938","7","-35","6","53","50","21","0.774109","-0.322754","-0.540771","-0.064209","-0.015267","-0.015267","0","8.070166","-3.872388","1.922436","-0.540723","0.343335","-0.102881","0.015552","0.075366","-0.643604"
"L","1617446072.8092897","7","-35","1","49","54","25","0.774353","-0.32251","-0.540649","-0.064148","-0.022901","-0.022901","0","8.102466","-3.868799","1.969092","-0.508423","0.345728","-0.063403","-0.001196","0.107666","-0.607715"
"L","1617446072.7994046","7","-35","4","45","52","24","0.774597","-0.322266","-0.540405","-0.064148","-0.030534","-0.030534","0","8.121607","-3.879565","2.01814","-0.48689","0.332568","-0.021533","-0.0323","0.126807","-0.574219"
"L","1617446072.789268","7","-35","3","53","54","23","0.774963","-0.321838","-0.540161","-0.064087","-0.038168","-0.030534","0.007634","8.115625","-3.877173","2.063599","-0.492871","0.332568","0.011963","-0.061011","0.144751","-0.573022"
"L","1617446072.779188","7","-37","4","48","54","23","0.77533","-0.321289","-0.539917","-0.064026","-0.045802","-0.030534","0","8.114429","-3.843677","2.121021","-0.492871","0.360083","0.057422","-0.086133","0.192603","-0.574219"
"L","1617446072.7692072","7","-37","2","49","52","21","0.775818","-0.320679","-0.539673","-0.063843","-0.053435","-0.030534","0","8.126391","-3.808984","2.189209","-0.480908","0.391187","0.112451","-0.111255","0.252417","-0.565845"
"L","1617446072.759199","7","-36","4","51","54","25","0.776184","-0.320129","-0.53949","-0.063538","-0.045802","-0.022901","0","8.156299","-3.812573","2.235864","-0.448608","0.385205","0.14834","-0.130396","0.275146","-0.526367"
"L","1617446072.7491758","7","-37","6","52","55","22","0.776489","-0.319641","-0.539368","-0.063232","-0.045802","-0.015267","-0.007634","8.192187","-3.84248","2.251416","-0.411523","0.352905","0.155518","-0.136377","0.263184","-0.478516"
"L","1617446072.7392304","7","-37","1","47","53","25","0.776733","-0.319275","-0.539307","-0.062927","-0.038168","-0.015267","-0.007634","8.229273","-3.872388","2.266968","-0.374438","0.322998","0.163892","-0.141162","0.253613","-0.43186"
"L","1617446072.7293968","7","-35","4","52","52","17","0.776917","-0.31897","-0.539246","-0.062561","-0.038168","-0.015267","-0.007634","8.243628","-3.892725","2.263379","-0.358887","0.302661","0.155518","-0.137573","0.236865","-0.410327"
"L","1617446072.7194026","7","-39","4","51","48","20","0.7771","-0.318604","-0.539185","-0.062195","-0.038168","-0.015267","-0.007634","8.22688","-3.896313","2.255005","-0.373242","0.299072","0.142358","-0.135181","0.223706","-0.424683"
"L","1617446072.7093506","7","-37","4","49","56","21","0.777344","-0.318298","-0.539062","-0.061829","-0.038168","-0.015267","-0.015267","8.200562","-3.901099","2.243042","-0.397168","0.294287","0.124414","-0.132788","0.203369","-0.447412"
"L","1617446072.699221","7","-35","3","52","51","17","0.777527","-0.318115","-0.539001","-0.061401","-0.030534","-0.007634","-0.015267","8.188599","-3.942969","2.22749","-0.407935","0.256006","0.104077","-0.13877","0.159106","-0.443823"
"L","1617446072.6892972","7","-35","9","50","55","20","0.777649","-0.317932","-0.539001","-0.060974","-0.022901","-0.007634","-0.022901","8.176636","-3.965698","2.205957","-0.418701","0.235669","0.080151","-0.132788","0.126807","-0.449805"
"L","1617446072.679243","7","-36","4","50","54","23","0.77771","-0.317932","-0.53894","-0.060547","-0.022901","-0.007634","-0.022901","8.140747","-3.99082","2.178442","-0.451001","0.215332","0.05144","-0.131592","0.086133","-0.476123"
"L","1617446072.6692982","7","-37","1","50","54","21","0.77771","-0.317932","-0.53894","-0.06012","-0.007634","0","-0.022901","8.116821","-4.026709","2.135376","-0.472534","0.184229","0.00957","-0.120825","0.0323","-0.490479"
"L","1617446072.6593215","7","-37","4","51","48","20","0.777649","-0.318115","-0.539001","-0.059814","-0.007634","0.007634","-0.022901","8.126391","-4.068579","2.089917","-0.461768","0.147144","-0.0323","-0.099292","-0.016748","-0.474927"
"L","1617446072.6492474","7","-37","5","52","51","21","0.777527","-0.318298","-0.539124","-0.059509","0","0.015267","-0.022901","8.141943","-4.100879","2.036084","-0.44502","0.120825","-0.081348","-0.0646","-0.061011","-0.459375"
"L","1617446072.6392782","7","-37","4","51","50","20","0.777344","-0.318481","-0.539246","-0.059265","0","0.007634","-0.015267","8.158691","-4.122412","1.990625","-0.427075","0.102881","-0.120825","-0.033496","-0.093311","-0.443823"
"L","1617446072.6292756","7","-39","3","50","51","23","0.777222","-0.318604","-0.539368","-0.059021","-0.007634","0","-0.015267","8.151514","-4.127197","1.948755","-0.433057","0.101685","-0.159106","-0.005981","-0.117236","-0.456982"
"L","1617446072.6193264","7","-39","4","52","55","19","0.777283","-0.318542","-0.539368","-0.058899","-0.015267","-0.007634","-0.007634","8.116821","-4.111646","1.930811","-0.467749","0.118433","-0.178247","0.001196","-0.123218","-0.498853"
"L","1617446072.609288","7","-35","5","50","50","25","0.777405","-0.318359","-0.539307","-0.058777","-0.022901","-0.015267","0","8.067774","-4.078149","1.936792","-0.515601","0.150732","-0.175854","-0.004785","-0.108862","-0.553882"
"L","1617446072.5992537","7","-37","1","25","25","-15","0.777649","-0.317993","-0.539185","-0.058777","-0.022901","-0.022901","0","8.019922","-4.030298","1.942773","-0.563452","0.194995","-0.177051","-0.004785","-0.086133","-0.614893"
"L","1617446072.5894814","7","-39","4","51","52","21","0.777893","-0.317627","-0.539062","-0.058716","-0.022901","-0.015267","0","8.007959","-3.987231","1.954736","-0.575415","0.234473","-0.172266","0.002393","-0.053833","-0.642407"
"L","1617446072.5793145","7","-37","4","50","54","21","0.778076","-0.317261","-0.53894","-0.058716","-0.015267","-0.015267","0","8.045044","-3.960913","1.969092","-0.53833","0.256006","-0.163892","0.020337","-0.022729","-0.617285"
"L","1617446072.569206","7","-36","4","53","55","21","0.778198","-0.317139","-0.538879","-0.058716","-0.007634","-0.015267","0","8.079737","-3.974072","1.96311","-0.503638","0.242847","-0.173462","0.035889","-0.029907","-0.582593"
"L","1617446072.5592864","7","-38","6","53","54","23","0.778259","-0.317078","-0.538818","-0.058838","0","-0.015267","0.007634","8.113233","-4.011157","1.941577","-0.471338","0.203369","-0.197388","0.05144","-0.065796","-0.543115"
"L","1617446072.5493588","7","-37","4","51","48","15","0.77832","-0.317078","-0.538696","-0.059082","0.007634","-0.015267","0.007634","8.16228","-4.015943","1.947559","-0.42229","0.196191","-0.193799","0.065796","-0.057422","-0.49646"
"L","1617446072.5393429","7","-36","1","50","56","24","0.778381","-0.317078","-0.538574","-0.059326","0.007634","-0.022901","0.007634","8.180224","-4.017138","1.965503","-0.404346","0.193799","-0.178247","0.059814","-0.046655","-0.476123"
"L","1617446072.529338","7","-36","1","51","52","21","0.778503","-0.317078","-0.53833","-0.059631","0.007634","-0.030534","0.007634","8.167066","-4.030298","1.993018","-0.417505","0.178247","-0.155518","0.028711","-0.049048","-0.476123"
"L","1617446072.5195544","7","-35","5","51","52","21","0.778687","-0.317078","-0.538086","-0.060059","0","-0.030534","0.007634","8.14314","-4.019531","2.028906","-0.441431","0.185425","-0.12561","-0.001196","-0.0323","-0.492871"
"L","1617446072.509313","7","-37","1","53","52","23","0.778931","-0.316833","-0.537781","-0.060425","-0.015267","-0.030534","0.007634","8.139551","-3.960913","2.109058","-0.44502","0.239258","-0.053833","-0.037085","0.049048","-0.503638"
"L","1617446072.4993958","7","-37","4","49","54","21","0.779236","-0.316528","-0.537537","-0.060608","-0.015267","-0.030534","0.007634","8.147924","-3.879565","2.205957","-0.437842","0.31582","0.0323","-0.069385","0.160303","-0.510815"
"L","1617446072.489298","7","-40","2","50","54","22","0.779419","-0.316345","-0.537292","-0.060791","-0.007634","-0.030534","0.007634","8.135962","-3.868799","2.235864","-0.448608","0.322998","0.055029","-0.089722","0.175854","-0.517993"
"L","1617446072.479381","7","-37","4","52","54","21","0.779602","-0.316284","-0.537048","-0.061096","0.007634","-0.022901","0.007634","8.150317","-3.909473","2.235864","-0.434253","0.279932","0.049048","-0.096899","0.142358","-0.488086"
"L","1617446072.4694505","7","-37","4","53","52","24","0.779663","-0.316284","-0.536926","-0.061462","0.007634","-0.015267","0.007634","8.212524","-3.936987","2.25022","-0.373242","0.248828","0.061011","-0.094507","0.139966","-0.418701"
"L","1617446072.4593222","7","-37","4","53","52","23","0.779663","-0.316284","-0.536926","-0.061707","0","-0.007634","0.007634","8.252002","-3.934595","2.263379","-0.334961","0.248828","0.07417","-0.089722","0.156714","-0.382812"
"L","1617446072.449447","7","-37","4","52","55","24","0.779602","-0.316284","-0.536987","-0.061951","0","-0.007634","0.007634","8.25918","-3.94895","2.257397","-0.328979","0.230884","0.069385","-0.090918","0.141162","-0.37085"
"L","1617446072.4394338","7","-36","6","51","53","21","0.779541","-0.316345","-0.536987","-0.062134","0","-0.007634","0.007634","8.260376","-3.966895","2.232275","-0.328979","0.211743","0.045459","-0.080151","0.112451","-0.368457"
"L","1617446072.4295044","7","-36","5","51","54","23","0.779541","-0.316223","-0.537109","-0.062317","-0.015267","0","0.007634","8.261572","-3.95852","2.223901","-0.330176","0.216528","0.037085","-0.071777","0.111255","-0.373242"
"L","1617446072.4195397","7","-36","5","52","53","21","0.779541","-0.315979","-0.537231","-0.062317","-0.030534","0.007634","0","8.260376","-3.899902","2.249023","-0.333765","0.271558","0.062207","-0.069385","0.168677","-0.393579"
"L","1617446072.4092517","7","-37","3","50","52","23","0.779541","-0.315674","-0.537476","-0.062134","-0.030534","0","0","8.242432","-3.841284","2.260986","-0.352905","0.326587","0.075366","-0.063403","0.215332","-0.430664"
"L","1617446072.3994207","7","-37","0","49","54","21","0.779541","-0.315369","-0.537598","-0.061829","-0.030534","0","0","8.21372","-3.841284","2.211938","-0.381616","0.325391","0.025122","-0.035889","0.179443","-0.466553"
"L","1617446072.3895254","7","-38","4","49","52","36","0.77948","-0.315186","-0.537842","-0.061584","-0.015267","0.015267","-0.007634","8.212524","-3.867603","2.152124","-0.384009","0.297876","-0.029907","-0.004785","0.12561","-0.470142"
"L","1617446072.379307","7","-36","-1","49","54","21","0.779297","-0.315247","-0.538086","-0.06134","0","0.022901","-0.007634","8.232862","-3.927417","2.073169","-0.364868","0.240454","-0.102881","0.035889","0.044263","-0.44502"
"L","1617446072.3696787","7","-35","0","52","52","21","0.778992","-0.315491","-0.538452","-0.061096","0.007634","0.030534","-0.015267","8.252002","-3.988428","2.016943","-0.346924","0.183032","-0.149536","0.055029","-0.022729","-0.415112"
"L","1617446072.359548","7","-35","6","50","52","21","0.778625","-0.315735","-0.538879","-0.060852","0.007634","0.038168","-0.022901","8.262769","-4.015943","1.978662","-0.337354","0.159106","-0.175854","0.070581","-0.053833","-0.401953"
"L","1617446072.3494182","7","-36","4","53","52","25","0.778198","-0.31604","-0.539307","-0.060425","0.007634","0.045802","-0.022901","8.275928","-4.035083","1.975073","-0.324194","0.145947","-0.166284","0.063403","-0.056226","-0.382812"
"L","1617446072.3394186","7","-37","1","48","52","22","0.777832","-0.316406","-0.539734","-0.059998","0","0.030534","-0.022901","8.240039","-4.039868","1.975073","-0.360083","0.14834","-0.153125","0.039478","-0.056226","-0.411523"
"L","1617446072.3294208","7","-35","7","52","52","24","0.777588","-0.31665","-0.539978","-0.05957","-0.007634","0.015267","-0.022901","8.147924","-4.042261","1.965503","-0.451001","0.153125","-0.154321","0.004785","-0.076563","-0.494067"
"L","1617446072.3194134","7","-38","5","50","52","21","0.777527","-0.316772","-0.540039","-0.059204","-0.007634","0","-0.022901","8.052221","-4.038672","1.966699","-0.544312","0.161499","-0.150732","-0.031104","-0.090918","-0.579004"
"L","1617446072.309328","7","-35","5","50","53","23","0.777527","-0.316833","-0.539978","-0.05896","-0.015267","-0.007634","-0.022901","7.981641","-4.027905","1.964307","-0.6125","0.175854","-0.153125","-0.05144","-0.098096","-0.6448"
"L","1617446072.2999606","7","-37","3","50","57","24","0.777649","-0.316833","-0.539856","-0.058655","-0.015267","-0.015267","-0.022901","7.917041","-4.017138","1.946362","-0.674707","0.19021","-0.173462","-0.055029","-0.114844","-0.710596"
"L","1617446072.2894506","7","-37","4","51","46","20","0.777771","-0.316833","-0.539673","-0.058411","-0.015267","-0.007634","-0.030534","7.882349","-4.012353","1.936792","-0.707007","0.198584","-0.186621","-0.053833","-0.123218","-0.745288"
"L","1617446072.279509","7","-33","4","52","53","23","0.777832","-0.316956","-0.539551","-0.058044","0","0","-0.038168","7.897901","-4.019531","1.941577","-0.687866","0.198584","-0.183032","-0.049048","-0.117236","-0.727344"
"L","1617446072.2693412","7","-36","4","50","52","19","0.777771","-0.317322","-0.53949","-0.057678","0.015267","0.007634","-0.030534","7.918237","-4.061401","1.922436","-0.66394","0.165088","-0.198584","-0.04187","-0.147144","-0.695044"
"L","1617446072.2594397","7","-35","3","50","54","23","0.777588","-0.31781","-0.53949","-0.057434","0.022901","0","-0.030534","7.936182","-4.120019","1.876978","-0.643604","0.11604","-0.238062","-0.022729","-0.203369","-0.66394"
"L","1617446072.2495463","7","-36","5","52","52","23","0.777466","-0.318237","-0.539429","-0.057373","0.022901","0","-0.022901","7.943359","-4.13916","1.842285","-0.634033","0.102881","-0.269165","0","-0.228491","-0.656763"
"L","1617446072.2394855","7","-37","5","50","54","21","0.777344","-0.318604","-0.539368","-0.057434","0.015267","-0.007634","-0.015267","7.942163","-4.118823","1.829126","-0.634033","0.128003","-0.278735","0.017944","-0.215332","-0.669922"
"L","1617446072.229374","7","-36","1","50","46","21","0.777405","-0.318787","-0.539185","-0.057556","0.007634","-0.015267","-0.015267","7.9302","-4.070971","1.82793","-0.6448","0.177051","-0.281128","0.035889","-0.18064","-0.701025"
"L","1617446072.219451","7","-35","5","51","50","22","0.777527","-0.318848","-0.53894","-0.057617","0","-0.030534","-0.007634","7.889526","-4.002783","1.8375","-0.683081","0.247632","-0.276343","0.046655","-0.131592","-0.764429"
"L","1617446072.2095883","7","-38","4","50","53","22","0.777832","-0.318848","-0.538574","-0.0578","0","-0.038168","0","7.852441","-3.94895","1.851856","-0.71897","0.301465","-0.270361","0.049048","-0.094507","-0.817065"
"L","1617446072.1996458","7","-38","4","52","52","20","0.778076","-0.318726","-0.538147","-0.058044","0","-0.038168","0","7.840478","-3.910669","1.876978","-0.72854","0.337354","-0.25481","0.047852","-0.059814","-0.838599"
"L","1617446072.1894405","7","-39","4","50","53","23","0.778442","-0.318726","-0.537659","-0.05835","0.007634","-0.038168","0","7.834497","-3.892725","1.910474","-0.733325","0.355298","-0.23208","0.034692","-0.033496","-0.845776"
"L","1617446072.179572","7","-40","4","52","52","18","0.778687","-0.318787","-0.537231","-0.058655","0.015267","-0.038168","0","7.850049","-3.903491","1.935596","-0.715381","0.343335","-0.215332","0.022729","-0.028711","-0.820654"
"L","1617446072.1693568","7","-37","1","50","51","21","0.77887","-0.31897","-0.536804","-0.059082","0.022901","-0.030534","0","7.891919","-3.940576","1.969092","-0.671118","0.30625","-0.189014","0.003589","-0.031104","-0.76084"
"L","1617446072.1603072","7","-37","4","49","53","20","0.778992","-0.319275","-0.536377","-0.059509","0.030534","-0.030534","0","7.931396","-4.01355","2.019336","-0.630444","0.234473","-0.143555","-0.046655","-0.052637","-0.683081"
"L","1617446072.1502526","7","-36","5","52","53","20","0.779053","-0.319702","-0.53595","-0.060059","0.038168","-0.045802","0.007634","7.949341","-4.070971","2.064795","-0.610107","0.179443","-0.101685","-0.095703","-0.066992","-0.632837"
"L","1617446072.140247","7","-37","1","51","52","21","0.779297","-0.320007","-0.5354","-0.06073","0.038168","-0.053435","0.007634","7.921826","-4.081738","2.113843","-0.636426","0.168677","-0.061011","-0.143555","-0.058618","-0.642407"
"L","1617446072.1300597","7","-39","1","48","50","19","0.77948","-0.320312","-0.53479","-0.061584","0.038168","-0.053435","0.015267","7.921826","-4.110449","2.161694","-0.634033","0.137573","-0.021533","-0.189014","-0.059814","-0.617285"
"L","1617446070.7615964","7","-35","3","48","54","23","0.770203","-0.330872","-0.541565","-0.063843","0.022901","-0.015267","-0.022901","8.037867","-4.103271","1.908081","-0.551489","0.212939","0.001196","-0.126807","0.021533","-0.576611"
"L","1617446070.751463","7","-38","3","52","54","22","0.770081","-0.331421","-0.541382","-0.063843","0.022901","-0.007634","-0.022901","8.070166","-4.068579","1.868603","-0.515601","0.256006","-0.033496","-0.0646","0.043066","-0.57063"
"L","1617446070.7414455","7","-38","6","53","56","20","0.769897","-0.331909","-0.54126","-0.063843","0.022901","-0.007634","-0.022901","8.113233","-4.050635","1.821948","-0.468945","0.279932","-0.075366","-0.002393","0.049048","-0.5479"
"L","1617446070.7315753","7","-37","4","50","52","25","0.769775","-0.332458","-0.541199","-0.063782","0.022901","0","-0.022901","8.157495","-4.059009","1.759741","-0.423486","0.279932","-0.132788","0.061011","0.027515","-0.520386"
"L","1617446070.7213993","7","-33","-1","52","54","20","0.769592","-0.333008","-0.541138","-0.063843","0.022901","0","-0.015267","8.192187","-4.076953","1.705908","-0.386401","0.267969","-0.18064","0.107666","0","-0.491675"
"L","1617446070.7113934","7","-40","4","54","53","23","0.769409","-0.333374","-0.541077","-0.063904","0.015267","0","-0.007634","8.208936","-4.078149","1.684375","-0.367261","0.271558","-0.198584","0.131592","-0.002393","-0.479712"
"L","1617446070.701446","7","-33","6","52","54","21","0.769348","-0.333557","-0.541077","-0.064087","0","0","0","8.198169","-4.039868","1.676001","-0.379224","0.309839","-0.204565","0.149536","0.019141","-0.508423"
"L","1617446070.691607","7","-35","9","53","53","24","0.769348","-0.333496","-0.541138","-0.064148","-0.007634","0","0.007634","8.177832","-3.987231","1.705908","-0.400757","0.360083","-0.174658","0.139966","0.069385","-0.543115"
"L","1617446070.6814144","7","-38","5","53","54","22","0.769348","-0.333252","-0.54126","-0.064148","-0.015267","0","0.015267","8.159887","-3.947754","1.73103","-0.419897","0.395972","-0.149536","0.129199","0.107666","-0.571826"
"L","1617446070.6713436","7","-35","5","52","25","24","0.769348","-0.332947","-0.541382","-0.064209","-0.022901","0.007634","0.015267","8.149121","-3.91665","1.762134","-0.433057","0.42229","-0.119629","0.112451","0.141162","-0.588574"
"L","1617446070.6615684","7","-35","4","52","52","24","0.769348","-0.332581","-0.541626","-0.064087","-0.022901","0.007634","0.015267","8.146729","-3.899902","1.780078","-0.437842","0.434253","-0.101685","0.101685","0.160303","-0.594556"
"L","1617446070.6513498","7","-38","5","52","46","19","0.769348","-0.332275","-0.54187","-0.063965","-0.022901","0.007634","0.007634","8.139551","-3.926221","1.793237","-0.447412","0.404346","-0.087329","0.072974","0.143555","-0.587378"
"L","1617446070.6415224","7","-36","3","51","52","20","0.769287","-0.332092","-0.542114","-0.063843","-0.015267","0.015267","0.007634","8.146729","-3.975269","1.792041","-0.442627","0.352905","-0.086133","0.050244","0.105273","-0.559863"
"L","1617446070.6315906","7","-37","4","51","56","23","0.769165","-0.331848","-0.542419","-0.063721","-0.015267","0.022901","0.007634","8.174243","-4.006372","1.78606","-0.417505","0.318213","-0.088525","0.046655","0.08374","-0.522778"
"L","1617446070.621526","7","-36","5","51","52","22","0.768982","-0.331665","-0.542847","-0.063599","-0.022901","0.022901","0.007634","8.200562","-4.007568","1.784863","-0.393579","0.314624","-0.08374","0.05144","0.090918","-0.498853"
"L","1617446070.611433","7","-37","3","50","50","24","0.768738","-0.331421","-0.543335","-0.063354","-0.022901","0.030534","0.007634","8.222095","-3.997998","1.760937","-0.375635","0.320605","-0.099292","0.07417","0.090918","-0.489282"
"L","1617446070.6014996","7","-37","0","49","55","23","0.768494","-0.331055","-0.543884","-0.06311","-0.030534","0.038168","0.007634","8.235254","-3.983643","1.720264","-0.366064","0.328979","-0.132788","0.108862","0.080151","-0.490479"
"L","1617446070.59163","7","-36","4","51","52","20","0.768188","-0.330688","-0.544556","-0.062805","-0.030534","0.045802","0.015267","8.228076","-3.957324","1.686768","-0.378027","0.350513","-0.156714","0.132788","0.080151","-0.514404"
"L","1617446070.5814168","7","-37","1","50","52","21","0.767883","-0.330322","-0.545227","-0.0625","-0.030534","0.045802","0.015267","8.211329","-3.964502","1.667627","-0.398364","0.33855","-0.166284","0.128003","0.061011","-0.52876"
"L","1617446070.571633","7","-38","4","50","51","21","0.767639","-0.329956","-0.545898","-0.062256","-0.022901","0.038168","0.015267","8.13357","-3.992017","1.63772","-0.482104","0.30625","-0.186621","0.096899","0.001196","-0.592163"
"L","1617446070.5615022","7","-35","4","51","54","21","0.767395","-0.329712","-0.546448","-0.062012","-0.015267","0.038168","0.007634","8.06897","-4.051831","1.641309","-0.550293","0.242847","-0.175854","0.0323","-0.058618","-0.62207"
"L","1617446070.5513952","7","-37","3","48","50","21","0.76709","-0.32959","-0.546997","-0.06189","0","0.030534","0","8.018725","-4.117627","1.63772","-0.604126","0.173462","-0.168677","-0.023926","-0.122021","-0.637622"
"L","1617446070.5415385","7","-37","4","50","52","23","0.766724","-0.329651","-0.547424","-0.061768","0.007634","0.030534","-0.007634","7.988818","-4.182227","1.61499","-0.636426","0.108862","-0.18064","-0.056226","-0.187817","-0.640015"
"L","1617446070.5322042","7","-37","3","53","54","25","0.766357","-0.329773","-0.547852","-0.061707","0.007634","0.030534","-0.007634","7.978052","-4.209741","1.574316","-0.649585","0.080151","-0.210547","-0.049048","-0.230884","-0.6448"
"L","1617446070.5222082","7","-37","4","52","53","21","0.765991","-0.329834","-0.54834","-0.061646","0","0.038168","-0.007634","8.009155","-4.197778","1.574316","-0.620874","0.090918","-0.19978","-0.040674","-0.209351","-0.62207"
"L","1617446070.5121715","7","-36","4","50","52","21","0.765686","-0.329834","-0.548767","-0.061401","-0.007634","0.030534","-0.007634","8.018725","-4.13916","1.579102","-0.613696","0.149536","-0.185425","-0.022729","-0.154321","-0.638818"
"L","1617446070.50223","7","-37","1","50","52","19","0.765442","-0.329773","-0.549194","-0.061096","-0.015267","0.022901","-0.007634","8.019922","-4.105664","1.592261","-0.613696","0.183032","-0.163892","-0.023926","-0.11604","-0.649585"
"L","1617446070.4921358","7","-37","3","52","52","19","0.765259","-0.329712","-0.5495","-0.060913","-0.015267","0.022901","-0.007634","7.999585","-4.099683","1.593457","-0.635229","0.189014","-0.156714","-0.034692","-0.113647","-0.669922"
"L","1617446070.4826005","7","-38","5","50","48","24","0.765137","-0.329529","-0.549866","-0.060669","-0.015267","0.022901","-0.007634","8.001978","-4.079346","1.625757","-0.635229","0.208154","-0.119629","-0.055029","-0.077759","-0.671118"
"L","1617446070.472166","7","-37","3","51","52","21","0.765015","-0.329407","-0.55011","-0.060425","-0.022901","0.015267","-0.007634","8.00437","-4.060205","1.640112","-0.634033","0.227295","-0.101685","-0.059814","-0.052637","-0.675903"
"L","1617446070.4622962","7","-37","1","52","52","20","0.764893","-0.329224","-0.550415","-0.060181","-0.022901","0.015267","-0.007634","8.021118","-4.043457","1.641309","-0.618481","0.242847","-0.095703","-0.05144","-0.0323","-0.667529"
"L","1617446070.4521618","7","-36","4","51","54","21","0.764771","-0.329041","-0.550659","-0.059937","-0.022901","0.015267","-0.007634","8.052221","-4.02312","1.650879","-0.587378","0.261987","-0.082544","-0.040674","-0.002393","-0.645996"
"L","1617446070.4421225","7","-37","2","50","52","21","0.764709","-0.328796","-0.550964","-0.059631","-0.022901","0.015267","-0.007634","8.061792","-3.986035","1.650879","-0.5802","0.297876","-0.080151","-0.023926","0.027515","-0.655566"
"L","1617446070.4322066","7","-37","4","52","55","25","0.764648","-0.328613","-0.551208","-0.059326","-0.022901","0.015267","-0.007634","8.051025","-3.964502","1.654468","-0.590967","0.319409","-0.072974","-0.023926","0.045459","-0.673511"
"L","1617446070.4222558","7","-36","4","52","53","24","0.764526","-0.328552","-0.551453","-0.05896","-0.015267","0.022901","-0.015267","8.064184","-3.999194","1.631738","-0.577808","0.285913","-0.092114","-0.017944","0.011963","-0.650781"
"L","1617446070.4124062","7","-37","3","52","55","21","0.764343","-0.328613","-0.551697","-0.058594","0","0.022901","-0.015267","8.097681","-4.060205","1.613794","-0.544312","0.228491","-0.104077","-0.021533","-0.029907","-0.598145"
"L","1617446070.4021928","7","-37","4","51","51","26","0.764038","-0.328796","-0.552002","-0.058289","0.007634","0.030534","-0.015267","8.119214","-4.118823","1.588672","-0.521582","0.173462","-0.119629","-0.025122","-0.075366","-0.556274"
"L","1617446070.392261","7","-37","1","50","55","20","0.763733","-0.329102","-0.552368","-0.058044","0.007634","0.030534","-0.022901","8.157495","-4.178638","1.564746","-0.484497","0.118433","-0.132788","-0.023926","-0.11604","-0.501245"
"L","1617446070.382218","7","-35","5","49","52","22","0.763428","-0.329346","-0.552612","-0.057739","0","0.022901","-0.015267","8.170654","-4.218115","1.525269","-0.470142","0.08374","-0.162695","-0.010767","-0.156714","-0.478516"
"L","1617446070.3721776","7","-39","4","50","55","21","0.763184","-0.329468","-0.552856","-0.057495","-0.007634","0.015267","-0.015267","8.174243","-4.219312","1.494165","-0.466553","0.084937","-0.186621","0.00957","-0.168677","-0.479712"
"L","1617446070.3622477","7","-37","3","50","54","17","0.763123","-0.329529","-0.552979","-0.057312","-0.007634","0.007634","-0.007634","8.155103","-4.219312","1.439136","-0.485693","0.087329","-0.239258","0.046655","-0.202173","-0.507227"
"L","1617446070.3523471","7","-29","5","50","54","21","0.763123","-0.329407","-0.553101","-0.05719","-0.015267","0.007634","-0.007634","8.153906","-4.195386","1.397266","-0.488086","0.111255","-0.279932","0.089722","-0.206958","-0.526367"
"L","1617446070.3425283","7","-37","3","51","52","9","0.763123","-0.329102","-0.553223","-0.057068","-0.022901","0.007634","0","8.17544","-4.137964","1.378125","-0.466553","0.165088","-0.299072","0.137573","-0.169873","-0.534741"
"L","1617446070.33216","7","-37","4","39","55","23","0.763245","-0.328674","-0.553345","-0.056946","-0.030534","0.007634","0","8.195776","-4.049438","1.38291","-0.448608","0.248828","-0.297876","0.18064","-0.098096","-0.555078"
"L","1617446070.3224597","7","-35","4","51","54","22","0.763306","-0.328308","-0.553467","-0.056702","-0.022901","0.007634","0","8.198169","-3.980054","1.397266","-0.446216","0.31582","-0.284717","0.200977","-0.038281","-0.5802"
"L","1617446070.3122597","7","-33","3","50","51","21","0.763306","-0.328186","-0.553589","-0.056458","0","0.007634","0","8.202954","-3.98125","1.391284","-0.441431","0.31582","-0.290698","0.208154","-0.039478","-0.576611"
"L","1617446070.302404","7","-37","1","50","48","20","0.763184","-0.328369","-0.553711","-0.056458","0.030534","0.015267","-0.007634","8.220899","-4.056616","1.375732","-0.424683","0.24165","-0.301465","0.19021","-0.099292","-0.531152"
"L","1617446070.292457","7","-37","5","53","54","21","0.762878","-0.328857","-0.553772","-0.05658","0.038168","0.015267","-0.007634","8.250806","-4.137964","1.375732","-0.393579","0.165088","-0.293091","0.160303","-0.145947","-0.468945"
"L","1617446070.2822216","7","-39","4","50","54","23","0.762573","-0.329468","-0.553833","-0.056763","0.038168","0","-0.015267","8.230469","-4.167871","1.381714","-0.41272","0.139966","-0.278735","0.130396","-0.162695","-0.472534"
"L","1617446070.2723956","7","-37","4","51","53","23","0.762451","-0.329895","-0.55365","-0.057068","0.022901","-0.022901","-0.007634","8.144336","-4.131982","1.403247","-0.497656","0.178247","-0.25481","0.095703","-0.143555","-0.559863"
"L","1617446070.2622774","7","-36","3","52","55","24","0.762634","-0.330078","-0.553284","-0.057373","0","-0.038168","0","8.048633","-4.047046","1.442725","-0.592163","0.26438","-0.221313","0.071777","-0.08374","-0.675903"
"L","1617446070.2522085","7","-37","5","51","52","23","0.763062","-0.329895","-0.552795","-0.057678","-0.022901","-0.053435","0","7.976855","-3.93938","1.475024","-0.662744","0.368457","-0.202173","0.075366","-0.011963","-0.77998"
"L","1617446070.2422018","7","-36","5","53","53","24","0.763672","-0.329529","-0.552185","-0.0578","-0.022901","-0.053435","0","7.92063","-3.859229","1.494165","-0.717773","0.447412","-0.200977","0.088525","0.034692","-0.863721"
"L","1617446070.2323253","7","-38","5","52","54","22","0.76416","-0.329346","-0.551575","-0.057861","-0.007634","-0.045802","-0.007634","7.899096","-3.867603","1.483398","-0.734522","0.439038","-0.227295","0.098096","0.00957","-0.879272"
"L","1617446070.222294","7","-38","3","50","51","23","0.764465","-0.329468","-0.551086","-0.057922","0.022901","-0.022901","-0.015267","7.940967","-3.98125","1.44751","-0.690259","0.328979","-0.271558","0.100488","-0.087329","-0.799121"
"L","1617446070.212355","7","-39","5","50","52","21","0.764465","-0.330017","-0.550781","-0.058044","0.053435","0","-0.022901","8.028296","-4.170264","1.385303","-0.599341","0.147144","-0.333765","0.102881","-0.239258","-0.650781"
"L","1617446070.2022984","7","-39","5","53","51","19","0.764099","-0.330933","-0.550659","-0.058289","0.061069","0.015267","-0.022901","8.146729","-4.377222","1.332666","-0.477319","-0.049048","-0.376831","0.095703","-0.384009","-0.46416"
"L","1617446070.1922393","7","-37","4","53","54","21","0.763672","-0.331726","-0.55072","-0.058655","0.038168","0.015267","-0.015267","8.241236","-4.488477","1.347021","-0.382812","-0.155518","-0.350513","0.062207","-0.425879","-0.327783"
"L","1617446070.1823118","7","-36","5","52","53","20","0.76355","-0.331909","-0.550781","-0.058838","-0.022901","0","-0.015267","8.277124","-4.41311","1.434351","-0.34812","-0.080151","-0.259595","0.037085","-0.30625","-0.31582"
"L","1617446070.1723866","7","-39","1","50","51","20","0.763916","-0.331238","-0.55072","-0.058655","-0.091603","-0.030534","-0.007634","8.210132","-4.153516","1.587476","-0.416309","0.172266","-0.117236","0.010767","-0.047852","-0.461768"
"L","1617446070.1624403","7","-38","5","50","54","21","0.764832","-0.329895","-0.550354","-0.058044","-0.122137","-0.045802","-0.007634","8.109644","-3.887939","1.74419","-0.515601","0.430664","0.013159","-0.015552","0.19978","-0.641211"
"L","1617446070.1523018","7","-37","3","52","54","23","0.765869","-0.328491","-0.549866","-0.057129","-0.114504","-0.053435","-0.015267","8.022314","-3.744385","1.845874","-0.599341","0.57063","0.086133","-0.045459","0.327783","-0.762036"
