"Alphabet","timestamp","user_id","flex_1","flex_2","flex_3","flex_4","flex_5","Qw","Qx","Qy","Qz","GYRx","GYRy","GYRz","ACCx","ACCy","ACCz","ACCx_body","ACCy_body","ACCz_body","ACCx_world","ACCy_world","ACCz_world"
"M","1617446165.2190115","7","43","36","17","24","58","0.662537","-0.062744","-0.742493","-0.076294","-0.015267","-0.007634","-0.007634","9.521265","0.284717","-1.050342","-0.214136","-0.010767","0.031104","-0.007178","-0.002393","-0.215332"
"M","1617446165.2099333","7","43","36","21","24","58","0.662598","-0.062622","-0.742432","-0.076111","-0.015267","-0.015267","-0.007634","9.517675","0.311035","-1.03479","-0.216528","0.016748","0.045459","-0.015552","0.026318","-0.218921"
"M","1617446165.1999204","7","41","37","20","25","57","0.66272","-0.0625","-0.742432","-0.075867","-0.015267","-0.015267","-0.007634","9.509302","0.297876","-1.04436","-0.227295","0.004785","0.034692","-0.005981","0.013159","-0.228491"
"M","1617446165.1896627","7","42","38","22","23","58","0.662781","-0.062561","-0.74231","-0.075684","0","-0.007634","-0.015267","9.497339","0.238062","-1.073071","-0.238062","-0.050244","0.003589","0.013159","-0.046655","-0.238062"
"M","1617446165.1791315","7","39","35","21","23","58","0.662903","-0.062805","-0.742249","-0.075562","0","-0.007634","-0.022901","9.508105","0.173462","-1.100586","-0.228491","-0.108862","-0.025122","0.028711","-0.110059","-0.227295"
"M","1617446165.1691043","7","43","36","19","35","58","0.662903","-0.063049","-0.742249","-0.0755","0","0","-0.022901","9.543994","0.123218","-1.10896","-0.192603","-0.155518","-0.0323","0.022729","-0.156714","-0.191406"
"M","1617446165.1597517","7","41","38","21","25","58","0.662842","-0.063293","-0.742249","-0.075439","0","0","-0.022901","9.575098","0.108862","-1.106567","-0.161499","-0.166284","-0.028711","0.013159","-0.16748","-0.161499"
"M","1617446165.149837","7","39","39","19","25","58","0.662781","-0.063477","-0.74231","-0.075378","0","0","-0.015267","9.555957","0.096899","-1.107764","-0.18064","-0.174658","-0.028711","0.014355","-0.175854","-0.18064"
"M","1617446165.1399648","7","48","36","20","25","58","0.662781","-0.06366","-0.742249","-0.075378","0","0","-0.015267","9.52605","0.108862","-1.102978","-0.209351","-0.160303","-0.023926","0.015552","-0.160303","-0.209351"
"M","1617446165.1297653","7","39","35","17","23","58","0.662781","-0.06366","-0.742249","-0.075378","-0.007634","0","-0.007634","9.510498","0.141162","-1.091016","-0.224902","-0.128003","-0.011963","0.011963","-0.12561","-0.224902"
"M","1617446165.1197808","7","42","35","18","20","58","0.662781","-0.06366","-0.74231","-0.075378","-0.007634","0","0","9.49375","0.184229","-1.088623","-0.242847","-0.084937","-0.008374","0.019141","-0.082544","-0.24165"
"M","1617446165.1098323","7","40","33","20","22","57","0.662781","-0.063538","-0.74231","-0.075439","-0.007634","0","0","9.471021","0.214136","-1.091016","-0.265576","-0.057422","-0.011963","0.029907","-0.056226","-0.263184"
"M","1617446165.0989442","7","40","37","21","23","58","0.662781","-0.063416","-0.74231","-0.0755","-0.007634","0","0","9.442309","0.248828","-1.092212","-0.294287","-0.025122","-0.013159","0.040674","-0.025122","-0.290698"
"M","1617446165.0891376","7","40","36","18","20","57","0.66272","-0.063354","-0.742371","-0.075562","0","0","0","9.418384","0.257202","-1.095801","-0.318213","-0.019141","-0.015552","0.046655","-0.019141","-0.314624"
"M","1617446165.0798757","7","40","36","20","25","58","0.662598","-0.063293","-0.742432","-0.075684","0","0.007634","0","9.411206","0.265576","-1.102978","-0.324194","-0.013159","-0.020337","0.053833","-0.014355","-0.319409"
"M","1617446165.0697818","7","39","32","15","25","57","0.662476","-0.063293","-0.742554","-0.075745","0","0.007634","0","9.400439","0.275146","-1.104175","-0.334961","-0.004785","-0.017944","0.053833","-0.005981","-0.330176"
"M","1617446165.0598345","7","43","37","19","25","58","0.662354","-0.063293","-0.742676","-0.075867","0","0.007634","0","9.38728","0.283521","-1.112549","-0.34812","0","-0.022729","0.061011","-0.001196","-0.342139"
"M","1617446165.0499594","7","41","36","18","23","58","0.662231","-0.063293","-0.742798","-0.075989","0","0.007634","0","9.378906","0.288306","-1.123315","-0.356494","0.002393","-0.031104","0.070581","-0.001196","-0.350513"
"M","1617446165.0398855","7","40","33","21","22","58","0.662048","-0.063232","-0.742859","-0.076111","0","0.007634","0","9.368139","0.303857","-1.128101","-0.364868","0.015552","-0.0323","0.076563","0.010767","-0.35769"
"M","1617446165.0297797","7","41","33","20","25","57","0.661987","-0.063171","-0.742981","-0.076172","-0.007634","0","0.007634","9.353785","0.328979","-1.125708","-0.38042","0.038281","-0.027515","0.077759","0.034692","-0.373242"
"M","1617446165.0198472","7","40","36","16","20","57","0.661926","-0.06311","-0.742981","-0.076233","-0.007634","0","0","9.352588","0.345728","-1.123315","-0.38042","0.053833","-0.025122","0.078955","0.050244","-0.373242"
"M","1617446165.0098217","7","40","33","18","23","57","0.661865","-0.063049","-0.743042","-0.076233","0","0","0","9.368139","0.33855","-1.111353","-0.364868","0.045459","-0.010767","0.061011","0.044263","-0.358887"
"M","1617446164.999838","7","41","37","27","25","58","0.661804","-0.063049","-0.743103","-0.076294","0","0","0","9.382495","0.325391","-1.102978","-0.350513","0.031104","-0.001196","0.047852","0.0323","-0.346924"
"M","1617446164.989887","7","41","35","18","22","58","0.661743","-0.06311","-0.743164","-0.076294","0","0","-0.007634","9.407618","0.317017","-1.100586","-0.325391","0.023926","0.002393","0.039478","0.025122","-0.321802"
"M","1617446164.979947","7","42","36","17","25","66","0.661743","-0.063171","-0.743164","-0.076294","0","0","-0.007634","9.420776","0.305054","-1.098193","-0.312231","0.011963","0.004785","0.033496","0.014355","-0.309839"
"M","1617446164.9697492","7","40","37","20","25","58","0.661743","-0.063232","-0.743164","-0.076233","0","-0.007634","-0.007634","9.431543","0.295483","-1.098193","-0.301465","0.004785","0.004785","0.031104","0.007178","-0.299072"
"M","1617446164.960098","7","41","36","20","24","58","0.661743","-0.063293","-0.743164","-0.076233","0","-0.007634","-0.007634","9.421972","0.259595","-1.105371","-0.311035","-0.028711","-0.001196","0.031104","-0.025122","-0.308643"
"M","1617446164.949828","7","39","33","19","25","56","0.661804","-0.063293","-0.743103","-0.076233","0","-0.007634","-0.007634","9.402832","0.238062","-1.112549","-0.330176","-0.050244","-0.010767","0.038281","-0.049048","-0.327783"
"M","1617446164.9402356","7","41","36","17","22","58","0.661926","-0.063293","-0.743042","-0.076233","-0.007634","-0.007634","-0.007634","9.400439","0.234473","-1.112549","-0.333765","-0.053833","-0.013159","0.040674","-0.052637","-0.331372"
"M","1617446164.930096","7","39","31","18","25","57","0.661987","-0.063232","-0.74292","-0.076233","-0.007634","-0.007634","-0.007634","9.411206","0.224902","-1.107764","-0.321802","-0.0646","-0.010767","0.034692","-0.062207","-0.319409"
"M","1617446164.9198115","7","38","36","20","25","58","0.662048","-0.063232","-0.74292","-0.076172","-0.007634","0","-0.007634","9.445898","0.224902","-1.10896","-0.288306","-0.063403","-0.011963","0.0323","-0.062207","-0.285913"
"M","1617446164.9098766","7","41","33","20","23","58","0.661987","-0.06311","-0.742981","-0.076111","-0.007634","0","0","9.477002","0.236865","-1.09939","-0.257202","-0.052637","-0.001196","0.020337","-0.049048","-0.256006"
"M","1617446164.8998003","7","40","36","19","24","58","0.661987","-0.062988","-0.742981","-0.07605","-0.015267","0","0","9.496142","0.25481","-1.091016","-0.236865","-0.034692","0.005981","0.014355","-0.031104","-0.236865"
"M","1617446164.8898058","7","42","35","18","23","58","0.661987","-0.062866","-0.742981","-0.07605","-0.015267","-0.007634","0","9.503321","0.265576","-1.089819","-0.229687","-0.025122","0.007178","0.014355","-0.021533","-0.229687"
"M","1617446164.8798456","7","42","37","19","25","58","0.662048","-0.062683","-0.74292","-0.075989","-0.007634","-0.015267","0","9.488965","0.269165","-1.091016","-0.244043","-0.023926","0.003589","0.019141","-0.020337","-0.242847"
"M","1617446164.869873","7","41","35","20","24","58","0.662231","-0.062561","-0.742859","-0.07605","0","-0.022901","0","9.454272","0.269165","-1.09939","-0.279932","-0.025122","-0.007178","0.033496","-0.022729","-0.277539"
"M","1617446164.8598764","7","40","37","18","23","58","0.662415","-0.062561","-0.742676","-0.076111","0.007634","-0.015267","0","9.425562","0.246436","-1.110156","-0.309839","-0.049048","-0.022729","0.047852","-0.049048","-0.30625"
"M","1617446164.850313","7","40","37","20","25","58","0.662537","-0.062561","-0.742493","-0.076355","0.007634","-0.007634","0","9.450684","0.229687","-1.113745","-0.284717","-0.068188","-0.031104","0.049048","-0.070581","-0.281128"
"M","1617446164.8398917","7","41","36","20","22","58","0.662598","-0.0625","-0.742432","-0.076538","0","-0.007634","0","9.502124","0.250024","-1.09939","-0.233276","-0.05144","-0.019141","0.034692","-0.05144","-0.230884"
"M","1617446164.8300593","7","41","33","17","22","56","0.662659","-0.062439","-0.742371","-0.07666","0","-0.007634","0","9.542798","0.285913","-1.075464","-0.192603","-0.017944","0.002393","0.015552","-0.014355","-0.191406"
"M","1617446164.8198647","7","39","36","18","22","58","0.662659","-0.062317","-0.742371","-0.076782","-0.007634","-0.007634","0","9.565527","0.314624","-1.050342","-0.169873","0.005981","0.027515","-0.005981","0.011963","-0.171069"
"M","1617446164.8101516","7","39","35","18","23","57","0.66272","-0.062195","-0.742371","-0.076843","-0.007634","-0.007634","0","9.564331","0.334961","-1.043164","-0.171069","0.023926","0.033496","-0.008374","0.031104","-0.172266"
"M","1617446164.7999885","7","43","35","17","24","58","0.66272","-0.062134","-0.74231","-0.076904","0","-0.007634","0","9.570312","0.345728","-1.035986","-0.165088","0.033496","0.039478","-0.013159","0.04187","-0.166284"
"M","1617446164.789859","7","40","36","19","22","58","0.662781","-0.062073","-0.742249","-0.076965","0","-0.007634","0","9.56792","0.349316","-1.033594","-0.16748","0.035889","0.039478","-0.011963","0.044263","-0.168677"
"M","1617446164.779951","7","41","33","20","24","58","0.662903","-0.062073","-0.742188","-0.077026","0","-0.015267","0","9.551172","0.334961","-1.041968","-0.185425","0.020337","0.028711","-0.002393","0.026318","-0.186621"
"M","1617446164.7699225","7","43","36","22","24","58","0.663025","-0.062134","-0.742065","-0.077087","0.007634","-0.015267","-0.007634","9.527246","0.322998","-1.059912","-0.209351","0.008374","0.007178","0.017944","0.010767","-0.208154"
"M","1617446164.7600825","7","43","33","20","24","58","0.663147","-0.062256","-0.741943","-0.077148","0","-0.015267","-0.007634","9.521265","0.317017","-1.073071","-0.215332","0.003589","-0.008374","0.0323","0.003589","-0.211743"
"M","1617446164.749894","7","40","37","21","20","58","0.663208","-0.062317","-0.741821","-0.077271","0","-0.007634","-0.007634","9.515284","0.322998","-1.074268","-0.221313","0.008374","-0.011963","0.037085","0.007178","-0.217725"
"M","1617446164.7401538","7","43","37","20","24","58","0.66333","-0.062378","-0.741699","-0.077271","0","-0.007634","-0.007634","9.517675","0.343335","-1.064697","-0.218921","0.029907","-0.005981","0.035889","0.029907","-0.215332"
"M","1617446164.729843","7","43","36","21","23","58","0.66333","-0.062439","-0.741699","-0.077271","-0.007634","0","-0.007634","9.52605","0.358887","-1.053931","-0.210547","0.046655","0.004785","0.027515","0.047852","-0.208154"
"M","1617446164.7198546","7","41","36","24","24","59","0.663269","-0.062439","-0.74176","-0.077209","-0.007634","0.007634","-0.007634","9.534424","0.37085","-1.050342","-0.202173","0.059814","0.00957","0.023926","0.062207","-0.19978"
"M","1617446164.71","7","39","35","18","25","58","0.663208","-0.0625","-0.741821","-0.077087","-0.007634","0.007634","-0.007634","9.532031","0.381616","-1.038379","-0.204565","0.072974","0.023926","0.013159","0.077759","-0.203369"
"M","1617446164.700108","7","40","37","18","24","58","0.663147","-0.062561","-0.741882","-0.076965","-0.007634","0.007634","-0.007634","9.523657","0.375635","-1.033594","-0.212939","0.069385","0.029907","0.007178","0.075366","-0.211743"
"M","1617446164.6898696","7","41","37","20","25","58","0.663025","-0.062622","-0.742004","-0.076904","-0.007634","0","-0.007634","9.503321","0.366064","-1.049145","-0.233276","0.061011","0.017944","0.020337","0.0646","-0.230884"
"M","1617446164.6800754","7","43","36","20","23","57","0.662964","-0.062744","-0.742065","-0.076782","0","0","-0.015267","9.460254","0.35769","-1.06709","-0.276343","0.056226","0.002393","0.039478","0.057422","-0.272754"
"M","1617446164.6699271","7","41","33","17","24","57","0.662903","-0.062927","-0.742065","-0.07666","0","0","-0.015267","9.417188","0.337354","-1.091016","-0.318213","0.039478","-0.019141","0.062207","0.037085","-0.312231"
"M","1617446164.6599998","7","39","33","18","23","58","0.662903","-0.06311","-0.742126","-0.076599","0","0","-0.015267","9.396851","0.320605","-1.113745","-0.339746","0.026318","-0.040674","0.082544","0.020337","-0.331372"
"M","1617446164.6501431","7","39","34","21","23","56","0.662842","-0.063232","-0.742126","-0.076538","-0.007634","0.007634","-0.015267","9.411206","0.311035","-1.117334","-0.324194","0.019141","-0.043066","0.081348","0.011963","-0.31582"
"M","1617446164.6400812","7","41","33","26","25","58","0.66272","-0.063354","-0.742249","-0.076355","-0.007634","0.015267","-0.015267","9.439917","0.301465","-1.104175","-0.295483","0.013159","-0.026318","0.061011","0.00957","-0.289502"
"M","1617446164.6301696","7","40","33","20","24","58","0.662598","-0.063599","-0.742371","-0.076111","0","0.015267","-0.022901","9.466235","0.267969","-1.105371","-0.269165","-0.013159","-0.023926","0.050244","-0.015552","-0.26438"
"M","1617446164.6199718","7","43","37","20","23","57","0.662415","-0.063904","-0.742554","-0.075928","0","0.015267","-0.022901","9.479395","0.233276","-1.094604","-0.256006","-0.04187","-0.007178","0.027515","-0.040674","-0.253613"
"M","1617446164.6100152","7","42","38","18","25","58","0.662292","-0.064148","-0.742676","-0.075745","-0.007634","0.007634","-0.022901","9.474609","0.204565","-1.082642","-0.260791","-0.0646","0.007178","0.00957","-0.059814","-0.260791"
"M","1617446164.5999346","7","41","33","20","23","56","0.662109","-0.064331","-0.742798","-0.075562","-0.007634","0.007634","-0.022901","9.461451","0.204565","-1.082642","-0.272754","-0.059814","0.011963","0.007178","-0.055029","-0.272754"
"M","1617446164.589998","7","38","35","20","24","56","0.662048","-0.064453","-0.74292","-0.075317","-0.007634","0","-0.015267","9.437525","0.216528","-1.091016","-0.29668","-0.043066","0.007178","0.017944","-0.039478","-0.295483"
"M","1617446164.5802026","7","42","39","22","24","58","0.661987","-0.064514","-0.742981","-0.075073","-0.007634","0","-0.015267","9.420776","0.215332","-1.101782","-0.313428","-0.040674","0","0.027515","-0.038281","-0.312231"
"M","1617446164.5701156","7","43","35","18","25","58","0.661926","-0.064575","-0.743042","-0.07489","-0.007634","0","-0.015267","9.415991","0.212939","-1.107764","-0.318213","-0.039478","-0.004785","0.033496","-0.038281","-0.31582"
"M","1617446164.560261","7","38","36","20","24","58","0.661865","-0.064636","-0.743103","-0.074707","-0.007634","0","-0.015267","9.398046","0.208154","-1.113745","-0.336157","-0.040674","-0.008374","0.038281","-0.039478","-0.333765"
"M","1617446164.549986","7","42","37","17","25","58","0.661804","-0.064697","-0.743164","-0.074585","-0.007634","0.007634","-0.015267","9.388476","0.19978","-1.128101","-0.345728","-0.046655","-0.020337","0.050244","-0.047852","-0.342139"
"M","1617446164.5399797","7","38","35","20","24","56","0.661682","-0.064819","-0.743225","-0.074402","0","0.007634","-0.015267","9.398046","0.191406","-1.142456","-0.334961","-0.05144","-0.0323","0.059814","-0.055029","-0.330176"
"M","1617446164.5300825","7","40","37","17","23","57","0.661621","-0.065002","-0.743347","-0.074341","0.007634","0.007634","-0.015267","9.398046","0.14834","-1.162793","-0.336157","-0.090918","-0.050244","0.069385","-0.098096","-0.330176"
"M","1617446164.5201614","7","41","36","20","24","58","0.661499","-0.065247","-0.743408","-0.074341","0","0.007634","-0.015267","9.404028","0.128003","-1.17356","-0.328979","-0.108862","-0.057422","0.071777","-0.117236","-0.321802"
"M","1617446164.5107837","7","41","33","15","23","58","0.661377","-0.065369","-0.743469","-0.074341","0","0.007634","-0.015267","9.427954","0.126807","-1.184326","-0.303857","-0.108862","-0.065796","0.077759","-0.118433","-0.29668"
"M","1617446164.500173","7","40","35","20","25","58","0.661255","-0.065552","-0.743591","-0.07428","0","0.007634","-0.015267","9.456665","0.12561","-1.181934","-0.275146","-0.10647","-0.059814","0.069385","-0.114844","-0.267969"
"M","1617446164.4901848","7","42","33","-7","23","58","0.661133","-0.065674","-0.743652","-0.07428","0","0.007634","-0.015267","9.480591","0.122021","-1.177148","-0.251221","-0.108862","-0.052637","0.058618","-0.11604","-0.245239"
"M","1617446164.4799268","7","43","36","20","24","58","0.661011","-0.065796","-0.743774","-0.07428","0","0.007634","-0.015267","9.494946","0.114844","-1.175952","-0.236865","-0.114844","-0.047852","0.05144","-0.120825","-0.23208"
"M","1617446164.4702516","7","43","35","20","24","56","0.660889","-0.065918","-0.743896","-0.07428","0","0.007634","-0.007634","9.504517","0.126807","-1.162793","-0.227295","-0.101685","-0.031104","0.037085","-0.105273","-0.223706"
"M","1617446164.4601998","7","42","36","18","23","58","0.660767","-0.065979","-0.743958","-0.074341","0","0.007634","-0.007634","9.516479","0.153125","-1.140064","-0.214136","-0.075366","-0.005981","0.015552","-0.07417","-0.212939"
"M","1617446164.4500315","7","40","37","18","23","58","0.660706","-0.065979","-0.74408","-0.074341","0","0","0","9.499731","0.174658","-1.140064","-0.23208","-0.055029","-0.003589","0.019141","-0.053833","-0.230884"
"M","1617446164.4401095","7","43","35","19","25","58","0.660706","-0.065979","-0.74408","-0.074463","0","-0.007634","0","9.466235","0.191406","-1.15083","-0.265576","-0.039478","-0.014355","0.037085","-0.040674","-0.261987"
"M","1617446164.4308348","7","41","36","19","25","58","0.660767","-0.065918","-0.744019","-0.074524","0","-0.007634","0","9.443506","0.204565","-1.156811","-0.288306","-0.027515","-0.021533","0.049048","-0.031104","-0.283521"
"M","1617446164.4207387","7","41","33","20","25","57","0.660828","-0.065918","-0.743896","-0.074585","0.007634","-0.007634","-0.007634","9.443506","0.206958","-1.153223","-0.287109","-0.026318","-0.021533","0.049048","-0.029907","-0.282324"
"M","1617446164.4100726","7","39","36","19","25","58","0.660889","-0.06604","-0.743835","-0.074707","0.007634","0","-0.007634","9.450684","0.191406","-1.142456","-0.281128","-0.04187","-0.011963","0.035889","-0.043066","-0.278735"
"M","1617446164.400143","7","43","33","20","23","57","0.660889","-0.066162","-0.743835","-0.074768","0.007634","0","-0.007634","9.473413","0.191406","-1.120923","-0.258398","-0.040674","0.008374","0.013159","-0.037085","-0.258398"
"M","1617446164.3900197","7","40","34","20","24","57","0.660889","-0.066284","-0.743774","-0.074829","0.007634","0","-0.007634","9.480591","0.198584","-1.100586","-0.250024","-0.033496","0.027515","-0.003589","-0.026318","-0.251221"
"M","1617446164.3801773","7","42","37","19","24","58","0.660889","-0.066467","-0.743774","-0.07489","0","0","-0.007634","9.499731","0.191406","-1.07666","-0.23208","-0.038281","0.052637","-0.031104","-0.026318","-0.236865"
"M","1617446164.370854","7","41","37","20","24","58","0.660828","-0.066589","-0.743835","-0.074951","0","0","-0.007634","9.512891","0.19978","-1.051538","-0.218921","-0.029907","0.078955","-0.056226","-0.013159","-0.226099"
"M","1617446164.3607874","7","44","35","20","24","57","0.660706","-0.06665","-0.743896","-0.074951","0","0","-0.007634","9.514087","0.208154","-1.040771","-0.216528","-0.021533","0.092114","-0.068188","-0.002393","-0.226099"
"M","1617446164.3507547","7","41","35","20","20","57","0.660645","-0.06665","-0.743958","-0.074951","-0.007634","-0.007634","0","9.491358","0.209351","-1.061108","-0.239258","-0.020337","0.07417","-0.047852","-0.004785","-0.246436"
"M","1617446164.3408031","7","41","35","21","25","55","0.660645","-0.06665","-0.744019","-0.07489","-0.007634","-0.007634","0","9.456665","0.22251","-1.088623","-0.275146","-0.005981","0.046655","-0.013159","0.002393","-0.278735"
"M","1617446164.3310568","7","40","38","18","24","57","0.660645","-0.066589","-0.744019","-0.074829","-0.007634","-0.007634","0","9.415991","0.220117","-1.137671","-0.314624","-0.008374","-0.001196","0.035889","-0.008374","-0.312231"
"M","1617446164.3208494","7","41","35","21","25","58","0.660645","-0.066528","-0.743958","-0.074768","-0.007634","0","-0.007634","9.417188","0.215332","-1.189111","-0.313428","-0.013159","-0.052637","0.084937","-0.022729","-0.305054"
"M","1617446164.3107772","7","41","36","19","25","58","0.660645","-0.066528","-0.744019","-0.074707","-0.007634","0.007634","-0.007634","9.454272","0.206958","-1.222607","-0.276343","-0.020337","-0.086133","0.112451","-0.037085","-0.26438"
"M","1617446164.3007507","7","40","39","19","24","58","0.660522","-0.066589","-0.744141","-0.074707","0","0.007634","-0.007634","9.492554","0.187817","-1.238159","-0.238062","-0.039478","-0.098096","0.114844","-0.057422","-0.224902"
"M","1617446164.2907045","7","39","33","18","22","56","0.6604","-0.066772","-0.744263","-0.074646","0","0.015267","-0.015267","9.509302","0.18064","-1.236963","-0.221313","-0.043066","-0.093311","0.107666","-0.059814","-0.209351"
"M","1617446164.280841","7","43","36","19","23","58","0.660278","-0.066895","-0.744324","-0.074646","0","0.007634","-0.015267","9.523657","0.178247","-1.210644","-0.205762","-0.044263","-0.063403","0.076563","-0.056226","-0.197388"
"M","1617446164.2709022","7","40","33","18","25","58","0.660156","-0.067078","-0.744385","-0.074585","-0.007634","0.007634","-0.007634","9.532031","0.186621","-1.180737","-0.197388","-0.033496","-0.031104","0.046655","-0.038281","-0.192603"
"M","1617446164.260713","7","40","36","20","22","57","0.660095","-0.067078","-0.744446","-0.074524","-0.007634","0","-0.007634","9.521265","0.212939","-1.154419","-0.208154","-0.005981","-0.003589","0.026318","-0.005981","-0.205762"
"M","1617446164.25077","7","39","36","16","25","58","0.660156","-0.067017","-0.744446","-0.074463","-0.007634","-0.007634","-0.007634","9.496142","0.234473","-1.135278","-0.233276","0.014355","0.014355","0.015552","0.015552","-0.23208"
"M","1617446164.240811","7","40","37","20","-7","58","0.660217","-0.067017","-0.744385","-0.074402","-0.007634","-0.007634","-0.007634","9.465039","0.238062","-1.132886","-0.26438","0.019141","0.014355","0.020337","0.020337","-0.263184"
"M","1617446164.2310283","7","41","35","21","25","58","0.660339","-0.067017","-0.744324","-0.074341","0","-0.007634","-0.007634","9.439917","0.217725","-1.140064","-0.290698","0","0.004785","0.029907","0","-0.288306"
"M","1617446164.2208836","7","41","36","20","-4","57","0.6604","-0.067078","-0.744263","-0.074341","0","-0.007634","-0.007634","9.426758","0.196191","-1.148438","-0.303857","-0.019141","-0.003589","0.034692","-0.019141","-0.301465"
"M","1617446164.2109065","7","41","34","20","25","58","0.6604","-0.0672","-0.744202","-0.074341","0","-0.007634","-0.007634","9.413599","0.174658","-1.166382","-0.317017","-0.039478","-0.022729","0.05144","-0.043066","-0.312231"
"M","1617446164.2007356","7","42","35","20","22","58","0.660461","-0.067322","-0.744141","-0.074402","0","0","-0.007634","9.412402","0.168677","-1.172363","-0.318213","-0.044263","-0.029907","0.057422","-0.049048","-0.313428"
"M","1617446164.1908205","7","40","33","21","24","58","0.660461","-0.067322","-0.744141","-0.074341","-0.007634","0","-0.007634","9.431543","0.183032","-1.168774","-0.299072","-0.028711","-0.026318","0.055029","-0.033496","-0.294287"
"M","1617446164.1808152","7","39","24","18","25","58","0.6604","-0.067322","-0.744202","-0.07428","-0.015267","0","-0.007634","9.453076","0.203369","-1.165186","-0.277539","-0.008374","-0.020337","0.050244","-0.011963","-0.272754"
"M","1617446164.170907","7","41","38","19","25","58","0.660339","-0.0672","-0.744263","-0.074158","-0.015267","0","-0.007634","9.471021","0.212939","-1.156811","-0.258398","0","-0.010767","0.040674","-0.002393","-0.25481"
"M","1617446164.1609807","7","42","35","18","24","58","0.660339","-0.067078","-0.744324","-0.074036","-0.015267","0","-0.007634","9.465039","0.210547","-1.153223","-0.265576","-0.001196","-0.005981","0.037085","-0.002393","-0.261987"
"M","1617446164.1509058","7","40","36","16","22","57","0.660339","-0.067017","-0.744324","-0.073853","-0.015267","-0.007634","-0.007634","9.463842","0.200977","-1.159204","-0.265576","-0.008374","-0.011963","0.040674","-0.010767","-0.261987"
"M","1617446164.1409526","7","39","36","17","24","57","0.6604","-0.066956","-0.744263","-0.07373","-0.007634","-0.007634","-0.007634","9.459058","0.173462","-1.156811","-0.270361","-0.034692","-0.010767","0.034692","-0.035889","-0.266772"
"M","1617446164.130958","7","40","36","16","25","57","0.660461","-0.066956","-0.744263","-0.073669","-0.007634","-0.007634","-0.007634","9.456665","0.154321","-1.156811","-0.27395","-0.052637","-0.011963","0.033496","-0.053833","-0.271558"
"M","1617446164.1208687","7","39","32","19","25","58","0.660522","-0.066956","-0.744202","-0.073608","-0.007634","-0.007634","-0.007634","9.432739","0.160303","-1.158008","-0.297876","-0.045459","-0.014355","0.039478","-0.047852","-0.294287"
"M","1617446164.1109867","7","39","36","20","22","57","0.660645","-0.066956","-0.74408","-0.073547","-0.007634","-0.007634","-0.007634","9.427954","0.177051","-1.154419","-0.302661","-0.027515","-0.014355","0.044263","-0.029907","-0.299072"
"M","1617446164.1009543","7","40","36","20","22","57","0.660767","-0.066895","-0.744019","-0.073486","-0.007634","-0.007634","-0.007634","9.445898","0.178247","-1.146045","-0.285913","-0.026318","-0.008374","0.035889","-0.027515","-0.282324"
"M","1617446164.0908964","7","42","36","19","23","58","0.660828","-0.066895","-0.743958","-0.073486","-0.007634","-0.007634","-0.007634","9.471021","0.189014","-1.129297","-0.260791","-0.015552","0.005981","0.021533","-0.014355","-0.259595"
"M","1617446164.0808935","7","40","34","18","23","56","0.660828","-0.066895","-0.743958","-0.073425","-0.007634","-0.007634","-0.007634","9.496142","0.210547","-1.107764","-0.235669","0.005981","0.027515","0.001196","0.00957","-0.236865"
"M","1617446164.070855","7","41","37","21","25","55","0.660889","-0.066895","-0.743896","-0.073303","-0.007634","0","-0.007634","9.512891","0.221313","-1.095801","-0.218921","0.017944","0.037085","-0.005981","0.023926","-0.221313"
"M","1617446164.0610142","7","41","35","18","24","57","0.660889","-0.066895","-0.743896","-0.073242","0","0","-0.007634","9.532031","0.204565","-1.09939","-0.19978","0.002393","0.033496","-0.008374","0.008374","-0.202173"
"M","1617446164.050938","7","42","35","20","24","58","0.660828","-0.067017","-0.743958","-0.073242","0","0","-0.007634","9.548779","0.19021","-1.092212","-0.183032","-0.00957","0.043066","-0.021533","-0.001196","-0.186621"
"M","1617446164.0410025","7","39","33","20","20","57","0.660828","-0.067139","-0.743958","-0.073242","0","-0.007634","-0.007634","9.520068","0.178247","-1.091016","-0.211743","-0.019141","0.044263","-0.021533","-0.00957","-0.215332"
"M","1617446164.031","7","41","36","19","23","58","0.660828","-0.0672","-0.743896","-0.073303","0","-0.007634","-0.007634","9.492554","0.18064","-1.104175","-0.238062","-0.016748","0.029907","-0.003589","-0.010767","-0.239258"
"M","1617446164.0209806","7","41","36","20","25","56","0.660889","-0.067261","-0.743835","-0.073364","0","-0.007634","-0.007634","9.484179","0.192603","-1.114941","-0.247632","-0.004785","0.017944","0.00957","-0.001196","-0.247632"
"M","1617446164.010808","7","44","35","21","23","58","0.660889","-0.067261","-0.743835","-0.073364","-0.007634","0","0","9.484179","0.218921","-1.119727","-0.247632","0.020337","0.013159","0.019141","0.021533","-0.246436"
"M","1617446164.0009744","7","39","35","17","25","58","0.660889","-0.0672","-0.743896","-0.073364","-0.007634","0","0","9.498535","0.24165","-1.124512","-0.233276","0.04187","0.00957","0.026318","0.04187","-0.230884"
"M","1617446163.990828","7","40","35","19","18","56","0.660889","-0.067139","-0.743896","-0.073303","-0.007634","0","-0.007634","9.499731","0.250024","-1.126904","-0.23208","0.050244","0.007178","0.029907","0.049048","-0.229687"
"M","1617446163.9808528","7","40","36","19","23","58","0.660828","-0.067139","-0.743958","-0.073181","-0.007634","0","-0.007634","9.494946","0.242847","-1.131689","-0.236865","0.044263","0.003589","0.0323","0.043066","-0.234473"
"M","1617446163.97107","7","23","33","20","20","58","0.660767","-0.0672","-0.743958","-0.07312","-0.007634","0","-0.007634","9.478198","0.235669","-1.134082","-0.252417","0.039478","0.002393","0.034692","0.038281","-0.250024"
"M","1617446163.9609027","7","39","36","18","25","58","0.660767","-0.067322","-0.744019","-0.072998","-0.007634","0","-0.015267","9.471021","0.223706","-1.131689","-0.260791","0.029907","0.005981","0.029907","0.028711","-0.258398"
"M","1617446163.950914","7","39","33","17","24","58","0.660706","-0.067444","-0.74408","-0.072876","-0.007634","0","-0.015267","9.466235","0.214136","-1.122119","-0.265576","0.023926","0.017944","0.017944","0.025122","-0.26438"
"M","1617446163.9409857","7","39","34","16","24","57","0.660645","-0.067627","-0.74408","-0.072693","0","0.007634","-0.022901","9.461451","0.203369","-1.101782","-0.269165","0.017944","0.039478","-0.002393","0.023926","-0.270361"
"M","1617446163.931074","7","39","35","19","25","58","0.660583","-0.067871","-0.744141","-0.07251","0","0","-0.015267","9.45188","0.175854","-1.086231","-0.278735","-0.002393","0.057422","-0.022729","0.007178","-0.283521"
"M","1617446163.9208562","7","40","33","17","22","58","0.660522","-0.068054","-0.744202","-0.072327","-0.007634","0","-0.015267","9.448291","0.150732","-1.082642","-0.282324","-0.022729","0.063403","-0.0323","-0.010767","-0.287109"
"M","1617446163.9109228","7","38","33","20","23","56","0.660461","-0.068176","-0.744263","-0.072205","-0.007634","0","-0.015267","9.437525","0.151929","-1.079053","-0.293091","-0.017944","0.068188","-0.034692","-0.004785","-0.299072"
"M","1617446163.900929","7","38","33","20","23","58","0.6604","-0.068298","-0.744324","-0.07196","-0.007634","0","-0.015267","9.420776","0.159106","-1.088623","-0.309839","-0.005981","0.061011","-0.022729","0.003589","-0.314624"
"M","1617446163.891035","7","38","36","20","25","58","0.660339","-0.068359","-0.744385","-0.071777","-0.007634","0.007634","-0.015267","9.413599","0.155518","-1.101782","-0.31582","-0.005981","0.050244","-0.011963","0.001196","-0.319409"
"M","1617446163.8811188","7","41","36","20","25","58","0.660217","-0.06842","-0.744507","-0.071533","-0.007634","0.007634","-0.015267","9.407618","0.143555","-1.113745","-0.321802","-0.014355","0.04187","-0.004785","-0.007178","-0.324194"
"M","1617446163.8711123","7","42","37","19","24","58","0.660095","-0.068542","-0.744629","-0.07135","-0.007634","0.007634","-0.015267","9.38728","0.126807","-1.14126","-0.342139","-0.027515","0.017944","0.016748","-0.025122","-0.342139"
"M","1617446163.8611138","7","39","37","18","22","58","0.659973","-0.068726","-0.744751","-0.071167","0","0.007634","-0.015267","9.369336","0.10647","-1.168774","-0.360083","-0.043066","-0.004785","0.038281","-0.045459","-0.356494"
"M","1617446163.8509414","7","39","35","20","22","56","0.659851","-0.06897","-0.744812","-0.071045","0","0.007634","-0.015267","9.350195","0.07417","-1.197485","-0.378027","-0.070581","-0.029907","0.059814","-0.077759","-0.372046"
"M","1617446163.8408794","7","41","37","19","20","59","0.659729","-0.069214","-0.744934","-0.070984","0","0.007634","-0.015267","9.343018","0.033496","-1.23457","-0.385205","-0.107666","-0.063403","0.086133","-0.120825","-0.375635"
"M","1617446163.831157","7","41","33","20","24","58","0.659607","-0.069458","-0.745056","-0.070923","0","0.007634","-0.015267","9.351392","0.007178","-1.271655","-0.376831","-0.130396","-0.096899","0.113647","-0.149536","-0.363672"
"M","1617446163.820982","7","41","33","17","22","58","0.659485","-0.06958","-0.745117","-0.070801","-0.007634","0.007634","-0.015267","9.35498","0","-1.302759","-0.372046","-0.133984","-0.12561","0.139966","-0.159106","-0.355298"
"M","1617446163.8110745","7","39","35","17","25","58","0.659424","-0.069702","-0.745239","-0.07074","-0.007634","0.007634","-0.015267","9.360962","-0.011963","-1.319507","-0.367261","-0.143555","-0.13877","0.150732","-0.171069","-0.349316"
"M","1617446163.8017182","7","39","37","20","24","58","0.659363","-0.069824","-0.745239","-0.070618","-0.007634","0","-0.015267","9.371729","-0.025122","-1.33147","-0.355298","-0.153125","-0.149536","0.15791","-0.183032","-0.336157"
"M","1617446163.7917523","7","40","35","18","24","58","0.659363","-0.069946","-0.745239","-0.070435","-0.007634","0","-0.015267","9.388476","-0.027515","-1.338647","-0.33855","-0.151929","-0.156714","0.162695","-0.183032","-0.318213"
"M","1617446163.7817194","7","40","35","24","25","58","0.659485","-0.070007","-0.745178","-0.070312","-0.007634","-0.007634","-0.015267","9.400439","-0.038281","-1.325488","-0.327783","-0.160303","-0.145947","0.149536","-0.189014","-0.308643"
"M","1617446163.7710054","7","38","37","17","22","56","0.659607","-0.070129","-0.745056","-0.07019","0","-0.007634","-0.015267","9.429151","-0.050244","-1.30874","-0.299072","-0.16748","-0.131592","0.130396","-0.192603","-0.282324"
"M","1617446163.761047","7","41","33","18","22","58","0.659729","-0.070312","-0.744873","-0.070129","0.007634","-0.015267","-0.022901","9.435132","-0.077759","-1.286011","-0.293091","-0.191406","-0.113647","0.107666","-0.212939","-0.278735"
"M","1617446163.750897","7","42","36","20","22","56","0.659973","-0.070557","-0.74469","-0.070129","0.015267","-0.022901","-0.015267","9.426758","-0.108862","-1.263281","-0.302661","-0.218921","-0.095703","0.084937","-0.236865","-0.290698"
"M","1617446163.7411416","7","40","36","18","24","59","0.660217","-0.070862","-0.744385","-0.070251","0.015267","-0.022901","-0.015267","9.425562","-0.131592","-1.220215","-0.303857","-0.239258","-0.059814","0.046655","-0.250024","-0.29668"
"M","1617446163.730856","7","42","36","20","23","57","0.660522","-0.071045","-0.744141","-0.070496","0.007634","-0.022901","-0.007634","9.427954","-0.128003","-1.189111","-0.303857","-0.235669","-0.037085","0.023926","-0.24165","-0.299072"
"M","1617446163.4018877","7","40","37","19","21","57","0.658142","-0.066589","-0.746155","-0.0755","0","0","-0.007634","9.449488","0.206958","-1.254907","-0.27395","-0.037085","-0.055029","0.080151","-0.046655","-0.265576"
"M","1617446163.3920023","7","39","38","18","25","58","0.658142","-0.06665","-0.746094","-0.075562","0","0","-0.007634","9.455469","0.193799","-1.248926","-0.266772","-0.050244","-0.050244","0.071777","-0.058618","-0.259595"
"M","1617446163.3818462","7","39","35","19","25","57","0.658203","-0.06665","-0.746094","-0.075562","-0.007634","0","0","9.457861","0.202173","-1.248926","-0.265576","-0.04187","-0.05144","0.07417","-0.050244","-0.257202"
"M","1617446163.3718038","7","40","36","19","23","58","0.658203","-0.066528","-0.746094","-0.0755","-0.015267","-0.007634","0","9.463842","0.223706","-1.232178","-0.259595","-0.021533","-0.034692","0.061011","-0.027515","-0.253613"
"M","1617446163.3618507","7","39","34","18","22","56","0.658264","-0.066345","-0.746033","-0.075439","-0.015267","-0.007634","0","9.449488","0.251221","-1.214233","-0.272754","0.003589","-0.017944","0.05144","0","-0.267969"
"M","1617446163.3519728","7","41","36","17","23","58","0.658386","-0.066101","-0.745972","-0.075378","-0.015267","-0.007634","0","9.423169","0.276343","-1.209448","-0.300269","0.026318","-0.016748","0.058618","0.021533","-0.294287"
"M","1617446163.341885","7","39","32","17","23","57","0.658508","-0.065918","-0.745911","-0.075256","-0.015267","-0.007634","0","9.426758","0.295483","-1.202271","-0.29668","0.045459","-0.011963","0.056226","0.04187","-0.290698"
"M","1617446163.331989","7","38","36","19","23","58","0.658508","-0.065796","-0.745911","-0.075195","-0.007634","0","0","9.454272","0.294287","-1.191504","-0.269165","0.043066","-0.001196","0.04187","0.04187","-0.265576"
"M","1617446163.3218682","7","41","36","17","20","58","0.658508","-0.065796","-0.745911","-0.075134","0","0","-0.007634","9.487768","0.278735","-1.197485","-0.235669","0.028711","-0.007178","0.04187","0.026318","-0.23208"
"M","1617446163.3119483","7","41","35","17","25","56","0.658508","-0.065857","-0.745972","-0.075073","0","0","-0.007634","9.492554","0.248828","-1.210644","-0.23208","0","-0.019141","0.046655","-0.003589","-0.227295"
"M","1617446163.3019106","7","42","36","18","23","57","0.658508","-0.065918","-0.745911","-0.075073","-0.007634","-0.007634","-0.007634","9.485376","0.229687","-1.232178","-0.238062","-0.016748","-0.04187","0.065796","-0.023926","-0.230884"
"M","1617446163.2919292","7","39","36","19","25","58","0.658508","-0.065979","-0.745911","-0.075012","-0.007634","0","-0.007634","9.481787","0.227295","-1.226196","-0.24165","-0.016748","-0.034692","0.059814","-0.022729","-0.235669"
"M","1617446163.281776","7","40","33","18","25","57","0.658569","-0.065979","-0.745911","-0.074951","-0.007634","0","0","9.498535","0.217725","-1.220215","-0.226099","-0.026318","-0.029907","0.05144","-0.031104","-0.221313"
"M","1617446163.271921","7","39","36","19","23","58","0.658569","-0.065857","-0.745911","-0.07489","-0.015267","0","0","9.527246","0.22251","-1.203467","-0.197388","-0.021533","-0.013159","0.0323","-0.022729","-0.193799"
"M","1617446163.2620597","7","41","33","16","22","55","0.658508","-0.065796","-0.745972","-0.074829","-0.015267","0","0","9.560742","0.234473","-1.178345","-0.162695","-0.00957","0.011963","0.005981","-0.005981","-0.162695"
"M","1617446163.2519715","7","40","35","18","24","58","0.658508","-0.065735","-0.745972","-0.074707","-0.007634","0","-0.007634","9.545191","0.218921","-1.1604","-0.178247","-0.023926","0.029907","-0.010767","-0.016748","-0.18064"
"M","1617446163.2419164","7","40","36","17","23","58","0.658508","-0.065674","-0.745972","-0.074646","-0.007634","-0.007634","-0.007634","9.510498","0.205762","-1.138867","-0.212939","-0.037085","0.05144","-0.029907","-0.025122","-0.217725"
"M","1617446163.232199","7","41","35","18","21","58","0.658569","-0.065735","-0.745911","-0.074585","-0.007634","-0.007634","-0.007634","9.482984","0.203369","-1.114941","-0.240454","-0.038281","0.07417","-0.049048","-0.022729","-0.247632"
"M","1617446163.22178","7","41","33","19","22","58","0.65863","-0.065735","-0.745911","-0.074585","-0.007634","-0.007634","-0.007634","9.467432","0.206958","-1.096997","-0.257202","-0.034692","0.092114","-0.063403","-0.015552","-0.266772"
"M","1617446163.2120514","7","39","36","18","25","58","0.658569","-0.065735","-0.745911","-0.074524","-0.007634","-0.007634","-0.007634","9.454272","0.215332","-1.113745","-0.269165","-0.025122","0.075366","-0.044263","-0.00957","-0.276343"
"M","1617446163.2020092","7","41","35","16","21","57","0.658569","-0.065735","-0.745911","-0.074463","-0.007634","0","-0.007634","9.453076","0.227295","-1.124512","-0.270361","-0.011963","0.0646","-0.031104","0","-0.276343"
"M","1617446163.192034","7","41","36","19","24","57","0.658508","-0.065674","-0.746033","-0.074402","-0.007634","0","-0.007634","9.466235","0.228491","-1.140064","-0.258398","-0.010767","0.052637","-0.020337","0","-0.261987"
"M","1617446163.1819427","7","41","33","20","22","56","0.658447","-0.065613","-0.746094","-0.07428","-0.007634","0","-0.007634","9.448291","0.221313","-1.166382","-0.275146","-0.017944","0.027515","0.003589","-0.011963","-0.276343"
"M","1617446163.1719754","7","42","35","17","22","57","0.658386","-0.065674","-0.746155","-0.074219","-0.007634","0","-0.007634","9.418384","0.194995","-1.199878","-0.305054","-0.04187","-0.002393","0.031104","-0.040674","-0.302661"
"M","1617446163.161926","7","39","37","17","23","57","0.658386","-0.065735","-0.746155","-0.074097","-0.007634","0","-0.015267","9.394458","0.163892","-1.219019","-0.328979","-0.070581","-0.021533","0.047852","-0.072974","-0.325391"
"M","1617446163.151988","7","40","35","19","20","58","0.658386","-0.065857","-0.746155","-0.074036","0","0","-0.015267","9.395655","0.136377","-1.236963","-0.327783","-0.095703","-0.039478","0.059814","-0.101685","-0.321802"
"M","1617446163.14196","7","38","33","18","20","57","0.658325","-0.06604","-0.746216","-0.073975","0","0.007634","-0.015267","9.41958","0.111255","-1.241748","-0.303857","-0.118433","-0.04187","0.055029","-0.124414","-0.299072"
"M","1617446163.1319337","7","40","37","18","24","55","0.658203","-0.066223","-0.746277","-0.073975","0","0.007634","-0.015267","9.445898","0.118433","-1.230981","-0.277539","-0.108862","-0.028711","0.040674","-0.112451","-0.27395"
"M","1617446163.1219935","7","39","33","18","22","58","0.658081","-0.066345","-0.746338","-0.073975","0","0.007634","-0.007634","9.445898","0.139966","-1.223804","-0.276343","-0.086133","-0.019141","0.035889","-0.088525","-0.272754"
"M","1617446163.1119769","7","40","35","18","24","55","0.65802","-0.066406","-0.746399","-0.073975","-0.007634","0","-0.007634","9.449488","0.16748","-1.223804","-0.272754","-0.057422","-0.016748","0.038281","-0.059814","-0.269165"
"M","1617446163.101998","7","40","33","21","24","58","0.657959","-0.066345","-0.74646","-0.074036","-0.007634","0","0","9.465039","0.204565","-1.21543","-0.257202","-0.022729","-0.007178","0.034692","-0.023926","-0.25481"
"M","1617446163.0920155","7","42","36","17","25","57","0.657898","-0.066223","-0.746521","-0.074036","-0.007634","0","0","9.472217","0.23208","-1.204663","-0.250024","0.002393","0.003589","0.027515","0.002393","-0.247632"
"M","1617446163.0819695","7","42","33","16","25","58","0.657837","-0.066101","-0.746582","-0.073975","-0.007634","-0.007634","0","9.460254","0.245239","-1.207056","-0.260791","0.014355","0.002393","0.0323","0.013159","-0.258398"
"M","1617446163.0718803","7","40","35","20","25","58","0.657898","-0.06604","-0.746582","-0.073914","-0.007634","-0.007634","-0.007634","9.430346","0.24165","-1.202271","-0.291895","0.010767","0.007178","0.031104","0.010767","-0.289502"
"M","1617446163.0619645","7","41","36","20","20","58","0.657959","-0.06604","-0.746521","-0.073853","0","-0.015267","-0.007634","9.378906","0.209351","-1.21543","-0.343335","-0.019141","-0.007178","0.045459","-0.020337","-0.339746"
"M","1617446163.0521364","7","41","33","20","24","58","0.658081","-0.066162","-0.746399","-0.073853","0","-0.007634","-0.007634","9.371729","0.186621","-1.225","-0.350513","-0.039478","-0.019141","0.053833","-0.04187","-0.345728"
"M","1617446163.041929","7","40","33","17","25","58","0.658081","-0.066284","-0.746399","-0.073853","0","0","-0.015267","9.412402","0.173462","-1.232178","-0.309839","-0.05144","-0.026318","0.053833","-0.055029","-0.305054"
"M","1617446163.0320103","7","39","35","21","24","58","0.658081","-0.066467","-0.746399","-0.073853","0.007634","0.007634","-0.015267","9.454272","0.155518","-1.233374","-0.269165","-0.066992","-0.027515","0.046655","-0.070581","-0.26438"
"M","1617446163.022165","7","40","37","20","23","52","0.657959","-0.066711","-0.74646","-0.073914","0.007634","0","-0.015267","9.473413","0.131592","-1.241748","-0.248828","-0.088525","-0.033496","0.045459","-0.093311","-0.244043"
"M","1617446163.01211","7","40","29","18","23","58","0.657898","-0.066956","-0.74646","-0.074036","0.007634","0","-0.007634","9.471021","0.129199","-1.253711","-0.251221","-0.089722","-0.044263","0.056226","-0.096899","-0.245239"
"M","1617446163.001905","7","40","35","20","25","58","0.657898","-0.067017","-0.74646","-0.074158","0","-0.007634","0","9.461451","0.156714","-1.252515","-0.260791","-0.063403","-0.043066","0.061011","-0.070581","-0.25481"
"M","1617446162.9920926","7","41","35","21","25","58","0.657959","-0.066895","-0.746399","-0.074219","-0.015267","-0.007634","0.007634","9.459058","0.216528","-1.23457","-0.263184","-0.005981","-0.027515","0.057422","-0.010767","-0.257202"
"M","1617446162.981979","7","39","33","18","24","58","0.65802","-0.06665","-0.746399","-0.074219","-0.022901","-0.007634","0.007634","9.437525","0.27395","-1.213037","-0.284717","0.046655","-0.005981","0.050244","0.043066","-0.279932"
"M","1617446162.971898","7","38","36","20","25","58","0.658081","-0.066345","-0.746338","-0.074097","-0.015267","-0.007634","0.007634","9.41958","0.299072","-1.211841","-0.302661","0.070581","-0.007178","0.058618","0.066992","-0.29668"
"M","1617446162.9619858","7","41","33","18","20","58","0.658203","-0.066162","-0.746277","-0.073975","-0.007634","-0.007634","0","9.411206","0.287109","-1.202271","-0.312231","0.058618","0","0.050244","0.056226","-0.307446"
"M","1617446162.9521074","7","39","32","26","25","57","0.658203","-0.066101","-0.746277","-0.073914","0","0","0","9.432739","0.256006","-1.208252","-0.289502","0.027515","-0.005981","0.046655","0.025122","-0.284717"
"M","1617446162.9420433","7","43","36","15","23","58","0.658142","-0.066223","-0.746277","-0.073975","0.007634","0","-0.007634","9.456665","0.223706","-1.221411","-0.265576","-0.003589","-0.017944","0.049048","-0.007178","-0.260791"
"M","1617446162.931889","7","40","37","20","24","58","0.658081","-0.066345","-0.746338","-0.074036","0.007634","0","-0.007634","9.467432","0.19978","-1.236963","-0.25481","-0.026318","-0.0323","0.057422","-0.0323","-0.248828"
"M","1617446162.9301598","7","39","37","20","21","58","0.658081","-0.066528","-0.746338","-0.074158","0.007634","0","-0.007634","9.454272","0.183032","-1.258496","-0.267969","-0.043066","-0.053833","0.076563","-0.052637","-0.259595"
"M","1617446162.9289598","7","38","33","19","22","57","0.658081","-0.06665","-0.746338","-0.074219","0","-0.007634","0","9.435132","0.189014","-1.271655","-0.288306","-0.035889","-0.066992","0.093311","-0.047852","-0.277539"
"M","1617446162.9020708","7","40","35","21","21","53","0.658142","-0.066589","-0.746277","-0.07428","-0.007634","-0.007634","0","9.426758","0.209351","-1.268066","-0.29668","-0.017944","-0.0646","0.095703","-0.029907","-0.285913"
"M","1617446162.8920157","7","39","35","17","24","58","0.658142","-0.066406","-0.746277","-0.07428","-0.015267","-0.007634","0.007634","9.433935","0.239258","-1.262085","-0.288306","0.008374","-0.059814","0.095703","-0.003589","-0.277539"
"M","1617446162.882018","7","37","35","18","25","58","0.658264","-0.066162","-0.746216","-0.074219","-0.022901","-0.007634","0","9.435132","0.283521","-1.236963","-0.288306","0.05144","-0.037085","0.081348","0.04187","-0.279932"
"M","1617446162.8720434","7","41","36","18","22","57","0.658325","-0.065918","-0.746155","-0.074097","-0.015267","-0.007634","0","9.431543","0.294287","-1.221411","-0.291895","0.061011","-0.022729","0.069385","0.055029","-0.284717"
"M","1617446162.8620093","7","38","33","17","25","57","0.658386","-0.065796","-0.746155","-0.073975","-0.007634","-0.007634","-0.007634","9.438721","0.285913","-1.197485","-0.284717","0.052637","0","0.045459","0.050244","-0.281128"
"M","1617446162.8519769","7","41","33","18","22","58","0.658447","-0.065918","-0.746094","-0.073792","0","-0.007634","-0.015267","9.426758","0.242847","-1.179541","-0.29668","0.014355","0.015552","0.023926","0.016748","-0.295483"
"M","1617446162.8427465","7","40","37","20","22","57","0.658508","-0.066162","-0.746033","-0.073792","0.007634","-0.007634","-0.015267","9.418384","0.185425","-1.172363","-0.305054","-0.039478","0.021533","0.008374","-0.034692","-0.305054"
"M","1617446162.8320673","7","39","37","23","24","58","0.658569","-0.066406","-0.745972","-0.073853","0.007634","-0.007634","-0.015267","9.418384","0.156714","-1.161597","-0.30625","-0.065796","0.031104","-0.004785","-0.058618","-0.308643"
"M","1617446162.8219464","7","39","39","20","24","57","0.658569","-0.066589","-0.745911","-0.073914","0","-0.007634","-0.007634","9.407618","0.150732","-1.163989","-0.317017","-0.069385","0.027515","0","-0.062207","-0.319409"
"M","1617446162.812254","7","41","29","0","24","58","0.658569","-0.06665","-0.745911","-0.073914","-0.007634","-0.007634","-0.007634","9.412402","0.149536","-1.172363","-0.312231","-0.070581","0.019141","0.005981","-0.065796","-0.313428"
"M","1617446162.8029113","7","41","37","18","23","58","0.65863","-0.066589","-0.74585","-0.073914","-0.015267","-0.007634","0","9.411206","0.161499","-1.184326","-0.313428","-0.058618","0.005981","0.020337","-0.056226","-0.312231"
"M","1617446162.7928617","7","40","36","21","24","58","0.658691","-0.066467","-0.74585","-0.073853","-0.015267","-0.007634","0","9.386084","0.181836","-1.205859","-0.33855","-0.039478","-0.015552","0.049048","-0.04187","-0.334961"
"M","1617446162.7819622","7","40","36","18","25","58","0.658752","-0.066284","-0.745789","-0.07373","-0.007634","-0.007634","0","9.37771","0.18064","-1.233374","-0.346924","-0.040674","-0.045459","0.078955","-0.049048","-0.33855"
"M","1617446162.7723634","7","41","35","18","22","56","0.658813","-0.066162","-0.745789","-0.07373","-0.007634","-0.007634","0","9.396851","0.171069","-1.246533","-0.327783","-0.05144","-0.058618","0.087329","-0.062207","-0.318213"
"M","1617446162.7621198","7","40","36","18","24","58","0.658813","-0.066101","-0.745728","-0.07373","0","0","0","9.411206","0.174658","-1.238159","-0.313428","-0.049048","-0.05144","0.078955","-0.058618","-0.305054"
"M","1617446162.752303","7","38","32","18","24","54","0.658875","-0.066162","-0.745728","-0.073792","0","0","0","9.411206","0.172266","-1.230981","-0.314624","-0.05144","-0.045459","0.071777","-0.059814","-0.307446"
"M","1617446162.742212","7","36","33","18","24","58","0.658875","-0.066223","-0.745667","-0.073853","0.007634","-0.007634","0","9.430346","0.159106","-1.205859","-0.294287","-0.0646","-0.021533","0.044263","-0.066992","-0.290698"
"M","1617446162.732062","7","41","17","17","24","57","0.658936","-0.066223","-0.745605","-0.074036","0","-0.007634","0","9.441113","0.166284","-1.1927","-0.283521","-0.059814","-0.00957","0.0323","-0.059814","-0.281128"
"M","1617446162.7227356","7","40","35","17","24","57","0.658936","-0.066162","-0.745605","-0.074158","0","-0.007634","0.007634","9.463842","0.192603","-1.165186","-0.260791","-0.035889","0.016748","0.008374","-0.031104","-0.260791"
"M","1617446162.7129598","7","39","35","18","25","58","0.658997","-0.06604","-0.745544","-0.074341","-0.007634","-0.015267","0.007634","9.475805","0.236865","-1.143652","-0.250024","0.002393","0.035889","-0.003589","0.008374","-0.251221"
"M","1617446162.7020464","7","41","35","20","23","58","0.659119","-0.065796","-0.745422","-0.074463","-0.007634","-0.022901","0.015267","9.466235","0.266772","-1.148438","-0.259595","0.028711","0.027515","0.00957","0.033496","-0.259595"
"M","1617446162.6920192","7","38","35","18","22","57","0.659302","-0.065552","-0.7453","-0.074585","-0.007634","-0.022901","0.015267","9.457861","0.300269","-1.1604","-0.267969","0.057422","0.010767","0.0323","0.057422","-0.265576"
"M","1617446162.6821196","7","40","32","18","25","56","0.659546","-0.065308","-0.745056","-0.074768","-0.007634","-0.022901","0.015267","9.448291","0.312231","-1.177148","-0.278735","0.0646","-0.011963","0.057422","0.061011","-0.272754"
"M","1617446162.6722307","7","40","33","18","23","57","0.659851","-0.065125","-0.744873","-0.07489","-0.007634","-0.022901","0.007634","9.463842","0.320605","-1.166382","-0.26438","0.069385","-0.008374","0.052637","0.065796","-0.259595"
"M","1617446162.6626885","7","39","35","14","25","58","0.660034","-0.064941","-0.744629","-0.075012","-0.007634","-0.015267","0","9.502124","0.337354","-1.137671","-0.226099","0.082544","0.011963","0.031104","0.08374","-0.223706"
"M","1617446162.6527996","7","41","35","20","25","58","0.660217","-0.064819","-0.744507","-0.075012","-0.007634","-0.007634","0","9.547583","0.360083","-1.092212","-0.18064","0.104077","0.053833","-0.00957","0.112451","-0.181836"
"M","1617446162.6428435","7","41","33","18","22","58","0.660339","-0.064819","-0.744446","-0.074951","0","-0.007634","-0.007634","9.594238","0.364868","-1.047949","-0.135181","0.110059","0.095703","-0.055029","0.126807","-0.142358"
"M","1617446162.632796","7","39","32","20","22","58","0.660339","-0.065002","-0.744385","-0.074829","0.007634","-0.007634","-0.007634","9.630127","0.343335","-1.019238","-0.099292","0.092114","0.123218","-0.089722","0.113647","-0.110059"
"M","1617446162.6227903","7","38","33","17","25","58","0.660339","-0.065186","-0.744385","-0.074829","0.007634","-0.007634","-0.015267","9.634912","0.303857","-1.019238","-0.094507","0.055029","0.124414","-0.098096","0.077759","-0.10647"
"M","1617446162.6129797","7","42","33","18","20","54","0.6604","-0.06543","-0.744324","-0.074829","0","-0.007634","-0.015267","9.61936","0.279932","-1.041968","-0.110059","0.034692","0.099292","-0.076563","0.052637","-0.119629"
"M","1617446162.602801","7","41","37","19","23","58","0.660461","-0.065613","-0.744263","-0.074768","0","-0.007634","-0.015267","9.605005","0.26438","-1.071875","-0.12561","0.022729","0.068188","-0.046655","0.035889","-0.131592"
"M","1617446162.592972","7","38","35","18","22","57","0.660461","-0.065735","-0.744263","-0.074707","-0.007634","-0.007634","-0.015267","9.595434","0.248828","-1.111353","-0.135181","0.00957","0.029907","-0.010767","0.014355","-0.136377"
"M","1617446162.5828185","7","39","35","20","23","57","0.6604","-0.065857","-0.744263","-0.074585","-0.007634","0","-0.015267","9.59065","0.229687","-1.158008","-0.13877","-0.004785","-0.015552","0.029907","-0.007178","-0.135181"
"M","1617446162.5729103","7","41","35","20","24","58","0.6604","-0.065918","-0.744324","-0.074402","-0.015267","0.007634","-0.015267","9.60022","0.221313","-1.197485","-0.129199","-0.010767","-0.053833","0.0646","-0.020337","-0.122021"
"M","1617446162.5628583","7","39","36","19","24","58","0.660278","-0.065979","-0.744446","-0.074158","-0.015267","0.015267","-0.015267","9.624146","0.206958","-1.230981","-0.105273","-0.020337","-0.082544","0.088525","-0.035889","-0.094507"
"M","1617446162.5529103","7","41","33","18","22","57","0.660156","-0.066101","-0.744568","-0.073914","-0.007634","0.015267","-0.015267","9.648071","0.18064","-1.239355","-0.081348","-0.04187","-0.087329","0.086133","-0.057422","-0.070581"
"M","1617446162.5428913","7","39","37","17","23","58","0.659912","-0.066284","-0.744751","-0.07373","-0.007634","0.015267","-0.015267","9.646875","0.15791","-1.233374","-0.081348","-0.059814","-0.075366","0.070581","-0.072974","-0.072974"
"M","1617446162.5329182","7","38","33","18","21","58","0.659729","-0.066406","-0.744934","-0.073547","-0.007634","0.015267","-0.015267","9.601416","0.141162","-1.226196","-0.126807","-0.072974","-0.062207","0.061011","-0.08374","-0.119629"
"M","1617446162.522961","7","39","35","18","25","58","0.659607","-0.066589","-0.745056","-0.073364","-0.007634","0.007634","-0.015267","9.523657","0.132788","-1.216626","-0.203369","-0.076563","-0.049048","0.056226","-0.084937","-0.197388"
"M","1617446162.5129173","7","40","36","16","23","58","0.659485","-0.06665","-0.745178","-0.073181","-0.015267","0","-0.015267","9.442309","0.131592","-1.214233","-0.284717","-0.075366","-0.043066","0.061011","-0.082544","-0.278735"
"M","1617446162.5030022","7","38","36","20","21","57","0.659485","-0.06665","-0.745239","-0.072937","-0.015267","0","-0.015267","9.368139","0.139966","-1.209448","-0.358887","-0.063403","-0.037085","0.066992","-0.070581","-0.352905"
"M","1617446162.492963","7","38","33","17","23","56","0.659424","-0.066589","-0.7453","-0.072632","-0.015267","0","-0.015267","9.302343","0.159106","-1.211841","-0.424683","-0.040674","-0.037085","0.078955","-0.047852","-0.417505"
"M","1617446162.4829662","7","39","33","16","23","58","0.659363","-0.06665","-0.745361","-0.072327","-0.015267","0.007634","-0.022901","9.264063","0.159106","-1.225","-0.462964","-0.035889","-0.047852","0.095703","-0.045459","-0.453394"
"M","1617446162.47276","7","39","36","22","25","57","0.659241","-0.066711","-0.745483","-0.07196","-0.007634","0.015267","-0.022901","9.262866","0.150732","-1.23457","-0.462964","-0.038281","-0.053833","0.100488","-0.049048","-0.453394"
"M","1617446162.4630263","7","39","37","18","24","58","0.659058","-0.066956","-0.745667","-0.071716","0","0.022901","-0.022901","9.266455","0.129199","-1.246533","-0.459375","-0.053833","-0.059814","0.102881","-0.065796","-0.448608"
"M","1617446162.4529986","7","41","33","17","25","56","0.658813","-0.067261","-0.74585","-0.071472","0","0.022901","-0.022901","9.287989","0.11604","-1.258496","-0.436646","-0.059814","-0.065796","0.105273","-0.07417","-0.425879"
"M","1617446162.4429264","7","38","35","17","25","57","0.658569","-0.067627","-0.746094","-0.07135","0.007634","0.022901","-0.022901","9.321485","0.110059","-1.259692","-0.403149","-0.059814","-0.059814","0.095703","-0.072974","-0.393579"
"M","1617446162.4328997","7","39","36","19","24","57","0.658325","-0.067871","-0.746277","-0.071289","0","0.015267","-0.015267","9.343018","0.114844","-1.241748","-0.38042","-0.05144","-0.034692","0.070581","-0.059814","-0.373242"
"M","1617446162.4228015","7","40","33","20","25","58","0.658142","-0.068054","-0.74646","-0.071228","0","0.015267","-0.007634","9.358569","0.142358","-1.219019","-0.364868","-0.021533","-0.007178","0.047852","-0.025122","-0.361279"
"M","1617446162.4128828","7","41","35","17","23","58","0.657959","-0.068115","-0.746582","-0.071167","-0.007634","0.007634","0","9.370532","0.177051","-1.203467","-0.351709","0.013159","0.011963","0.034692","0.011963","-0.349316"
"M","1617446162.4029431","7","40","35","20","24","58","0.657959","-0.068054","-0.746643","-0.071106","-0.015267","0","0","9.368139","0.196191","-1.191504","-0.355298","0.0323","0.023926","0.026318","0.033496","-0.354102"
"M","1617446162.3930223","7","38","35","19","24","58","0.657959","-0.067932","-0.746643","-0.070984","-0.015267","-0.015267","0","9.341822","0.197388","-1.189111","-0.38042","0.033496","0.026318","0.027515","0.034692","-0.379224"
"M","1617446162.382936","7","40","33","18","25","58","0.658081","-0.067871","-0.746521","-0.070862","-0.015267","-0.015267","-0.007634","9.310718","0.18064","-1.211841","-0.411523","0.019141","0.001196","0.053833","0.015552","-0.407935"
"M","1617446162.3730106","7","38","32","19","20","56","0.658203","-0.067871","-0.746399","-0.070679","-0.007634","-0.007634","-0.015267","9.320288","0.147144","-1.225","-0.401953","-0.010767","-0.014355","0.061011","-0.015552","-0.397168"
"M","1617446162.362988","7","39","37","18","23","55","0.658325","-0.067993","-0.746338","-0.070557","0","0","-0.022901","9.364551","0.098096","-1.235767","-0.358887","-0.056226","-0.027515","0.059814","-0.063403","-0.352905"
"M","1617446162.3531475","7","40","33","20","23","57","0.658325","-0.068298","-0.746338","-0.070435","0.007634","0","-0.022901","9.405225","0.039478","-1.245337","-0.318213","-0.108862","-0.035889","0.052637","-0.11604","-0.312231"
"M","1617446162.3430054","7","41","33","18","24","58","0.658264","-0.068665","-0.746338","-0.070435","0.007634","0","-0.022901","9.430346","0.005981","-1.253711","-0.293091","-0.137573","-0.043066","0.050244","-0.145947","-0.287109"
"M","1617446162.3332224","7","39","32","18","22","58","0.658264","-0.068848","-0.746338","-0.070496","0","0","-0.007634","9.435132","0.026318","-1.254907","-0.288306","-0.11604","-0.044263","0.055029","-0.124414","-0.281128"
"M","1617446162.3230116","7","38","33","18","20","56","0.658264","-0.068909","-0.746338","-0.070496","-0.007634","-0.007634","0","9.445898","0.068188","-1.242944","-0.277539","-0.072974","-0.0323","0.05144","-0.080151","-0.271558"
"M","1617446162.313105","7","38","35","17","22","57","0.658264","-0.068787","-0.746338","-0.070496","-0.015267","-0.007634","0","9.436328","0.105273","-1.229785","-0.287109","-0.038281","-0.019141","0.046655","-0.043066","-0.282324"
"M","1617446162.3031304","7","39","36","18","22","58","0.658386","-0.068604","-0.746277","-0.070496","-0.015267","-0.015267","0.007634","9.41958","0.131592","-1.222607","-0.305054","-0.013159","-0.014355","0.049048","-0.017944","-0.300269"
"M","1617446162.2929926","7","41","35","19","24","57","0.658508","-0.068359","-0.746155","-0.070496","-0.015267","-0.015267","0","9.415991","0.153125","-1.210644","-0.308643","0.003589","-0.005981","0.044263","0","-0.305054"
"M","1617446162.282941","7","40","36","26","24","57","0.65863","-0.068176","-0.746094","-0.070374","-0.007634","-0.015267","0","9.415991","0.147144","-1.211841","-0.308643","-0.001196","-0.010767","0.047852","-0.005981","-0.303857"
"M","1617446162.2730465","7","43","33","16","24","56","0.658691","-0.068176","-0.745972","-0.070374","0","-0.007634","-0.007634","9.426758","0.100488","-1.219019","-0.297876","-0.047852","-0.020337","0.046655","-0.052637","-0.293091"
"M","1617446162.2629635","7","40","35","19","20","55","0.658752","-0.068298","-0.745911","-0.070374","0.007634","-0.007634","-0.007634","9.448291","0.049048","-1.220215","-0.276343","-0.096899","-0.022729","0.037085","-0.101685","-0.272754"
"M","1617446162.253924","7","40","35","20","20","57","0.658813","-0.06842","-0.745911","-0.070557","0.007634","-0.007634","-0.007634","9.457861","0.029907","-1.219019","-0.267969","-0.117236","-0.022729","0.031104","-0.120825","-0.26438"
"M","1617446162.2430549","7","41","35","16","24","58","0.658813","-0.068481","-0.74585","-0.070679","0","-0.007634","0","9.459058","0.066992","-1.204663","-0.266772","-0.081348","-0.008374","0.023926","-0.08374","-0.26438"
"M","1617446162.2329762","7","41","33","17","21","57","0.658936","-0.068359","-0.745789","-0.070801","-0.007634","-0.007634","0.007634","9.447095","0.111255","-1.196289","-0.278735","-0.040674","-0.003589","0.028711","-0.04187","-0.276343"
"M","1617446162.223101","7","40","35","15","22","54","0.658997","-0.068115","-0.745728","-0.070862","-0.015267","-0.015267","0.007634","9.442309","0.15791","-1.1927","-0.283521","0.001196","-0.002393","0.037085","-0.001196","-0.279932"
"M","1617446162.213051","7","39","33","18","21","58","0.659119","-0.067749","-0.745605","-0.070862","-0.022901","-0.007634","0.007634","9.460254","0.202173","-1.181934","-0.265576","0.040674","0.003589","0.035889","0.038281","-0.263184"
"M","1617446162.2029314","7","38","33","15","16","57","0.65918","-0.067444","-0.745605","-0.070862","-0.015267","-0.007634","0.007634","9.475805","0.226099","-1.175952","-0.250024","0.061011","0.008374","0.033496","0.058618","-0.247632"
"M","1617446162.1929955","7","39","33","17","21","57","0.659302","-0.0672","-0.745544","-0.070801","-0.007634","-0.007634","0","9.477002","0.215332","-1.178345","-0.250024","0.049048","0.003589","0.035889","0.046655","-0.247632"
"M","1617446162.183297","7","40","33","18","25","58","0.659363","-0.067139","-0.745483","-0.070801","0","-0.007634","0","9.472217","0.185425","-1.185522","-0.25481","0.017944","-0.004785","0.038281","0.014355","-0.251221"
"M","1617446162.172898","7","38","33","16","22","58","0.659424","-0.067261","-0.745422","-0.070862","0.007634","-0.007634","-0.007634","9.484179","0.155518","-1.184326","-0.242847","-0.00957","-0.004785","0.031104","-0.011963","-0.240454"
"M","1617446162.1631138","7","39","33","18","22","55","0.659424","-0.067383","-0.745361","-0.070984","0.007634","0","-0.007634","9.506909","0.139966","-1.184326","-0.220117","-0.025122","-0.005981","0.027515","-0.026318","-0.217725"
"M","1617446162.153043","7","40","36","22","23","58","0.659424","-0.067505","-0.745361","-0.071167","0.007634","-0.007634","0","9.518872","0.153125","-1.18313","-0.208154","-0.013159","-0.004785","0.026318","-0.014355","-0.205762"
"M","1617446162.1430464","7","44","33","17","20","58","0.659424","-0.067505","-0.7453","-0.07135","0","-0.007634","0","9.510498","0.18064","-1.168774","-0.216528","0.010767","0.007178","0.020337","0.00957","-0.215332"
"M","1617446162.133039","7","39","33","18","22","54","0.659546","-0.067444","-0.745239","-0.071411","-0.007634","-0.015267","0","9.487768","0.212939","-1.159204","-0.239258","0.040674","0.014355","0.022729","0.040674","-0.238062"
"M","1617446162.1229978","7","39","33","17","23","57","0.659668","-0.067322","-0.745178","-0.071411","-0.015267","-0.007634","0","9.485376","0.244043","-1.144849","-0.242847","0.070581","0.026318","0.016748","0.071777","-0.242847"
"M","1617446162.1132426","7","39","33","16","23","55","0.659729","-0.067139","-0.745056","-0.07135","-0.015267","-0.007634","0","9.49375","0.25481","-1.124512","-0.233276","0.080151","0.044263","0","0.084937","-0.234473"
"M","1617446162.1031983","7","39","33","18","20","57","0.65979","-0.067017","-0.745056","-0.071228","-0.015267","-0.007634","0","9.498535","0.242847","-1.116138","-0.229687","0.068188","0.05144","-0.008374","0.075366","-0.23208"
"M","1617446162.0930705","7","40","36","18","22","57","0.659851","-0.067017","-0.744995","-0.071167","-0.007634","-0.007634","-0.007634","9.475805","0.209351","-1.116138","-0.252417","0.035889","0.050244","-0.010767","0.043066","-0.25481"
"M","1617446162.08302","7","40","37","18","20","58","0.659912","-0.067078","-0.744995","-0.071045","0","0","-0.007634","9.465039","0.165088","-1.129297","-0.263184","-0.003589","0.035889","-0.003589","0.001196","-0.265576"
"M","1617446162.0729938","7","40","33","18","26","56","0.659851","-0.067261","-0.745056","-0.071106","0.007634","0.007634","-0.007634","9.480591","0.117236","-1.158008","-0.248828","-0.050244","0.00957","0.010767","-0.047852","-0.248828"
"M","1617446162.0630214","7","40","34","20","23","58","0.659668","-0.067383","-0.745117","-0.071106","0","0.007634","-0.007634","9.499731","0.114844","-1.191504","-0.227295","-0.05144","-0.019141","0.035889","-0.055029","-0.223706"
"M","1617446162.053717","7","41","36","17","23","58","0.659546","-0.067383","-0.745239","-0.071167","-0.007634","0.007634","0","9.491358","0.129199","-1.228589","-0.235669","-0.038281","-0.053833","0.072974","-0.049048","-0.227295"
"M","1617446162.0430062","7","39","33","18","23","58","0.659424","-0.067261","-0.745361","-0.071106","-0.015267","0","0","9.479395","0.159106","-1.245337","-0.247632","-0.00957","-0.066992","0.093311","-0.023926","-0.236865"
"M","1617446162.0332394","7","43","35","19","24","57","0.659424","-0.067078","-0.745422","-0.070984","-0.015267","0","0","9.457861","0.175854","-1.27644","-0.269165","0.004785","-0.096899","0.126807","-0.015552","-0.25481"
"M","1617446162.0232043","7","40","36","19","23","56","0.659424","-0.066895","-0.745422","-0.070862","-0.015267","-0.007634","0","9.436328","0.178247","-1.300366","-0.290698","0.007178","-0.120825","0.153125","-0.017944","-0.272754"
"M","1617446162.0130494","7","42","33","14","21","58","0.659485","-0.066772","-0.745361","-0.07074","-0.007634","-0.007634","-0.007634","9.424365","0.161499","-1.314722","-0.302661","-0.008374","-0.137573","0.168677","-0.035889","-0.283521"
"M","1617446162.003232","7","40","36","16","21","58","0.659607","-0.066833","-0.7453","-0.070679","0","0","-0.015267","9.425562","0.137573","-1.314722","-0.301465","-0.029907","-0.139966","0.166284","-0.057422","-0.282324"
"M","1617446161.9931867","7","39","33","17","20","57","0.659668","-0.067017","-0.745239","-0.070618","0","0","-0.015267","9.442309","0.114844","-1.291992","-0.285913","-0.049048","-0.118433","0.139966","-0.072974","-0.270361"
"M","1617446161.9837718","7","39","35","17","24","58","0.659668","-0.067139","-0.745239","-0.070618","0","0","-0.015267","9.479395","0.123218","-1.256104","-0.248828","-0.039478","-0.082544","0.101685","-0.056226","-0.236865"
"M","1617446161.9733324","7","40","35","20","25","58","0.659729","-0.0672","-0.745178","-0.070557","-0.007634","0","-0.007634","9.509302","0.15791","-1.201074","-0.218921","-0.003589","-0.028711","0.052637","-0.00957","-0.212939"
"M","1617446161.9637349","7","41","37","16","23","57","0.65979","-0.0672","-0.745117","-0.070496","-0.007634","-0.007634","-0.007634","9.520068","0.196191","-1.144849","-0.208154","0.034692","0.025122","0.007178","0.037085","-0.208154"
"M","1617446161.9536986","7","39","33","17","20","58","0.659912","-0.0672","-0.745056","-0.070435","-0.007634","-0.015267","-0.007634","9.504517","0.217725","-1.096997","-0.224902","0.057422","0.070581","-0.029907","0.068188","-0.229687"
"M","1617446161.9437306","7","40","10","20","24","58","0.660095","-0.0672","-0.744873","-0.070374","-0.007634","-0.022901","-0.007634","9.475805","0.216528","-1.07666","-0.253613","0.057422","0.086133","-0.04187","0.070581","-0.260791"
"M","1617446161.933794","7","40","35","16","22","55","0.660339","-0.067261","-0.744629","-0.070312","0","-0.030534","-0.007634","9.424365","0.198584","-1.077856","-0.305054","0.04187","0.077759","-0.031104","0.053833","-0.311035"
"M","1617446161.9237604","7","40","36","15","23","58","0.660645","-0.067322","-0.744385","-0.070251","0","-0.030534","-0.015267","9.38728","0.178247","-1.088623","-0.343335","0.023926","0.059814","-0.011963","0.0323","-0.346924"
"M","1617446161.9136248","7","40","35","20","24","55","0.660889","-0.067444","-0.744141","-0.070129","-0.007634","-0.015267","-0.015267","9.381299","0.155518","-1.094604","-0.350513","0.005981","0.047852","-0.003589","0.011963","-0.352905"
"M","1617446161.5138805","7","39","36","18","20","58","0.660889","-0.066528","-0.744507","-0.067505","0","-0.007634","0","9.424365","0.160303","-1.095801","-0.307446","0.035889","0.053833","-0.008374","0.04187","-0.311035"
"M","1617446161.504118","7","41","36","18","24","58","0.66095","-0.066467","-0.744385","-0.067566","0","-0.007634","0","9.433935","0.154321","-1.070679","-0.29668","0.028711","0.076563","-0.033496","0.039478","-0.302661"
"M","1617446161.493905","7","40","33","18","22","58","0.661011","-0.066589","-0.744324","-0.067627","0.007634","-0.007634","-0.007634","9.45188","0.137573","-1.056323","-0.278735","0.013159","0.089722","-0.05144","0.026318","-0.287109"
"M","1617446161.4839556","7","38","32","19","23","58","0.661011","-0.066711","-0.744324","-0.06781","0.007634","-0.007634","-0.007634","9.460254","0.126807","-1.052734","-0.271558","0.001196","0.092114","-0.057422","0.015552","-0.279932"
"M","1617446161.474123","7","40","33","6","22","56","0.661072","-0.066895","-0.744263","-0.067932","0.007634","-0.007634","0","9.454272","0.12561","-1.05752","-0.277539","0.001196","0.086133","-0.050244","0.014355","-0.284717"
"M","1617446161.463973","7","41","35","17","22","57","0.661133","-0.066895","-0.744202","-0.068115","0","-0.007634","0","9.456665","0.149536","-1.065894","-0.275146","0.022729","0.075366","-0.035889","0.033496","-0.281128"
"M","1617446161.454021","7","40","37","18","23","58","0.661133","-0.066772","-0.744141","-0.068176","-0.015267","-0.007634","0.007634","9.466235","0.196191","-1.05752","-0.265576","0.066992","0.08374","-0.037085","0.078955","-0.271558"
"M","1617446161.4440758","7","39","33","18","22","57","0.661194","-0.066528","-0.744141","-0.068115","-0.022901","-0.007634","0.007634","9.472217","0.235669","-1.05752","-0.259595","0.104077","0.082544","-0.029907","0.114844","-0.265576"
"M","1617446161.434029","7","38","36","18","24","57","0.661194","-0.066223","-0.744202","-0.067993","-0.022901","0","0","9.471021","0.267969","-1.058716","-0.260791","0.133984","0.081348","-0.022729","0.143555","-0.265576"
"M","1617446161.423967","7","40","35","17","24","56","0.661133","-0.066101","-0.744263","-0.06781","-0.007634","0","-0.007634","9.471021","0.263184","-1.071875","-0.260791","0.130396","0.070581","-0.013159","0.13877","-0.26438"
"M","1617446161.4140391","7","38","32","18","22","57","0.661011","-0.066223","-0.744385","-0.067627","0.007634","0.007634","-0.015267","9.472217","0.192603","-1.106567","-0.259595","0.063403","0.039478","0.003589","0.066992","-0.260791"
"M","1617446161.40416","7","39","33","16","23","58","0.660828","-0.066589","-0.744507","-0.067627","0.015267","0.007634","-0.015267","9.492554","0.114844","-1.144849","-0.238062","-0.008374","0.005981","0.020337","-0.008374","-0.236865"
"M","1617446161.39404","7","39","35","17","23","56","0.660645","-0.066956","-0.744629","-0.067749","0.015267","0.015267","-0.015267","9.522461","0.075366","-1.189111","-0.208154","-0.045459","-0.033496","0.047852","-0.052637","-0.202173"
"M","1617446161.3839378","7","38","33","17","20","57","0.660461","-0.0672","-0.744751","-0.067871","0.007634","0.007634","-0.007634","9.551172","0.072974","-1.207056","-0.178247","-0.046655","-0.046655","0.057422","-0.056226","-0.171069"
"M","1617446161.3740835","7","41","35","17","20","58","0.660339","-0.067383","-0.744873","-0.067871","0","0.007634","-0.007634","9.555957","0.075366","-1.203467","-0.173462","-0.043066","-0.039478","0.050244","-0.05144","-0.16748"
"M","1617446161.3639686","7","40","30","18","24","56","0.660278","-0.067505","-0.744934","-0.067871","0","0","-0.007634","9.540405","0.066992","-1.213037","-0.189014","-0.050244","-0.046655","0.057422","-0.059814","-0.181836"
"M","1617446161.354029","7","38","33","18","25","55","0.660278","-0.067627","-0.744873","-0.067932","0","-0.007634","-0.007634","9.512891","0.055029","-1.213037","-0.216528","-0.061011","-0.047852","0.059814","-0.070581","-0.209351"
"M","1617446161.3442516","7","39","32","16","19","55","0.6604","-0.067749","-0.744812","-0.067932","0","-0.007634","-0.007634","9.485376","0.047852","-1.195093","-0.245239","-0.065796","-0.0323","0.047852","-0.072974","-0.239258"
"M","1617446161.3342197","7","40","33","18","23","44","0.660461","-0.067871","-0.744751","-0.067993","0","0","-0.007634","9.482984","0.05144","-1.166382","-0.247632","-0.062207","-0.004785","0.021533","-0.0646","-0.245239"
"M","1617446161.3240638","7","39","36","18","22","58","0.660461","-0.067993","-0.74469","-0.067993","0","0","-0.007634","9.487768","0.080151","-1.137671","-0.242847","-0.031104","0.021533","0.001196","-0.028711","-0.242847"
"M","1617446161.3140578","7","39","32","17","16","56","0.6604","-0.068054","-0.744751","-0.068054","0.007634","0.007634","-0.007634","9.505713","0.108862","-1.112549","-0.224902","-0.003589","0.047852","-0.020337","0.002393","-0.228491"
"M","1617446161.3038971","7","48","33","16","24","56","0.660278","-0.068176","-0.744812","-0.068237","0.007634","0.007634","0","9.517675","0.132788","-1.101782","-0.211743","0.017944","0.061011","-0.029907","0.026318","-0.216528"
"M","1617446161.2941537","7","39","33","18","23","57","0.660095","-0.068298","-0.744934","-0.068481","0.007634","0","0.007634","9.502124","0.153125","-1.102978","-0.227295","0.035889","0.0646","-0.028711","0.044263","-0.23208"
"M","1617446161.284146","7","39","35","17","22","58","0.659973","-0.068298","-0.744995","-0.068726","0.007634","0","0.007634","9.471021","0.187817","-1.112549","-0.257202","0.066992","0.057422","-0.011963","0.072974","-0.260791"
"M","1617446161.2741318","7","39","35","19","24","56","0.659912","-0.068237","-0.745056","-0.06897","0","-0.007634","0.007634","9.429151","0.23208","-1.122119","-0.299072","0.10647","0.049048","0.008374","0.110059","-0.300269"
"M","1617446161.2640443","7","39","33","18","18","55","0.659912","-0.068115","-0.745056","-0.069092","-0.007634","-0.007634","0.007634","9.393262","0.27395","-1.135278","-0.334961","0.145947","0.034692","0.033496","0.145947","-0.333765"
"M","1617446161.254064","7","38","34","15","22","57","0.659912","-0.067932","-0.745056","-0.069153","-0.007634","-0.007634","0.007634","9.371729","0.289502","-1.158008","-0.356494","0.15791","0.011963","0.061011","0.153125","-0.352905"
"M","1617446161.2440827","7","39","32","17","21","55","0.659912","-0.06781","-0.745056","-0.069153","-0.007634","0","0","9.372925","0.282324","-1.174756","-0.355298","0.149536","-0.003589","0.07417","0.142358","-0.349316"
"M","1617446161.2340963","7","38","32","18","20","56","0.659912","-0.067749","-0.745056","-0.069092","-0.007634","0","0","9.394458","0.282324","-1.179541","-0.333765","0.149536","-0.008374","0.076563","0.141162","-0.327783"
"M","1617446161.2240458","7","40","32","16","16","55","0.659912","-0.067688","-0.745117","-0.068909","-0.015267","0.007634","-0.007634","9.425562","0.271558","-1.186719","-0.302661","0.139966","-0.014355","0.076563","0.131592","-0.29668"
"M","1617446161.2140715","7","38","36","16","23","57","0.65979","-0.067688","-0.745239","-0.068726","-0.015267","0.007634","-0.007634","9.463842","0.251221","-1.1927","-0.26438","0.122021","-0.016748","0.070581","0.113647","-0.258398"
"M","1617446161.204077","7","39","32","17","24","57","0.659729","-0.067749","-0.745361","-0.06842","-0.015267","0.007634","-0.015267","9.492554","0.228491","-1.191504","-0.235669","0.104077","-0.013159","0.061011","0.096899","-0.230884"
"M","1617446161.1942031","7","39","37","19","24","57","0.659607","-0.067932","-0.745483","-0.068115","-0.007634","0.007634","-0.022901","9.503321","0.181836","-1.201074","-0.224902","0.0646","-0.017944","0.056226","0.056226","-0.220117"
"M","1617446161.1841156","7","39","35","22","23","57","0.659485","-0.068237","-0.745544","-0.067871","0","0.007634","-0.022901","9.49375","0.123218","-1.21543","-0.233276","0.013159","-0.029907","0.059814","0.003589","-0.227295"
"M","1617446161.174016","7","38","33","16","21","56","0.659363","-0.068542","-0.745605","-0.067627","0","0.007634","-0.022901","9.469824","0.075366","-1.222607","-0.256006","-0.026318","-0.033496","0.057422","-0.034692","-0.250024"
"M","1617446161.1641328","7","39","35","19","22","58","0.659302","-0.068848","-0.745667","-0.067505","0","0.007634","-0.022901","9.447095","0.039478","-1.239355","-0.278735","-0.057422","-0.047852","0.068188","-0.068188","-0.270361"
"M","1617446161.154874","7","39","33","19","24","57","0.659241","-0.069153","-0.745728","-0.067444","0","0.007634","-0.022901","9.430346","0.022729","-1.253711","-0.29668","-0.069385","-0.059814","0.080151","-0.08374","-0.287109"
"M","1617446161.1448112","7","39","36","20","21","58","0.659119","-0.069336","-0.745789","-0.067322","0","0.007634","-0.015267","9.415991","0.011963","-1.272852","-0.309839","-0.075366","-0.076563","0.096899","-0.092114","-0.297876"
"M","1617446161.1348755","7","39","33","18","22","56","0.659058","-0.069519","-0.74585","-0.0672","-0.007634","0.015267","-0.015267","9.431543","0.013159","-1.284814","-0.294287","-0.070581","-0.086133","0.105273","-0.089722","-0.281128"
"M","1617446161.124106","7","42","33","19","24","58","0.658875","-0.069702","-0.745972","-0.067017","-0.007634","0.015267","-0.015267","9.449488","0.016748","-1.277637","-0.275146","-0.062207","-0.07417","0.093311","-0.078955","-0.26438"
"M","1617446161.114846","7","40","33","17","25","56","0.658752","-0.069824","-0.746094","-0.066895","0","0.007634","-0.015267","9.441113","0.020337","-1.280029","-0.283521","-0.056226","-0.072974","0.094507","-0.072974","-0.272754"
"M","1617446161.1048365","7","38","31","18","25","58","0.658691","-0.069946","-0.746216","-0.066772","0","0.007634","-0.015267","9.418384","0.025122","-1.270459","-0.30625","-0.047852","-0.061011","0.087329","-0.063403","-0.29668"
"M","1617446161.0947368","7","39","34","17","18","57","0.658569","-0.070068","-0.746277","-0.066772","0","0.007634","-0.007634","9.410009","0.027515","-1.262085","-0.313428","-0.044263","-0.049048","0.076563","-0.057422","-0.305054"
"M","1617446161.0848415","7","38","31","15","22","57","0.658508","-0.070068","-0.746338","-0.066772","-0.007634","0","0","9.411206","0.061011","-1.245337","-0.312231","-0.010767","-0.031104","0.065796","-0.021533","-0.305054"
"M","1617446161.0747936","7","38","32","19","-22","58","0.658508","-0.069946","-0.746399","-0.066711","-0.015267","0","0","9.404028","0.102881","-1.235767","-0.320605","0.028711","-0.020337","0.0646","0.017944","-0.314624"
"M","1617446161.0648432","7","39","35","18","22","57","0.658447","-0.069763","-0.746399","-0.066589","-0.015267","0","0","9.389673","0.122021","-1.229785","-0.333765","0.047852","-0.014355","0.063403","0.038281","-0.328979"
"M","1617446161.0547678","7","39","33","17","23","56","0.658447","-0.06958","-0.74646","-0.066467","-0.015267","-0.007634","0","9.37771","0.12561","-1.236963","-0.345728","0.050244","-0.020337","0.071777","0.039478","-0.339746"
"M","1617446161.0447972","7","36","36","20","22","57","0.658508","-0.069519","-0.74646","-0.066345","-0.007634","-0.007634","-0.007634","9.363355","0.104077","-1.251318","-0.361279","0.029907","-0.035889","0.084937","0.015552","-0.352905"
"M","1617446161.0348413","7","38","32","18","24","58","0.658508","-0.06958","-0.746399","-0.066162","0","-0.007634","-0.015267","9.356176","0.053833","-1.269263","-0.367261","-0.015552","-0.053833","0.094507","-0.031104","-0.35769"
"M","1617446161.0247822","7","38","31","16","23","55","0.658569","-0.069824","-0.746399","-0.066101","0.007634","0","-0.022901","9.374121","-0.004785","-1.288403","-0.350513","-0.069385","-0.072974","0.100488","-0.087329","-0.33855"
"M","1617446161.0149662","7","40","33","18","21","58","0.658569","-0.070129","-0.746338","-0.066101","0.007634","0","-0.015267","9.423169","-0.045459","-1.295581","-0.300269","-0.10647","-0.081348","0.094507","-0.124414","-0.288306"
"M","1617446161.0049562","7","40","33","16","22","58","0.658508","-0.070312","-0.746338","-0.066162","0","0","-0.007634","9.481787","-0.033496","-1.274048","-0.24165","-0.093311","-0.058618","0.068188","-0.10647","-0.23208"
"M","1617446160.9948723","7","39","36","19","21","58","0.658508","-0.070312","-0.746338","-0.066162","-0.015267","-0.007634","0","9.516479","0.022729","-1.248926","-0.206958","-0.037085","-0.033496","0.050244","-0.045459","-0.200977"
"M","1617446160.9848535","7","39","35","19","20","57","0.658569","-0.070129","-0.746338","-0.066101","-0.022901","-0.007634","0","9.512891","0.080151","-1.216626","-0.210547","0.017944","-0.002393","0.031104","0.013159","-0.208154"
"M","1617446160.9747915","7","38","33","17","22","56","0.658691","-0.069885","-0.746216","-0.06604","-0.022901","-0.015267","0","9.488965","0.122021","-1.193897","-0.234473","0.057422","0.015552","0.023926","0.055029","-0.233276"
"M","1617446160.964895","7","41","35","18","21","55","0.658936","-0.069641","-0.746094","-0.065857","-0.015267","-0.022901","0","9.435132","0.135181","-1.181934","-0.289502","0.070581","0.022729","0.026318","0.068188","-0.289502"
"M","1617446160.9548318","7","40","32","18","22","56","0.65918","-0.06958","-0.745911","-0.065735","-0.007634","-0.022901","-0.007634","9.398046","0.107666","-1.186719","-0.327783","0.045459","0.011963","0.035889","0.040674","-0.325391"
"M","1617446160.9448404","7","39","32","17","21","56","0.659363","-0.06958","-0.745728","-0.065613","0","-0.015267","-0.015267","9.399243","0.0646","-1.201074","-0.326587","0.004785","-0.005981","0.045459","-0.001196","-0.322998"
"M","1617446160.93478","7","39","36","15","23","58","0.659546","-0.069885","-0.745544","-0.065613","0.015267","-0.007634","-0.022901","9.437525","0.001196","-1.217822","-0.289502","-0.053833","-0.027515","0.050244","-0.062207","-0.283521"
"M","1617446160.9248686","7","40","33","16","20","55","0.659607","-0.070251","-0.745422","-0.065674","0.022901","-0.007634","-0.022901","9.474609","-0.049048","-1.228589","-0.252417","-0.099292","-0.040674","0.050244","-0.108862","-0.245239"
"M","1617446160.9148998","7","38","26","17","24","58","0.659668","-0.070679","-0.7453","-0.065796","0.015267","-0.007634","-0.022901","9.487768","-0.070581","-1.228589","-0.239258","-0.117236","-0.04187","0.046655","-0.126807","-0.23208"
"M","1617446160.905139","7","39","33","18","22","58","0.65979","-0.070984","-0.745178","-0.065918","0.007634","-0.007634","-0.015267","9.49375","-0.063403","-1.210644","-0.234473","-0.107666","-0.027515","0.033496","-0.114844","-0.229687"
"M","1617446160.8948698","7","39","31","18","20","57","0.659912","-0.071167","-0.745056","-0.06604","0","-0.007634","-0.015267","9.508105","-0.043066","-1.1927","-0.220117","-0.086133","-0.013159","0.021533","-0.090918","-0.216528"
"M","1617446160.884986","7","35","31","20","24","56","0.660034","-0.071228","-0.744995","-0.06604","-0.007634","-0.015267","-0.007634","9.509302","-0.008374","-1.177148","-0.220117","-0.050244","0","0.015552","-0.052637","-0.217725"
"M","1617446160.8749082","7","40","33","18","22","55","0.660156","-0.071167","-0.744873","-0.065979","-0.015267","-0.015267","-0.007634","9.499731","0.025122","-1.161597","-0.229687","-0.016748","0.010767","0.013159","-0.017944","-0.228491"
"M","1617446160.8649414","7","39","35","18","20","58","0.660217","-0.071045","-0.744812","-0.065918","-0.015267","-0.007634","0","9.487768","0.049048","-1.147241","-0.24165","0.005981","0.023926","0.005981","0.004785","-0.24165"
"M","1617446160.8548465","7","41","35","16","21","57","0.660278","-0.070984","-0.744751","-0.065857","-0.007634","0","0","9.487768","0.057422","-1.153223","-0.24165","0.014355","0.016748","0.014355","0.011963","-0.24165"
"M","1617446160.8449888","7","41","36","16","23","57","0.660278","-0.070923","-0.744812","-0.065796","0","0","0","9.492554","0.063403","-1.161597","-0.236865","0.020337","0.008374","0.022729","0.016748","-0.235669"
"M","1617446160.8348756","7","40","32","16","22","58","0.660217","-0.070984","-0.744812","-0.065857","0.007634","0","0","9.467432","0.0646","-1.180737","-0.261987","0.021533","-0.008374","0.043066","0.014355","-0.258398"
"M","1617446160.8249454","7","40","32","17","15","58","0.660217","-0.071045","-0.744812","-0.06604","0.007634","0","0","9.45188","0.070581","-1.202271","-0.277539","0.025122","-0.029907","0.065796","0.013159","-0.271558"
"M","1617446160.8149362","7","38","36","18","24","58","0.660156","-0.071106","-0.744812","-0.066284","0.007634","0","0","9.447095","0.099292","-1.207056","-0.282324","0.05144","-0.034692","0.076563","0.038281","-0.275146"
"M","1617446160.8048537","7","40","35","18","20","57","0.660156","-0.071167","-0.744812","-0.066406","0","-0.007634","0","9.420776","0.133984","-1.208252","-0.308643","0.084937","-0.035889","0.087329","0.070581","-0.301465"
"M","1617446160.7948475","7","41","34","17","24","73","0.660156","-0.071228","-0.744751","-0.066528","0","-0.007634","0","9.37771","0.150732","-1.204663","-0.350513","0.100488","-0.033496","0.093311","0.084937","-0.343335"
"M","1617446160.7849236","7","38","33","18","24","58","0.660217","-0.071228","-0.744751","-0.066528","-0.007634","0","0","9.376513","0.166284","-1.197485","-0.352905","0.11604","-0.026318","0.089722","0.101685","-0.345728"
"M","1617446160.7748556","7","39","32","17","20","57","0.660156","-0.071167","-0.744812","-0.066467","-0.015267","0.007634","0","9.402832","0.173462","-1.196289","-0.326587","0.123218","-0.023926","0.084937","0.110059","-0.320605"
"M","1617446160.765027","7","38","33","15","22","55","0.660034","-0.071106","-0.744934","-0.066345","-0.015267","0.007634","-0.007634","9.438721","0.186621","-1.193897","-0.290698","0.137573","-0.017944","0.077759","0.12561","-0.284717"
"M","1617446160.7548938","7","39","36","17","-7","56","0.659912","-0.071106","-0.745056","-0.066101","-0.007634","0.007634","-0.007634","9.455469","0.16748","-1.207056","-0.272754","0.120825","-0.027515","0.082544","0.107666","-0.266772"
"M","1617446160.7448857","7","41","35","18","22","58","0.65979","-0.07135","-0.745178","-0.065979","0.007634","0.007634","-0.015267","9.463842","0.093311","-1.241748","-0.26438","0.05144","-0.058618","0.098096","0.033496","-0.25481"
"M","1617446160.7350056","7","39","32","16","23","57","0.659607","-0.071716","-0.745239","-0.065918","0.015267","0.007634","-0.015267","9.474609","0.019141","-1.260889","-0.252417","-0.015552","-0.072974","0.098096","-0.033496","-0.24165"
"M","1617446160.7250917","7","38","36","18","23","58","0.659546","-0.072083","-0.7453","-0.065979","0.015267","0.007634","-0.015267","9.457861","-0.023926","-1.260889","-0.269165","-0.055029","-0.071777","0.090918","-0.072974","-0.258398"
"M","1617446160.715008","7","40","34","20","21","54","0.659485","-0.072388","-0.7453","-0.06604","0.007634","0","-0.015267","9.424365","-0.031104","-1.238159","-0.302661","-0.059814","-0.047852","0.070581","-0.07417","-0.294287"
"M","1617446160.7049472","7","40","32","18","19","56","0.659546","-0.07251","-0.745239","-0.06604","-0.007634","0","-0.007634","9.411206","-0.011963","-1.219019","-0.31582","-0.038281","-0.029907","0.058618","-0.049048","-0.309839"
"M","1617446160.6949143","7","37","36","18","20","55","0.659546","-0.072449","-0.7453","-0.06604","-0.022901","0.007634","0","9.444702","0.019141","-1.185522","-0.283521","-0.008374","0.003589","0.028711","-0.013159","-0.281128"
"M","1617446160.685047","7","39","31","16","22","56","0.659485","-0.072205","-0.745361","-0.065857","-0.022901","0.007634","0","9.492554","0.080151","-1.14126","-0.234473","0.050244","0.049048","-0.00957","0.053833","-0.238062"
"M","1617446160.674814","7","39","33","20","23","58","0.659363","-0.07196","-0.745483","-0.065613","-0.022901","0","0","9.486572","0.099292","-1.114941","-0.239258","0.069385","0.078955","-0.033496","0.077759","-0.246436"
"M","1617446160.6649888","7","39","33","17","24","57","0.659363","-0.071899","-0.745544","-0.065369","-0.007634","0","0","9.445898","0.057422","-1.130493","-0.281128","0.031104","0.0646","-0.022729","0.035889","-0.285913"
"M","1617446160.6549852","7","38","33","18","22","58","0.659302","-0.071899","-0.745605","-0.065369","0","0","0","9.433935","0.013159","-1.149634","-0.293091","-0.011963","0.046655","-0.011963","-0.008374","-0.295483"
"M","1617446160.644885","7","39","26","17","24","58","0.659241","-0.07196","-0.745605","-0.065491","0","-0.007634","0","9.415991","0.010767","-1.165186","-0.309839","-0.015552","0.0323","0.002393","-0.014355","-0.311035"
"M","1617446160.63485","7","40","34","17","21","55","0.659241","-0.07196","-0.745605","-0.065613","0","0","0","9.405225","0.039478","-1.175952","-0.320605","0.00957","0.021533","0.019141","0.005981","-0.320605"
"M","1617446160.625055","7","39","33","17","22","55","0.659241","-0.071899","-0.745605","-0.065735","-0.007634","0","0","9.415991","0.062207","-1.174756","-0.309839","0.029907","0.021533","0.021533","0.026318","-0.309839"
"M","1617446160.6149824","7","37","33","16","23","56","0.65918","-0.071777","-0.745667","-0.065796","-0.007634","0","0","9.442309","0.088525","-1.17356","-0.283521","0.053833","0.025122","0.019141","0.05144","-0.283521"
"M","1617446160.6050797","7","41","33","18","24","56","0.65918","-0.071716","-0.745667","-0.065796","-0.007634","0","0","9.445898","0.100488","-1.17356","-0.279932","0.0646","0.025122","0.021533","0.062207","-0.279932"
"M","1617446160.5948884","7","22","33","16","23","57","0.65918","-0.071777","-0.745728","-0.065674","-0.007634","-0.007634","-0.007634","9.435132","0.086133","-1.189111","-0.291895","0.052637","0.00957","0.035889","0.046655","-0.290698"
"M","1617446160.585048","7","39","36","19","22","58","0.65918","-0.071899","-0.745667","-0.065613","0","-0.007634","-0.015267","9.431543","0.056226","-1.201074","-0.294287","0.025122","-0.001196","0.040674","0.017944","-0.290698"
"M","1617446160.5750616","7","39","35","19","23","58","0.659241","-0.072144","-0.745605","-0.065491","0.007634","0","-0.022901","9.455469","0.008374","-1.207056","-0.270361","-0.015552","-0.008374","0.037085","-0.021533","-0.266772"
"M","1617446160.565029","7","39","31","17","24","58","0.659241","-0.07251","-0.745605","-0.065369","0.015267","0","-0.022901","9.492554","-0.040674","-1.204663","-0.233276","-0.058618","-0.005981","0.021533","-0.063403","-0.230884"
"M","1617446160.5549464","7","40","36","17","22","58","0.65918","-0.072937","-0.745544","-0.065369","0.007634","0","-0.022901","9.512891","-0.082544","-1.202271","-0.211743","-0.094507","-0.002393","0.008374","-0.096899","-0.209351"
"M","1617446160.545048","7","40","33","17","24","57","0.65918","-0.073242","-0.745544","-0.065369","0","0","-0.022901","9.517675","-0.080151","-1.190308","-0.208154","-0.088525","0.008374","0","-0.089722","-0.206958"
"M","1617446160.535162","7","38","33","16","22","58","0.65918","-0.073486","-0.745544","-0.065308","0","-0.007634","-0.015267","9.503321","-0.062207","-1.180737","-0.22251","-0.066992","0.019141","-0.004785","-0.066992","-0.22251"
"M","1617446160.525062","7","39","36","18","24","55","0.65918","-0.073608","-0.745544","-0.065247","-0.007634","-0.007634","-0.015267","9.472217","-0.056226","-1.180737","-0.253613","-0.058618","0.019141","0","-0.058618","-0.253613"
"M","1617446160.5151231","7","38","32","18","22","55","0.65918","-0.073669","-0.745544","-0.065186","-0.007634","0","-0.007634","9.444702","-0.055029","-1.190308","-0.281128","-0.055029","0.00957","0.013159","-0.058618","-0.279932"
"M","1617446160.5051832","7","41","34","16","20","57","0.659119","-0.073669","-0.745605","-0.065125","-0.007634","0.007634","-0.007634","9.442309","-0.040674","-1.201074","-0.283521","-0.040674","0","0.025122","-0.046655","-0.281128"
"M","1617446160.4952545","7","39","36","18","24","57","0.658997","-0.073608","-0.745728","-0.065002","-0.007634","0.007634","0","9.447095","-0.019141","-1.222607","-0.278735","-0.017944","-0.016748","0.045459","-0.027515","-0.27395"
"M","1617446160.485088","7","38","33","15","21","52","0.658813","-0.073547","-0.74585","-0.064941","-0.007634","0.015267","0","9.460254","0.005981","-1.248926","-0.263184","0.005981","-0.038281","0.069385","-0.007178","-0.256006"
"M","1617446160.4751325","7","41","37","20","23","57","0.65863","-0.073486","-0.746033","-0.064941","-0.007634","0.007634","0","9.447095","0.029907","-1.271655","-0.276343","0.028711","-0.056226","0.093311","0.00957","-0.266772"
"M","1617446160.46504","7","39","34","18","23","58","0.658508","-0.073425","-0.746216","-0.064941","0","0.007634","0","9.41958","0.038281","-1.305151","-0.305054","0.035889","-0.086133","0.128003","0.010767","-0.291895"
"M","1617446160.4550352","7","39","33","17","19","57","0.658325","-0.073486","-0.746338","-0.065002","0.007634","0.007634","0","9.388476","0.039478","-1.34104","-0.334961","0.035889","-0.117236","0.161499","0.003589","-0.317017"
"M","1617446160.4450874","7","40","33","18","25","58","0.658142","-0.073608","-0.74646","-0.065063","0.007634","0.015267","-0.007634","9.376513","0.035889","-1.362573","-0.345728","0.0323","-0.135181","0.179443","-0.002393","-0.325391"
"M","1617446160.435277","7","38","31","18","23","55","0.657959","-0.073914","-0.746582","-0.065125","0.015267","0.022901","-0.015267","9.384888","0.025122","-1.376929","-0.337354","0.025122","-0.144751","0.186621","-0.010767","-0.31582"
"M","1617446160.4252074","7","40","33","12","21","58","0.657715","-0.07428","-0.746765","-0.065186","0.015267","0.022901","-0.015267","9.392065","0.004785","-1.391284","-0.328979","0.007178","-0.153125","0.19021","-0.031104","-0.30625"
"M","1617446160.4151514","7","40","33","18","25","56","0.657471","-0.074707","-0.746948","-0.065308","0.015267","0.022901","-0.015267","9.418384","0.007178","-1.38291","-0.302661","0.013159","-0.137573","0.173462","-0.021533","-0.282324"
"M","1617446160.405025","7","38","33","17","19","55","0.657166","-0.075073","-0.747131","-0.065369","0.007634","0.015267","-0.007634","9.423169","0.034692","-1.360181","-0.295483","0.044263","-0.107666","0.149536","0.014355","-0.278735"
"M","1617446160.3950517","7","38","32","17","22","57","0.656982","-0.075195","-0.747253","-0.065491","0","0.015267","0","9.417188","0.08374","-1.34104","-0.301465","0.092114","-0.084937","0.137573","0.0646","-0.287109"
"M","1617446160.3851411","7","39","36","17","19","55","0.65686","-0.075195","-0.747375","-0.065552","-0.007634","0.007634","0.007634","9.408813","0.139966","-1.31831","-0.309839","0.147144","-0.058618","0.124414","0.124414","-0.299072"
"M","1617446160.3750665","7","39","32","18","23","58","0.656799","-0.075073","-0.747437","-0.065552","-0.015267","0","0.007634","9.396851","0.174658","-1.302759","-0.320605","0.18064","-0.04187","0.11604","0.160303","-0.312231"
"M","1617446160.365177","7","39","31","18","22","56","0.656799","-0.07489","-0.747498","-0.065491","-0.015267","-0.007634","0","9.372925","0.18064","-1.284814","-0.345728","0.184229","-0.022729","0.101685","0.166284","-0.339746"
"M","1617446160.3552034","7","39","35","15","23","57","0.65686","-0.074768","-0.747498","-0.065369","-0.015267","-0.007634","0","9.337036","0.18064","-1.278833","-0.381616","0.185425","-0.017944","0.101685","0.16748","-0.375635"
"M","1617446160.345231","7","39","37","17","20","57","0.656921","-0.074829","-0.747437","-0.065186","0","-0.007634","-0.007634","9.315503","0.130396","-1.290796","-0.403149","0.13877","-0.031104","0.107666","0.118433","-0.394775"
"M","1617446160.3359363","7","39","36","17","24","57","0.656921","-0.075073","-0.747375","-0.065002","0.007634","0","-0.015267","9.332251","0.040674","-1.312329","-0.385205","0.055029","-0.052637","0.110059","0.0323","-0.374438"
"M","1617446160.3253934","7","40","35","20","24","56","0.65686","-0.075439","-0.747437","-0.065002","0.015267","0.007634","-0.022901","9.384888","-0.028711","-1.315918","-0.333765","-0.00957","-0.055029","0.093311","-0.028711","-0.322998"
"M","1617446160.3157916","7","40","33","16","23","55","0.656738","-0.075806","-0.747437","-0.065002","0.007634","0.007634","-0.022901","9.411206","-0.047852","-1.306348","-0.30625","-0.023926","-0.043066","0.075366","-0.039478","-0.297876"
"M","1617446160.3057697","7","39","35","18","23","57","0.656677","-0.076111","-0.747498","-0.065002","0.007634","0","-0.015267","9.405225","-0.056226","-1.297974","-0.312231","-0.028711","-0.0323","0.0646","-0.043066","-0.305054"
"M","1617446160.2957618","7","39","36","18","24","58","0.656677","-0.076355","-0.747498","-0.065002","0.007634","0","-0.015267","9.402832","-0.057422","-1.300366","-0.314624","-0.026318","-0.034692","0.066992","-0.040674","-0.30625"
"M","1617446160.285992","7","39","33","18","25","58","0.656677","-0.07666","-0.747437","-0.065063","0.007634","0","-0.015267","9.407618","-0.057422","-1.303955","-0.309839","-0.022729","-0.038281","0.070581","-0.038281","-0.301465"
"M","1617446160.2758586","7","38","33","17","24","58","0.656677","-0.076965","-0.747437","-0.065125","0.007634","0","-0.015267","9.431543","-0.066992","-1.297974","-0.285913","-0.029907","-0.0323","0.061011","-0.043066","-0.278735"
"M","1617446160.265888","7","37","35","16","25","58","0.656616","-0.077148","-0.747437","-0.065247","0.007634","0","-0.015267","9.469824","-0.056226","-1.282422","-0.247632","-0.019141","-0.015552","0.04187","-0.028711","-0.242847"
"M","1617446160.2557435","7","41","35","17","24","57","0.656616","-0.077332","-0.747437","-0.065247","0.007634","0","-0.015267","9.478198","-0.014355","-1.2573","-0.239258","0.023926","0.008374","0.026318","0.017944","-0.238062"
"M","1617446160.2457998","7","40","35","18","22","58","0.656555","-0.077576","-0.747437","-0.065247","0.007634","-0.007634","-0.015267","9.461451","-0.004785","-1.245337","-0.256006","0.037085","0.021533","0.017944","0.0323","-0.256006"
"M","1617446160.235819","7","40","34","16","22","58","0.656616","-0.077881","-0.747375","-0.065308","0.015267","-0.007634","-0.015267","9.457861","-0.025122","-1.256104","-0.259595","0.020337","0.00957","0.026318","0.013159","-0.258398"
"M","1617446160.225854","7","38","33","16","20","54","0.656555","-0.078247","-0.747314","-0.065369","0.022901","-0.007634","-0.015267","9.461451","-0.062207","-1.275244","-0.25481","-0.011963","-0.008374","0.037085","-0.020337","-0.251221"
"M","1617446160.2158504","7","40","32","18","20","55","0.656555","-0.078674","-0.747314","-0.065552","0.015267","-0.007634","-0.015267","9.471021","-0.090918","-1.294385","-0.246436","-0.038281","-0.026318","0.047852","-0.050244","-0.240454"
"M","1617446160.205965","7","38","33","20","25","53","0.656616","-0.079041","-0.747192","-0.065735","0.015267","-0.007634","-0.015267","9.468628","-0.095703","-1.301563","-0.248828","-0.040674","-0.035889","0.057422","-0.053833","-0.24165"
"M","1617446160.1959422","7","39","32","18","20","58","0.656677","-0.079224","-0.747131","-0.065857","0","-0.007634","-0.007634","9.459058","-0.082544","-1.296777","-0.258398","-0.026318","-0.0323","0.057422","-0.039478","-0.251221"
"M","1617446160.1857295","7","37","32","18","24","56","0.656738","-0.079346","-0.74707","-0.065857","-0.007634","-0.007634","-0.007634","9.449488","-0.058618","-1.294385","-0.269165","-0.001196","-0.0323","0.0646","-0.015552","-0.261987"
"M","1617446160.1758764","7","38","33","15","22","57","0.65686","-0.079285","-0.746948","-0.065857","-0.007634","-0.007634","-0.007634","9.444702","-0.038281","-1.301563","-0.27395","0.017944","-0.043066","0.078955","0","-0.265576"
"M","1617446160.165823","7","40","36","19","24","57","0.656921","-0.079285","-0.746887","-0.065796","-0.007634","-0.007634","-0.007634","9.444702","-0.029907","-1.294385","-0.27395","0.027515","-0.037085","0.075366","0.00957","-0.266772"
"M","1617446160.1560714","7","38","33","31","23","57","0.657043","-0.079407","-0.746826","-0.065735","0.007634","-0.007634","-0.007634","9.441113","-0.050244","-1.301563","-0.278735","0.00957","-0.046655","0.081348","-0.008374","-0.270361"
"M","1617446160.1458232","7","39","35","20","24","58","0.657043","-0.07959","-0.746765","-0.065796","0.015267","0","-0.015267","9.444702","-0.093311","-1.311133","-0.27395","-0.031104","-0.056226","0.081348","-0.050244","-0.263184"
"M","1617446160.1358771","7","38","35","15","20","55","0.656982","-0.079895","-0.746765","-0.065918","0.015267","0","-0.007634","9.456665","-0.119629","-1.335059","-0.261987","-0.055029","-0.078955","0.096899","-0.077759","-0.248828"
"M","1617446160.1258051","7","38","32","17","20","58","0.656921","-0.080139","-0.746765","-0.066101","0.015267","0","-0.007634","9.463842","-0.102881","-1.348218","-0.25481","-0.038281","-0.092114","0.112451","-0.0646","-0.240454"
"M","1617446160.1160338","7","38","32","17","20","56","0.65686","-0.080261","-0.746826","-0.066345","0.007634","0","0","9.441113","-0.059814","-1.354199","-0.277539","0.001196","-0.095703","0.126807","-0.026318","-0.261987"
"M","1617446160.1058877","7","39","36","16","25","57","0.656799","-0.080261","-0.746826","-0.066528","0","0","0.007634","9.418384","0.004785","-1.357788","-0.300269","0.063403","-0.099292","0.145947","0.031104","-0.284717"
"M","1617446160.095904","7","40","32","15","20","55","0.656799","-0.080139","-0.746826","-0.066711","-0.007634","0","0.015267","9.412402","0.082544","-1.360181","-0.30625","0.137573","-0.101685","0.165088","0.102881","-0.290698"
"M","1617446160.0858524","7","39","33","16","20","53","0.656799","-0.079895","-0.746826","-0.066833","-0.015267","0","0.015267","9.415991","0.161499","-1.366162","-0.302661","0.210547","-0.108862","0.186621","0.173462","-0.287109"
"M","1617446160.0758915","7","38","29","18","23","56","0.656799","-0.079651","-0.746887","-0.066833","-0.007634","0","0.015267","9.418384","0.208154","-1.367358","-0.300269","0.25481","-0.108862","0.194995","0.216528","-0.284717"
"M","1617446160.0658405","7","39","33","17","21","54","0.656799","-0.079529","-0.746887","-0.066895","0","-0.007634","0.007634","9.413599","0.203369","-1.368555","-0.305054","0.247632","-0.110059","0.194995","0.209351","-0.289502"
"M","1617446160.0557926","7","38","33","16","23","56","0.65686","-0.079529","-0.746826","-0.066895","0","-0.007634","0","9.386084","0.174658","-1.374536","-0.332568","0.218921","-0.118433","0.200977","0.179443","-0.314624"
"M","1617446160.0458894","7","16","34","20","22","56","0.657043","-0.079712","-0.746704","-0.066833","0.007634","-0.007634","-0.007634","9.380102","0.118433","-1.375732","-0.339746","0.166284","-0.123218","0.194995","0.126807","-0.321802"
"M","1617446160.0359502","7","40","33","17","22","57","0.657104","-0.079956","-0.746521","-0.066833","0.007634","-0.007634","-0.015267","9.411206","0.052637","-1.369751","-0.307446","0.104077","-0.120825","0.175854","0.066992","-0.289502"
"M","1617446160.0257936","7","38","33","16","23","57","0.657227","-0.0802","-0.74646","-0.066833","0","-0.007634","-0.015267","9.443506","0.016748","-1.354199","-0.276343","0.071777","-0.10647","0.151929","0.039478","-0.260791"
"M","1617446159.6659925","7","39","36","18","25","58","0.655945","-0.088196","-0.746765","-0.065796","0.030534","-0.015267","-0.015267","9.430346","-0.046655","-1.327881","-0.283521","0.123218","-0.045459","0.105273","0.096899","-0.276343"
"M","1617446159.656109","7","38","35","17","22","57","0.656006","-0.088684","-0.746643","-0.06604","0.022901","-0.015267","-0.015267","9.421972","-0.043066","-1.326685","-0.291895","0.130396","-0.045459","0.107666","0.102881","-0.284717"
"M","1617446159.6459382","7","38","32","19","20","56","0.656189","-0.089172","-0.746399","-0.066223","0.030534","-0.015267","-0.015267","9.394458","-0.062207","-1.338647","-0.320605","0.114844","-0.063403","0.12561","0.082544","-0.311035"
"M","1617446159.636255","7","40","35","17","24","58","0.656311","-0.089661","-0.746216","-0.066406","0.030534","-0.015267","-0.015267","9.360962","-0.108862","-1.351807","-0.354102","0.072974","-0.080151","0.136377","0.037085","-0.340942"
"M","1617446159.626053","7","39","40","-1","22","55","0.656494","-0.09021","-0.745972","-0.066711","0.030534","-0.015267","-0.015267","9.329859","-0.16748","-1.369751","-0.386401","0.016748","-0.102881","0.149536","-0.023926","-0.369653"
"M","1617446159.616964","7","39","33","15","24","58","0.656616","-0.090759","-0.745789","-0.067017","0.030534","-0.007634","-0.015267","9.327466","-0.203369","-1.378125","-0.388794","-0.014355","-0.114844","0.154321","-0.057422","-0.369653"
"M","1617446159.6062615","7","39","31","16","24","55","0.656677","-0.091187","-0.745667","-0.067322","0.022901","-0.007634","-0.007634","9.338232","-0.22251","-1.379321","-0.379224","-0.0323","-0.118433","0.153125","-0.075366","-0.360083"
"M","1617446159.5960677","7","41","32","17","20","57","0.656677","-0.091492","-0.745544","-0.067627","0.015267","0","-0.007634","9.350195","-0.197388","-1.375732","-0.366064","-0.007178","-0.117236","0.155518","-0.050244","-0.346924"
"M","1617446159.586243","7","39","35","20","11","58","0.656616","-0.091675","-0.745544","-0.06781","0.007634","0.007634","-0.007634","9.371729","-0.141162","-1.36377","-0.344531","0.046655","-0.104077","0.151929","0.004785","-0.328979"
"M","1617446159.575971","7","39","35","19","23","55","0.656555","-0.091919","-0.745605","-0.067932","0.015267","0.007634","-0.007634","9.380102","-0.108862","-1.364966","-0.336157","0.080151","-0.102881","0.15791","0.038281","-0.320605"
"M","1617446159.566152","7","39","33","16","24","57","0.656494","-0.092224","-0.745605","-0.068054","0.022901","0.007634","-0.007634","9.363355","-0.120825","-1.384106","-0.352905","0.070581","-0.120825","0.174658","0.023926","-0.334961"
"M","1617446159.5562036","7","39","31","16","20","58","0.656372","-0.092651","-0.745605","-0.068237","0.022901","0.007634","-0.015267","9.353785","-0.13877","-1.396069","-0.361279","0.055029","-0.130396","0.181836","0.005981","-0.342139"
"M","1617446159.5461457","7","40","34","17","8","21","0.656311","-0.093018","-0.745605","-0.068359","0.015267","0.007634","-0.015267","9.352588","-0.163892","-1.397266","-0.362476","0.033496","-0.130396","0.177051","-0.014355","-0.342139"
"M","1617446159.5360792","7","38","33","17","20","58","0.656189","-0.093323","-0.745667","-0.068481","0.007634","0.007634","-0.015267","9.35498","-0.179443","-1.393677","-0.360083","0.019141","-0.124414","0.16748","-0.026318","-0.340942"
"M","1617446159.52697","7","39","32","16","20","57","0.656128","-0.093445","-0.745728","-0.06842","-0.007634","0.007634","-0.007634","9.359766","-0.171069","-1.376929","-0.355298","0.029907","-0.105273","0.150732","-0.011963","-0.33855"
"M","1617446159.516708","7","38","33","15","24","56","0.656067","-0.093506","-0.745789","-0.068298","-0.015267","0.007634","-0.007634","9.363355","-0.172266","-1.356592","-0.351709","0.031104","-0.08374","0.130396","-0.005981","-0.337354"
"M","1617446159.5067046","7","40","33","20","23","55","0.656006","-0.093384","-0.74585","-0.068054","-0.022901","0","-0.007634","9.383692","-0.16748","-1.337451","-0.330176","0.038281","-0.062207","0.108862","0.005981","-0.319409"
"M","1617446159.4969082","7","39","33","16","18","57","0.656067","-0.093262","-0.745911","-0.067749","-0.022901","-0.007634","-0.015267","9.375318","-0.149536","-1.306348","-0.339746","0.058618","-0.031104","0.08374","0.0323","-0.333765"
"M","1617446159.48672","7","39","32","18","24","57","0.656189","-0.093262","-0.745789","-0.067322","-0.007634","-0.015267","-0.015267","9.31311","-0.191406","-1.303955","-0.400757","0.023926","-0.031104","0.08374","-0.003589","-0.393579"
"M","1617446159.476828","7","38","35","20","23","58","0.656372","-0.093445","-0.745605","-0.067139","0","-0.015267","-0.015267","9.262866","-0.283521","-1.319507","-0.452197","-0.062207","-0.05144","0.089722","-0.094507","-0.439038"
"M","1617446159.4668088","7","39","32","20","22","57","0.656555","-0.093628","-0.745422","-0.067078","0.007634","-0.007634","-0.015267","9.260473","-0.34812","-1.336255","-0.45459","-0.123218","-0.072974","0.096899","-0.159106","-0.437842"
"M","1617446159.45682","7","40","35","18","22","55","0.656616","-0.093872","-0.745361","-0.067139","0.007634","0.007634","-0.007634","9.326269","-0.397168","-1.338647","-0.388794","-0.169873","-0.076563","0.081348","-0.202173","-0.37085"
"M","1617446159.4467542","7","38","31","18","24","58","0.656494","-0.093994","-0.745422","-0.067261","0.007634","0.015267","0","9.412402","-0.403149","-1.348218","-0.302661","-0.175854","-0.08374","0.076563","-0.204565","-0.284717"
"M","1617446159.4369245","7","39","32","15","25","56","0.65625","-0.093994","-0.745605","-0.067444","0","0.015267","0","9.479395","-0.372046","-1.353003","-0.234473","-0.14834","-0.082544","0.07417","-0.174658","-0.217725"
"M","1617446159.4269676","7","39","33","15","20","56","0.656067","-0.093872","-0.745789","-0.067627","-0.007634","0.007634","0.007634","9.496142","-0.328979","-1.367358","-0.217725","-0.110059","-0.092114","0.089722","-0.13877","-0.200977"
"M","1617446159.4167907","7","38","32","17","20","56","0.656006","-0.093567","-0.745911","-0.067871","-0.007634","0","0.015267","9.472217","-0.261987","-1.379321","-0.242847","-0.050244","-0.102881","0.117236","-0.08374","-0.226099"
"M","1617446159.4068863","7","37","36","17","20","56","0.656006","-0.093201","-0.745911","-0.068054","-0.007634","-0.015267","0.022901","9.437525","-0.191406","-1.391284","-0.276343","0.011963","-0.11604","0.14834","-0.027515","-0.258398"
"M","1617446159.3968534","7","38","35","20","19","55","0.656128","-0.092834","-0.745789","-0.06842","0.007634","-0.022901","0.030534","9.405225","-0.165088","-1.416406","-0.309839","0.027515","-0.145947","0.184229","-0.020337","-0.288306"
"M","1617446159.3869412","7","40","33","19","20","56","0.656311","-0.092651","-0.745605","-0.069031","0.022901","-0.022901","0.030534","9.396851","-0.162695","-1.439136","-0.319409","0.020337","-0.174658","0.211743","-0.033496","-0.294287"
"M","1617446159.3769808","7","38","33","17","18","56","0.656494","-0.09259","-0.745361","-0.069763","0.030534","-0.022901","0.030534","9.395655","-0.161499","-1.446314","-0.320605","0.00957","-0.189014","0.22251","-0.047852","-0.293091"
"M","1617446159.366066","7","38","32","15","22","58","0.656738","-0.092468","-0.745117","-0.070679","0.022901","-0.015267","0.030534","9.444702","-0.112451","-1.442725","-0.27395","0.045459","-0.192603","0.228491","-0.010767","-0.247632"
"M","1617446159.3567133","7","39","33","20","24","56","0.65686","-0.092224","-0.744934","-0.071472","0.007634","-0.007634","0.030534","9.559546","0.004785","-1.380518","-0.159106","0.14834","-0.136377","0.184229","0.105273","-0.142358"
"M","1617446159.346913","7","39","32","17","24","58","0.656921","-0.091797","-0.744873","-0.072021","0","-0.015267","0.030534","9.658838","0.144751","-1.297974","-0.061011","0.275146","-0.057422","0.12561","0.251221","-0.056226"
"M","1617446159.3362403","7","38","33","17","23","56","0.657166","-0.091431","-0.74469","-0.072449","0","-0.038168","0.030534","9.692334","0.234473","-1.211841","-0.028711","0.354102","0.020337","0.0646","0.346924","-0.034692"
"M","1617446159.3268034","7","41","33","16","21","58","0.657593","-0.091064","-0.744324","-0.072876","0.007634","-0.068702","0.030534","9.610987","0.284717","-1.14126","-0.112451","0.394775","0.078955","0.027515","0.397168","-0.12561"
"M","1617446159.3169644","7","38","32","17","21","56","0.658325","-0.090881","-0.743591","-0.073364","0.015267","-0.091603","0.022901","9.467432","0.313428","-1.114941","-0.257202","0.416309","0.08374","0.045459","0.413916","-0.269165"
"M","1617446159.3068266","7","40","31","17","22","58","0.659363","-0.09082","-0.742615","-0.073975","0.030534","-0.099237","0.022901","9.356176","0.312231","-1.111353","-0.372046","0.409131","0.058618","0.080151","0.397168","-0.379224"
"M","1617446159.296793","7","41","35","18","23","55","0.660461","-0.091003","-0.741577","-0.074768","0.053435","-0.099237","0.022901","9.317896","0.267969","-1.107764","-0.415112","0.358887","0.0323","0.098096","0.340942","-0.418701"
"M","1617446159.2869003","7","38","35","17","21","57","0.661438","-0.09137","-0.740601","-0.075745","0.068702","-0.091603","0.022901","9.329859","0.198584","-1.128101","-0.406738","0.283521","-0.014355","0.124414","0.257202","-0.404346"
"M","1617446159.2768197","7","40","37","20","20","57","0.662292","-0.091736","-0.739624","-0.076904","0.068702","-0.076336","0.030534","9.380102","0.133984","-1.149634","-0.358887","0.209351","-0.062207","0.147144","0.175854","-0.350513"
"M","1617446159.2667544","7","39","37","16","24","57","0.662964","-0.09198","-0.738892","-0.078125","0.053435","-0.061069","0.030534","9.454272","0.11604","-1.168774","-0.287109","0.179443","-0.101685","0.169873","0.139966","-0.275146"
"M","1617446159.256792","7","41","38","18","25","55","0.663452","-0.092041","-0.738281","-0.079224","0.030534","-0.053435","0.030534","9.504517","0.162695","-1.181934","-0.238062","0.212939","-0.131592","0.202173","0.16748","-0.22251"
"M","1617446159.2467952","7","39","32","-1","24","58","0.664001","-0.091919","-0.737793","-0.080017","0.015267","-0.045802","0.022901","9.491358","0.24165","-1.204663","-0.253613","0.279932","-0.169873","0.257202","0.22251","-0.234473"
"M","1617446159.2370176","7","38","33","18","25","58","0.66449","-0.091858","-0.737244","-0.080505","0.007634","-0.045802","0.007634","9.455469","0.322998","-1.226196","-0.290698","0.355298","-0.206958","0.314624","0.285913","-0.267969"
"M","1617446159.2268808","7","39","36","17","21","53","0.665039","-0.091858","-0.736755","-0.080688","0.007634","-0.038168","0","9.454272","0.367261","-1.24773","-0.294287","0.398364","-0.242847","0.358887","0.319409","-0.269165"
"M","1617446159.2170284","7","40","37","19","24","55","0.665405","-0.091919","-0.736389","-0.08075","0.007634","-0.022901","0","9.497339","0.350513","-1.263281","-0.251221","0.382812","-0.269165","0.376831","0.299072","-0.223706"
"M","1617446159.2068884","7","40","33","18","25","58","0.66571","-0.092163","-0.736084","-0.08075","0.007634","-0.007634","-0.015267","9.542798","0.319409","-1.270459","-0.206958","0.356494","-0.283521","0.379224","0.270361","-0.178247"
"M","1617446159.196982","7","42","37","20","25","57","0.665833","-0.092529","-0.735962","-0.080688","0.007634","0","-0.015267","9.597827","0.272754","-1.275244","-0.151929","0.31582","-0.290698","0.372046","0.230884","-0.123218"
"M","1617446159.187044","7","38","35","18","22","57","0.665894","-0.092834","-0.735901","-0.080627","0","0.007634","-0.015267","9.648071","0.250024","-1.265674","-0.102881","0.297876","-0.282324","0.354102","0.216528","-0.075366"
"M","1617446159.1769278","7","40","35","18","23","58","0.665894","-0.093079","-0.73584","-0.080322","-0.015267","0.007634","-0.015267","9.667212","0.24165","-1.256104","-0.082544","0.297876","-0.272754","0.343335","0.220117","-0.056226"
"M","1617446159.1668408","7","39","35","15","23","58","0.665955","-0.093079","-0.73584","-0.079895","-0.030534","0","-0.015267","9.654053","0.234473","-1.238159","-0.095703","0.29668","-0.25481","0.326587","0.22251","-0.070581"
"M","1617446159.1570358","7","41","33","18","22","58","0.666077","-0.093079","-0.735779","-0.079407","-0.030534","-0.007634","-0.015267","9.606201","0.204565","-1.232178","-0.143555","0.27395","-0.251221","0.321802","0.19978","-0.119629"
"M","1617446159.1469913","7","38","33","17","22","58","0.666321","-0.093018","-0.735657","-0.078857","-0.030534","-0.015267","-0.015267","9.538013","0.149536","-1.242944","-0.212939","0.227295","-0.265576","0.331372","0.149536","-0.186621"
"M","1617446159.1370687","7","40","33","16","23","58","0.666565","-0.092896","-0.735474","-0.078308","-0.038168","-0.015267","-0.015267","9.486572","0.105273","-1.244141","-0.26438","0.189014","-0.272754","0.333765","0.108862","-0.236865"
"M","1617446159.1269348","7","39","35","19","22","58","0.666809","-0.092651","-0.735352","-0.077698","-0.045802","-0.007634","-0.007634","9.439917","0.075366","-1.241748","-0.311035","0.166284","-0.27395","0.332568","0.084937","-0.283521"
"M","1617446159.1168263","7","39","33","25","23","58","0.666992","-0.092285","-0.735291","-0.077087","-0.053435","0.007634","-0.007634","9.431543","0.063403","-1.225","-0.319409","0.15791","-0.260791","0.319409","0.080151","-0.293091"
"M","1617446159.1069963","7","38","33","15","22","54","0.666992","-0.091858","-0.735413","-0.076294","-0.053435","0.022901","-0.007634","9.456665","0.052637","-1.195093","-0.294287","0.153125","-0.228491","0.283521","0.084937","-0.271558"
"M","1617446159.0970492","7","39","33","20","20","58","0.66687","-0.091492","-0.735718","-0.0755","-0.045802","0.030534","-0.007634","9.475805","0.017944","-1.1604","-0.275146","0.124414","-0.187817","0.235669","0.066992","-0.256006"
"M","1617446159.086979","7","40","33","19","23","58","0.666626","-0.091187","-0.736023","-0.07489","-0.038168","0.030534","-0.007634","9.438721","-0.059814","-1.136475","-0.311035","0.050244","-0.155518","0.191406","0.001196","-0.294287"
"M","1617446159.0769496","7","41","31","18","22","58","0.666382","-0.090881","-0.736328","-0.074402","-0.038168","0.022901","0.007634","9.374121","-0.105273","-1.116138","-0.375635","0.007178","-0.126807","0.159106","-0.034692","-0.360083"
"M","1617446159.0670304","7","40","33","18","24","58","0.666199","-0.090393","-0.736572","-0.074158","-0.038168","0.007634","0.022901","9.32268","-0.112451","-1.089819","-0.425879","-0.002393","-0.095703","0.132788","-0.038281","-0.413916"
"M","1617446159.057092","7","39","31","17","23","57","0.666138","-0.0896","-0.736694","-0.074036","-0.045802","0","0.030534","9.272436","-0.10647","-1.069482","-0.474927","-0.004785","-0.07417","0.11604","-0.037085","-0.46416"
"M","1617446159.0470374","7","38","36","21","20","58","0.666199","-0.088745","-0.736816","-0.074036","-0.045802","-0.007634","0.030534","9.216211","-0.07417","-1.052734","-0.532349","0.014355","-0.057422","0.110059","-0.015552","-0.522778"
"M","1617446159.0370526","7","39","32","18","23","57","0.666321","-0.087769","-0.736816","-0.073914","-0.053435","-0.015267","0.030534","9.146826","-0.00957","-1.038379","-0.60293","0.068188","-0.046655","0.118433","0.037085","-0.594556"
"M","1617446159.0271454","7","39","35","18","22","58","0.666504","-0.086853","-0.736755","-0.073669","-0.053435","-0.015267","0.015267","9.09419","0.052637","-1.026416","-0.655566","0.123218","-0.039478","0.129199","0.090918","-0.648389"
"M","1617446159.0169752","7","38","35","19","22","58","0.666748","-0.086182","-0.736633","-0.073303","-0.030534","-0.007634","0.007634","9.079834","0.072974","-1.039575","-0.669922","0.139966","-0.057422","0.150732","0.102881","-0.661548"
"M","1617446159.007015","7","39","33","19","24","58","0.666809","-0.085999","-0.736633","-0.07312","0","0.007634","0","9.170752","0.007178","-1.062305","-0.579004","0.075366","-0.081348","0.150732","0.038281","-0.568237"
