timestamp,user_id,flex_1,flex_2,flex_3,flex_4,flex_5,Qw,Qx,Qy,Qz,GYRx,GYRy,GYRz,ACCx,ACCy,ACCz,ACCx_body,ACCy_body,ACCz_body,ACCx_world,ACCy_world,ACCz_world,Alphabet
1616136952.4099717,1,43.0,17.0,66.0,31.0,48.0,0.646729,0.677124,-0.350708,-0.012146,-0.007634,0.0,0.0,4.559058,9.173144,-1.844678,0.27395,0.50603,-0.245239,0.088525,0.119629,0.606519,me
1616136952.4193068,1,48.0,17.0,67.0,74.0,53.0,0.646729,0.677124,-0.350647,-0.012146,-0.007634,0.0,-0.007634,4.550683,9.171948,-1.838696,0.266772,0.504834,-0.240454,0.081348,0.118433,0.601733,me
1616136952.4297762,1,41.0,19.0,70.0,72.0,53.0,0.646729,0.677185,-0.350647,-0.012146,-0.007634,0.0,-0.007634,4.545898,9.157593,-1.831519,0.261987,0.489282,-0.23208,0.081348,0.112451,0.584985,me
1616136952.4393616,1,42.0,17.0,70.0,69.0,52.0,0.646729,0.677185,-0.350647,-0.012146,-0.007634,0.0,-0.007634,4.549487,9.14563,-1.815967,0.265576,0.477319,-0.216528,0.082544,0.095703,0.573022,me
1616136952.4499507,1,41.0,20.0,68.0,74.0,55.0,0.646729,0.677185,-0.350586,-0.012146,-0.007634,0.0,-0.007634,4.555469,9.148023,-1.8052,0.271558,0.479712,-0.206958,0.081348,0.084937,0.576611,me
1616136952.459129,1,47.0,17.0,64.0,69.0,55.0,0.646729,0.677185,-0.350586,-0.012207,-0.007634,0.0,-0.007634,4.55188,9.143237,-1.8052,0.269165,0.474927,-0.206958,0.081348,0.086133,0.57063,me
1616136952.4697993,1,43.0,16.0,69.0,68.0,54.0,0.646729,0.677246,-0.350586,-0.012207,-0.007634,0.0,-0.007634,4.555469,9.138453,-1.818359,0.272754,0.468945,-0.218921,0.092114,0.094507,0.569434,me
1616136952.4791174,1,44.0,19.0,70.0,70.0,56.0,0.646667,0.677307,-0.350525,-0.012146,0.0,0.0,-0.007634,4.555469,9.146826,-1.825537,0.272754,0.478516,-0.224902,0.090918,0.100488,0.579004,me
1616136952.489774,1,44.0,17.0,70.0,71.0,53.0,0.646606,0.677368,-0.350525,-0.012146,0.0,0.0,-0.007634,4.554273,9.159986,-1.820752,0.272754,0.491675,-0.218921,0.082544,0.095703,0.58977,me
1616136952.49905,1,43.0,19.0,69.0,72.0,57.0,0.646606,0.677429,-0.350525,-0.012207,-0.007634,-0.007634,-0.007634,4.55188,9.174341,-1.820752,0.271558,0.504834,-0.217725,0.07417,0.096899,0.600537,me
1616136952.5091825,1,34.0,17.0,72.0,70.0,52.0,0.646545,0.677429,-0.350464,-0.012268,-0.007634,-0.007634,-0.007634,4.549487,9.179126,-1.823145,0.270361,0.509619,-0.220117,0.072974,0.099292,0.604126,me
1616136952.5190804,1,45.0,13.0,65.0,68.0,55.0,0.646545,0.677429,-0.350464,-0.012329,-0.007634,-0.007634,-0.007634,4.547095,9.17793,-1.825537,0.269165,0.508423,-0.22251,0.07417,0.101685,0.60293,me
1616136952.529832,1,44.0,17.0,69.0,68.0,55.0,0.646545,0.67749,-0.350464,-0.01239,-0.007634,-0.007634,-0.007634,4.55188,9.181519,-1.823145,0.275146,0.510815,-0.218921,0.075366,0.095703,0.607715,me
1616136952.5391104,1,44.0,17.0,70.0,71.0,53.0,0.646484,0.67749,-0.350464,-0.01239,-0.007634,0.0,-0.007634,4.556665,9.179126,-1.831519,0.279932,0.508423,-0.226099,0.08374,0.099292,0.608911,me
1616136952.549931,1,44.0,17.0,66.0,70.0,55.0,0.646484,0.67749,-0.350464,-0.01239,-0.007634,0.0,-0.007634,4.553076,9.167163,-1.833911,0.276343,0.49646,-0.228491,0.087329,0.102881,0.596948,me
1616136952.5591438,1,43.0,17.0,69.0,70.0,49.0,0.646423,0.677551,-0.350464,-0.012329,0.0,0.0,-0.007634,4.550683,9.16477,-1.835107,0.27395,0.495264,-0.228491,0.086133,0.102881,0.594556,me
1616136952.569296,1,45.0,21.0,69.0,71.0,57.0,0.646423,0.677612,-0.350403,-0.012329,0.0,0.0,-0.007634,4.549487,9.174341,-1.818359,0.272754,0.503638,-0.211743,0.072974,0.089722,0.598145,me
1616136952.5789511,1,43.0,19.0,71.0,70.0,55.0,0.646423,0.677612,-0.350403,-0.012268,-0.007634,0.0,-0.007634,4.54231,9.186304,-1.809985,0.265576,0.515601,-0.203369,0.058618,0.087329,0.605322,me
1616136952.5893097,1,43.0,16.0,70.0,68.0,49.0,0.646362,0.677673,-0.350403,-0.012268,-0.007634,0.0,-0.007634,4.537524,9.186304,-1.81477,0.260791,0.516797,-0.205762,0.055029,0.092114,0.604126,me
1616136952.5990736,1,44.0,19.0,68.0,71.0,53.0,0.646362,0.677673,-0.350342,-0.012329,-0.007634,0.0,-0.007634,4.539917,9.175537,-1.813574,0.26438,0.504834,-0.205762,0.063403,0.088525,0.594556,me
1616136952.6091824,1,44.0,18.0,69.0,73.0,51.0,0.646362,0.677673,-0.350342,-0.01239,-0.007634,0.0,-0.007634,4.539917,9.174341,-1.807593,0.265576,0.503638,-0.19978,0.062207,0.08374,0.593359,me
1616136952.619459,1,43.0,20.0,72.0,70.0,56.0,0.646362,0.677673,-0.350281,-0.012451,-0.007634,0.0,-0.007634,4.545898,9.167163,-1.804004,0.272754,0.495264,-0.196191,0.070581,0.075366,0.588574,me
1616136952.6290376,1,43.0,16.0,69.0,71.0,53.0,0.646423,0.677734,-0.35022,-0.012512,-0.007634,0.0,-0.007634,4.547095,9.1552,-1.811182,0.275146,0.482104,-0.203369,0.081348,0.080151,0.579004,me
1616136952.6391437,1,48.0,20.0,70.0,72.0,57.0,0.646423,0.677795,-0.350098,-0.012512,-0.007634,0.0,-0.007634,4.544702,9.144434,-1.815967,0.275146,0.470142,-0.208154,0.089722,0.082544,0.569434,me
1616136952.6491363,1,44.0,17.0,70.0,70.0,53.0,0.646423,0.677795,-0.350037,-0.012573,-0.007634,0.0,-0.015267,4.539917,9.157593,-1.813574,0.271558,0.483301,-0.206958,0.080151,0.084937,0.579004,me
1616136952.659334,1,43.0,17.0,69.0,70.0,55.0,0.646484,0.677795,-0.349915,-0.012756,-0.015267,-0.007634,-0.015267,4.52915,9.150415,-1.799219,0.26438,0.47373,-0.193799,0.072974,0.076563,0.565845,me
1616136952.6690428,1,43.0,15.0,67.0,71.0,54.0,0.646545,0.677734,-0.349854,-0.012939,-0.015267,-0.007634,-0.015267,4.524365,9.131274,-1.802808,0.261987,0.453394,-0.19978,0.08374,0.080151,0.5479,me
1616136952.6791546,1,45.0,17.0,70.0,73.0,57.0,0.646606,0.677795,-0.349731,-0.013123,-0.015267,-0.007634,-0.022901,4.52915,9.109741,-1.811182,0.270361,0.429468,-0.209351,0.105273,0.082544,0.531152,me
1616136952.6892593,1,45.0,15.0,70.0,71.0,56.0,0.646606,0.677856,-0.349548,-0.013306,-0.007634,-0.007634,-0.022901,4.537524,9.104956,-1.82793,0.283521,0.42229,-0.226099,0.126807,0.089722,0.533545,me
1616136952.699068,1,44.0,21.0,71.0,68.0,54.0,0.646606,0.677917,-0.349426,-0.013489,-0.007634,-0.007634,-0.022901,4.539917,9.114527,-1.843481,0.289502,0.429468,-0.24165,0.135181,0.101685,0.545508,me
1616136952.7091355,1,44.0,19.0,69.0,71.0,52.0,0.646545,0.67804,-0.349365,-0.013672,-0.007634,-0.007634,-0.015267,4.547095,9.138453,-1.857837,0.301465,0.452197,-0.253613,0.139966,0.107666,0.571826,me
1616136952.7190278,1,44.0,19.0,66.0,71.0,52.0,0.646484,0.678101,-0.349304,-0.013855,-0.007634,-0.007634,-0.015267,4.557861,9.162378,-1.867407,0.31582,0.474927,-0.261987,0.144751,0.108862,0.600537,me
1616136952.7291057,1,45.0,19.0,67.0,68.0,54.0,0.646362,0.678223,-0.349182,-0.013977,0.0,0.0,-0.015267,4.567431,9.193481,-1.867407,0.328979,0.504834,-0.260791,0.141162,0.104077,0.631641,me
1616136952.7390685,1,43.0,21.0,69.0,68.0,52.0,0.646362,0.678345,-0.34906,-0.013977,0.0,0.0,-0.015267,4.569824,9.209033,-1.859033,0.332568,0.519189,-0.251221,0.132788,0.094507,0.6448,me
1616136952.7491124,1,42.0,19.0,68.0,71.0,54.0,0.646301,0.678406,-0.348938,-0.014038,0.0,0.0,-0.015267,4.562646,9.220996,-1.855444,0.328979,0.531152,-0.246436,0.122021,0.093311,0.653174,me
1616136952.7590406,1,44.0,20.0,69.0,72.0,53.0,0.646301,0.678528,-0.348755,-0.014099,0.0,0.0,-0.015267,4.557861,9.224585,-1.842285,0.326587,0.532349,-0.233276,0.113647,0.082544,0.650781,me
1616136952.7690823,1,45.0,16.0,66.0,70.0,57.0,0.646301,0.678589,-0.348633,-0.014099,-0.007634,0.0,-0.015267,4.537524,9.213819,-1.819556,0.308643,0.520386,-0.210547,0.094507,0.071777,0.629248,me
1616136952.779101,1,43.0,21.0,70.0,73.0,56.0,0.646362,0.67865,-0.348389,-0.01416,-0.007634,0.0,-0.015267,4.508813,9.193481,-1.812378,0.283521,0.498853,-0.204565,0.08374,0.076563,0.598145,me
1616136952.7890573,1,47.0,22.0,70.0,71.0,57.0,0.646301,0.678772,-0.348206,-0.014343,0.0,0.0,-0.022901,4.483691,9.170752,-1.807593,0.263184,0.47373,-0.198584,0.076563,0.078955,0.565845,me
1616136952.7989962,1,44.0,20.0,70.0,72.0,58.0,0.64624,0.678955,-0.348083,-0.014526,0.0,-0.007634,-0.022901,4.47771,9.151611,-1.8052,0.261987,0.452197,-0.194995,0.08374,0.075366,0.545508,me
1616136952.809064,1,44.0,18.0,70.0,70.0,57.0,0.646118,0.679077,-0.348022,-0.014709,0.0,-0.007634,-0.022901,4.478906,9.144434,-1.793237,0.266772,0.443823,-0.179443,0.084937,0.058618,0.537134,me
1616136952.819133,1,45.0,19.0,69.0,72.0,54.0,0.645935,0.67926,-0.3479,-0.014893,0.007634,-0.015267,-0.022901,4.494458,9.149219,-1.78606,0.287109,0.447412,-0.168677,0.093311,0.038281,0.5479,me
1616136952.8291109,1,45.0,22.0,72.0,71.0,57.0,0.645813,0.679504,-0.347778,-0.015137,0.007634,-0.015267,-0.022901,4.524365,9.159986,-1.780078,0.322998,0.45459,-0.159106,0.112451,0.013159,0.568237,me
1616136952.8389106,1,45.0,17.0,72.0,70.0,57.0,0.64563,0.679688,-0.347717,-0.01532,0.007634,-0.015267,-0.030534,4.578198,9.180323,-1.759741,0.381616,0.47373,-0.133984,0.136377,-0.035889,0.605322,me
1616136952.8491082,1,43.0,17.0,69.0,68.0,55.0,0.645447,0.679932,-0.347595,-0.015503,0.007634,-0.015267,-0.030534,4.642798,9.199463,-1.735815,0.451001,0.491675,-0.105273,0.168677,-0.093311,0.647192,me
1616136952.859017,1,45.0,19.0,69.0,70.0,55.0,0.645264,0.680176,-0.347412,-0.015747,0.007634,-0.015267,-0.030534,4.689453,9.230566,-1.699927,0.504834,0.520386,-0.065796,0.177051,-0.153125,0.687866,me
1616136952.869038,1,45.0,17.0,68.0,70.0,55.0,0.645203,0.680298,-0.347229,-0.016052,0.0,-0.015267,-0.038168,4.733716,9.253296,-1.666431,0.556274,0.540723,-0.031104,0.191406,-0.206958,0.722559,me
1616136952.879078,1,45.0,17.0,70.0,72.0,56.0,0.645203,0.68042,-0.347046,-0.016357,-0.007634,-0.015267,-0.038168,4.763623,9.278418,-1.642505,0.592163,0.562256,-0.007178,0.198584,-0.244043,0.752466,me
1616136952.8889298,1,48.0,19.0,70.0,66.0,58.0,0.645264,0.680481,-0.346741,-0.016724,-0.007634,-0.007634,-0.038168,4.76123,9.305933,-1.612598,0.598145,0.584985,0.020337,0.18064,-0.269165,0.77041,me
1616136952.8989987,1,42.0,20.0,69.0,72.0,57.0,0.645447,0.680542,-0.346375,-0.01709,-0.015267,-0.007634,-0.038168,4.736108,9.334643,-1.600635,0.581396,0.608911,0.027515,0.154321,-0.265576,0.783569,me
1616136952.908949,1,45.0,17.0,68.0,69.0,53.0,0.645569,0.680542,-0.346008,-0.017517,-0.015267,-0.007634,-0.038168,4.725342,9.353785,-1.601831,0.5802,0.623267,0.022729,0.150732,-0.259595,0.796728,me
1616136952.9188836,1,23.0,20.0,70.0,73.0,56.0,0.645691,0.680542,-0.345703,-0.017883,-0.015267,-0.007634,-0.030534,4.746875,9.337036,-1.598242,0.610107,0.60293,0.022729,0.183032,-0.276343,0.790747,me
1616136952.9290287,1,44.0,17.0,69.0,72.0,53.0,0.645752,0.680603,-0.345581,-0.018005,0.0,-0.007634,-0.022901,4.787549,9.30354,-1.586279,0.653174,0.567041,0.033496,0.227295,-0.309839,0.775195,me
1616136952.9389994,1,43.0,16.0,66.0,73.0,54.0,0.645569,0.680786,-0.345581,-0.017944,0.015267,-0.007634,-0.015267,4.855737,9.296362,-1.570728,0.721362,0.559863,0.053833,0.272754,-0.361279,0.794336,me
1616136952.9490433,1,47.0,19.0,69.0,70.0,56.0,0.645264,0.68103,-0.345703,-0.0177,0.030534,-0.007634,-0.007634,4.931104,9.337036,-1.555176,0.794336,0.60293,0.077759,0.29668,-0.415112,0.858936,me
1616136952.9589398,1,44.0,19.0,52.0,71.0,55.0,0.644836,0.681274,-0.345947,-0.017273,0.045802,-0.015267,0.007634,5.005273,9.462646,-1.551587,0.862524,0.734522,0.090918,0.282324,-0.452197,1.00249,me
1616136952.9690063,1,46.0,14.0,69.0,68.0,54.0,0.644409,0.681519,-0.346313,-0.016846,0.038168,-0.015267,0.015267,5.093799,9.686353,-1.559961,0.943872,0.963013,0.094507,0.238062,-0.479712,1.240552,me
1616136952.97885,1,44.0,19.0,70.0,68.0,56.0,0.644165,0.681641,-0.346619,-0.016479,0.022901,-0.007634,0.015267,5.217017,9.968677,-1.588672,1.059912,1.250122,0.072974,0.205762,-0.498853,1.549194,me
1616136952.988846,1,45.0,17.0,68.0,73.0,55.0,0.644226,0.681458,-0.346863,-0.016174,-0.007634,-0.007634,0.015267,5.373731,10.267749,-1.65686,1.209448,1.552783,0.002393,0.214136,-0.488086,1.893726,me
1616136952.9989655,1,47.0,19.0,70.0,67.0,52.0,0.644653,0.680908,-0.347046,-0.01593,-0.045802,0.007634,0.007634,5.583081,10.562037,-1.780078,1.410425,1.849463,-0.130396,0.294287,-0.448608,2.265771,me
1616136953.0091324,1,44.0,19.0,72.0,67.0,55.0,0.645569,0.680115,-0.347046,-0.015686,-0.076336,0.030534,0.007634,5.830713,10.858716,-1.973877,1.648486,2.146142,-0.346924,0.442627,-0.350513,2.668921,me
1616136953.0188887,1,45.0,17.0,69.0,73.0,57.0,0.646729,0.679077,-0.346924,-0.015564,-0.114504,0.038168,0.0,6.081933,11.270239,-2.342334,1.891333,2.55647,-0.744092,0.631641,-0.086133,3.202466,me
1616136953.029071,1,47.0,20.0,69.0,71.0,53.0,0.648071,0.677795,-0.346741,-0.015747,-0.167939,0.030534,-0.007634,6.395361,11.909058,-2.880664,2.199975,3.191699,-1.31831,0.85415,0.321802,3.989624,me
1616136953.0389185,1,43.0,20.0,70.0,72.0,53.0,0.649902,0.676147,-0.346558,-0.016418,-0.236641,0.038168,-0.022901,6.875073,12.794312,-3.590064,2.677295,4.069776,-2.074365,1.191504,0.832617,5.09021,me
1616136953.0488486,1,43.0,16.0,70.0,73.0,55.0,0.652527,0.673767,-0.346252,-0.017517,-0.343511,0.053435,-0.022901,7.527051,13.928393,-4.438232,3.329273,5.191895,-2.989526,1.646094,1.436743,6.494653,me
1616136953.0589626,1,49.0,19.0,69.0,71.0,58.0,0.656494,0.670227,-0.345581,-0.018372,-0.465649,0.129771,-0.015267,8.370435,15.133057,-5.377319,4.164282,6.384595,-4.031494,2.290894,2.110254,8.039062,me
1616136953.0689316,1,43.0,17.0,69.0,69.0,57.0,0.662231,0.665344,-0.344055,-0.018127,-0.59542,0.282443,0.007634,9.33584,16.13435,-6.270947,5.105762,7.375122,-5.073462,3.1271,2.787354,9.413599,me
1616136953.0790071,1,47.0,19.0,69.0,73.0,57.0,0.670044,0.658997,-0.341309,-0.015686,-0.709924,0.48855,0.068702,10.32876,16.770777,-7.037768,6.048438,8.010351,-6.04126,4.088916,3.470435,10.413696,me
1616136953.0889003,1,45.0,16.0,68.0,72.0,54.0,0.679565,0.651428,-0.337219,-0.010071,-0.778626,0.717557,0.160305,11.109937,16.96936,-7.737597,6.745874,8.225683,-6.991113,5.004077,4.328174,10.874268,me
1616136953.098946,1,44.0,21.0,73.0,73.0,57.0,0.68988,0.64325,-0.332031,-0.001465,-0.78626,0.916031,0.259542,11.529834,16.860498,-8.390772,7.058105,8.15271,-7.919434,5.677588,5.39646,10.84436,me
1616136953.1090293,1,45.0,16.0,70.0,71.0,53.0,0.7005,0.634644,-0.325989,0.010132,-0.763359,1.083969,0.374046,11.684155,16.521948,-8.834595,7.082031,7.872778,-8.655151,6.046045,6.450391,10.430445,me
1616136953.1189964,1,45.0,16.0,70.0,36.0,29.0,0.711304,0.625671,-0.319275,0.024353,-0.740458,1.229008,0.480916,11.583667,16.169043,-9.077441,6.833203,7.597632,-9.205444,6.032886,7.482788,9.834692,me
1616136953.128796,1,49.0,19.0,72.0,73.0,54.0,0.72229,0.616028,-0.311584,0.040833,-0.732824,1.374046,0.572519,11.307324,15.801783,-9.035571,6.402539,7.329663,-9.49375,5.685962,8.351294,9.095386,me
1616136953.138852,1,43.0,15.0,73.0,74.0,57.0,0.733704,0.605347,-0.302734,0.059265,-0.755725,1.51145,0.648855,10.773779,15.375903,-8.814258,5.717065,7.022217,-9.634912,5.032788,9.131274,8.128784,me
1616136953.1490314,1,44.0,16.0,70.0,73.0,58.0,0.745728,0.593384,-0.292358,0.079102,-0.801527,1.656489,0.70229,10.016528,14.704785,-8.409912,4.822241,6.483887,-9.63252,4.218115,9.701904,6.791333,me
1616136953.159058,1,49.0,18.0,72.0,74.0,53.0,0.758484,0.579834,-0.279968,0.100159,-0.862595,1.80916,0.717557,8.953028,13.732203,-7.867993,3.652271,5.66084,-9.540405,3.251514,10.035669,5.007666,me
1616136953.1690576,1,47.0,17.0,70.0,73.0,55.0,0.771667,0.564941,-0.265259,0.121948,-0.885496,1.946565,0.70229,7.579688,12.392359,-7.255493,2.216724,4.481299,-9.418384,2.209546,10.060791,2.750268,me
1616136953.1790743,1,47.0,16.0,72.0,72.0,56.0,0.784912,0.549133,-0.248047,0.143921,-0.877863,2.053435,0.641221,5.971875,10.768994,-6.504224,0.606519,3.02063,-9.186304,1.125708,9.61936,0.204565,me
1616136953.188852,1,44.0,12.0,70.0,57.0,55.0,0.798035,0.532471,-0.228333,0.165405,-0.870229,2.129771,0.557252,4.191797,9.035571,-5.585474,-1.105371,1.446314,-8.804688,-0.004785,8.670703,-2.369849,me
1616136953.1990385,1,45.0,15.0,74.0,73.0,56.0,0.811035,0.514832,-0.206421,0.185791,-0.870229,2.152672,0.458015,2.260986,7.259082,-4.504028,-2.89502,-0.172266,-8.272339,-1.172363,7.216016,-4.835401,me
1616136953.2090063,1,47.0,16.0,69.0,70.0,53.0,0.823669,0.496094,-0.183044,0.204651,-0.870229,2.122137,0.366412,0.25481,5.361768,-3.213233,-4.689453,-1.912866,-7.531836,-2.247827,5.178735,-7.104761,me
1616136953.2189243,1,44.0,15.0,70.0,68.0,53.0,0.835693,0.476685,-0.158875,0.221558,-0.824427,2.045802,0.259542,-1.792041,3.362769,-1.740601,-6.46355,-3.755151,-6.591553,-3.184521,2.621069,-9.07146,me
1616136953.2288518,1,44.0,15.0,70.0,72.0,53.0,0.84668,0.457397,-0.134521,0.236084,-0.732824,1.89313,0.167939,-3.861621,1.436743,-0.124414,-8.210132,-5.530444,-5.468237,-4.039868,-0.288306,-10.557251,me
1616136953.2389643,1,43.0,13.0,70.0,71.0,53.0,0.856323,0.439087,-0.111267,0.247864,-0.618321,1.656489,0.076336,-5.724243,-0.276343,1.594653,-9.724634,-7.104761,-4.182227,-4.69065,-3.293384,-11.386279,me
1616136953.2489302,1,48.0,15.0,70.0,71.0,54.0,0.864441,0.422546,-0.09021,0.256897,-0.480916,1.366412,0.022901,-7.334448,-1.604224,3.417798,-10.990308,-8.308228,-2.721558,-5.202661,-6.172852,-11.489161,me
1616136953.2589664,1,45.0,12.0,74.0,72.0,56.0,0.87085,0.408508,-0.072571,0.263306,-0.328244,1.015267,0.007634,-8.640796,-2.644995,5.176343,-11.986816,-9.242529,-1.24773,-5.519678,-8.725733,-11.133862,me
1616136953.2688525,1,47.0,11.0,69.0,73.0,53.0,0.875366,0.397949,-0.059387,0.267883,-0.137405,0.641221,0.053435,-9.348999,-3.134277,6.888232,-12.456958,-9.649267,0.261987,-5.569922,-10.650561,-10.188794,me
1616136953.2790356,1,48.0,12.0,73.0,71.0,56.0,0.877808,0.391296,-0.050964,0.271362,0.015267,0.312977,0.122137,-9.425562,-2.76582,8.159887,-12.382788,-9.226977,1.412817,-5.555566,-11.455664,-8.847754,me
1616136953.288878,1,45.0,10.0,68.0,74.0,53.0,0.878723,0.388123,-0.046509,0.273804,0.068702,0.091603,0.152672,-8.652759,-1.643701,8.61687,-11.535815,-8.07854,1.812378,-5.339038,-10.849146,-7.440918,me
1616136953.2990365,1,45.0,12.0,70.0,72.0,56.0,0.878723,0.387146,-0.044556,0.275452,0.076336,-0.007634,0.137405,-7.306933,-0.25481,8.257983,-10.163671,-6.681274,1.435547,-4.920337,-9.244922,-6.345117,me
1616136953.30904,1,45.0,12.0,73.0,72.0,57.0,0.878296,0.387756,-0.043457,0.276123,0.099237,-0.030534,0.061069,-5.684766,1.135278,7.500732,-8.530737,-5.304346,0.685474,-4.349707,-7.232764,-5.486182,me
1616136953.3188,1,46.0,10.0,72.0,72.0,53.0,0.877625,0.389648,-0.042175,0.275879,0.122137,-0.007634,-0.015267,-3.986035,2.579199,6.71477,-6.817651,-3.895117,-0.072974,-3.750366,-5.144043,-4.59375,me
1616136953.3289163,1,49.0,11.0,69.0,72.0,56.0,0.876953,0.391907,-0.040527,0.274963,0.099237,0.022901,-0.076336,-2.353101,4.084131,6.067578,-5.160791,-2.433252,-0.687866,-3.21084,-3.153418,-3.570923,me
1616136953.3387656,1,49.0,12.0,70.0,70.0,53.0,0.876587,0.393921,-0.038879,0.273499,0.045802,0.038168,-0.10687,-0.925928,5.455078,5.599829,-3.704907,-1.104175,-1.126904,-2.740698,-1.455884,-2.562451,me
1616136953.3489428,1,45.0,12.0,73.0,72.0,54.0,0.876587,0.395203,-0.037537,0.27179,-0.015267,0.030534,-0.129771,0.27395,6.483887,5.330664,-2.475122,-0.105273,-1.378125,-2.253808,-0.179443,-1.708301,me
1616136953.3590536,1,44.0,10.0,73.0,70.0,55.0,0.876953,0.395691,-0.036743,0.27002,-0.061069,0.015267,-0.122137,1.214233,7.110742,5.240942,-1.510913,0.503638,-1.461865,-1.757349,0.643604,-1.080249,me
1616136953.3682396,1,44.0,15.0,73.0,72.0,56.0,0.87738,0.395752,-0.036499,0.268494,-0.068702,-0.007634,-0.091603,1.882959,7.375122,5.318701,-0.826636,0.76084,-1.38291,-1.290796,1.033594,-0.660352,me
1616136953.3783312,1,45.0,13.0,70.0,72.0,53.0,0.877686,0.395752,-0.036743,0.267639,-0.045802,-0.015267,-0.045802,2.266968,7.365552,5.525659,-0.440234,0.750073,-1.177148,-0.923535,1.053931,-0.419897,me
1616136953.388191,1,48.0,11.0,72.0,69.0,58.0,0.877625,0.395874,-0.037231,0.267578,-0.007634,-0.030534,0.015267,2.420093,7.171753,5.831909,-0.295483,0.556274,-0.868506,-0.656763,0.791943,-0.300269,me
1616136953.3983405,1,47.0,11.0,69.0,72.0,56.0,0.877136,0.396362,-0.037903,0.268372,0.045802,-0.038168,0.076336,2.400952,6.942065,6.1896,-0.334961,0.326587,-0.501245,-0.521582,0.387598,-0.215332,me
1616136953.4081817,1,45.0,13.0,74.0,72.0,54.0,0.876221,0.397278,-0.038635,0.269897,0.091603,-0.045802,0.129771,2.300464,6.738696,6.532935,-0.46416,0.119629,-0.143555,-0.476123,-0.037085,-0.147144,me
1616136953.4181323,1,44.0,12.0,73.0,72.0,54.0,0.875,0.398621,-0.03949,0.271729,0.114504,-0.053435,0.152672,2.178442,6.646582,6.784155,-0.620874,0.020337,0.129199,-0.517993,-0.35769,-0.075366,me
1616136953.4283042,1,45.0,13.0,71.0,73.0,56.0,0.873657,0.400269,-0.040405,0.27356,0.122137,-0.061069,0.152672,2.106665,6.684863,6.957617,-0.730933,0.046655,0.330176,-0.593359,-0.53833,0.043066,me
1616136953.4384222,1,47.0,15.0,69.0,72.0,55.0,0.872314,0.401917,-0.041443,0.275146,0.10687,-0.076336,0.137405,2.141357,6.858325,7.046143,-0.734522,0.209351,0.446216,-0.661548,-0.540723,0.226099,me
1616136953.4480848,1,47.0,14.0,70.0,68.0,58.0,0.871216,0.403503,-0.042725,0.276245,0.076336,-0.091603,0.10687,2.299268,7.129883,7.054517,-0.614893,0.470142,0.480908,-0.689062,-0.378027,0.458179,me
1616136953.4581356,1,45.0,11.0,72.0,74.0,56.0,0.870361,0.404724,-0.04425,0.276733,0.038168,-0.099237,0.076336,2.543311,7.385889,7.02461,-0.406738,0.721362,0.47373,-0.645996,-0.151929,0.684277,me
1616136953.468201,1,45.0,13.0,70.0,70.0,57.0,0.869934,0.405579,-0.045837,0.276794,0.0,-0.099237,0.038168,2.802905,7.541406,6.957617,-0.178247,0.874487,0.42229,-0.541919,0.0646,0.821851,me
1616136953.4781172,1,45.0,11.0,70.0,72.0,53.0,0.869751,0.405945,-0.047424,0.276428,-0.030534,-0.091603,0.015267,3.036182,7.608398,6.882251,0.027515,0.945068,0.356494,-0.416309,0.239258,0.887646,me
1616136953.4882388,1,45.0,13.0,70.0,71.0,55.0,0.869812,0.406067,-0.048828,0.275879,-0.045802,-0.083969,-0.007634,3.219214,7.596436,6.814063,0.19021,0.936694,0.291895,-0.284717,0.354102,0.888843,me
1616136953.4980645,1,48.0,14.0,70.0,72.0,55.0,0.869995,0.405884,-0.050049,0.275208,-0.053435,-0.068702,-0.022901,3.335254,7.487573,6.749463,0.291895,0.836206,0.228491,-0.156714,0.393579,0.809888,me
1616136953.508103,1,45.0,11.0,73.0,72.0,53.0,0.870239,0.405579,-0.051086,0.274658,-0.045802,-0.053435,-0.015267,3.391479,7.320093,6.69563,0.336157,0.6771,0.171069,-0.044263,0.373242,0.6771,me
1616136953.517996,1,49.0,13.0,72.0,73.0,55.0,0.870361,0.405457,-0.052002,0.274353,-0.030534,-0.045802,0.0,3.395068,7.141846,6.665723,0.326587,0.503638,0.141162,0.0323,0.300269,0.537134,me
1616136953.5281403,1,44.0,11.0,68.0,72.0,56.0,0.8703,0.405518,-0.052795,0.274414,0.0,-0.038168,0.022901,3.35918,7.003076,6.670508,0.276343,0.369653,0.14834,0.059814,0.203369,0.435449,me
1616136953.5381837,1,47.0,15.0,71.0,72.0,55.0,0.869995,0.405762,-0.053467,0.274719,0.015267,-0.038168,0.038168,3.268262,6.955225,6.718359,0.171069,0.322998,0.202173,0.001196,0.093311,0.406738,me
1616136953.5480433,1,47.0,13.0,69.0,73.0,53.0,0.86969,0.406128,-0.054077,0.275146,0.022901,-0.038168,0.045802,3.165381,6.938477,6.786548,0.052637,0.30625,0.276343,-0.078955,-0.021533,0.406738,me
1616136953.5579913,1,45.0,13.0,70.0,69.0,56.0,0.869324,0.406494,-0.054688,0.275574,0.022901,-0.045802,0.045802,3.085229,6.906177,6.848755,-0.04187,0.275146,0.346924,-0.133984,-0.130396,0.401953,me
1616136953.5681338,1,48.0,14.0,70.0,73.0,54.0,0.868958,0.406921,-0.055359,0.276062,0.022901,-0.045802,0.045802,3.023022,6.867896,6.893018,-0.120825,0.236865,0.398364,-0.174658,-0.223706,0.385205,me
1616136953.5782535,1,46.0,12.0,70.0,73.0,57.0,0.86853,0.40741,-0.055908,0.276489,0.030534,-0.045802,0.045802,2.979956,6.840381,6.92771,-0.179443,0.206958,0.442627,-0.202173,-0.297876,0.374438,me
1616136953.588174,1,48.0,11.0,70.0,74.0,53.0,0.868164,0.407898,-0.056519,0.276917,0.030534,-0.045802,0.045802,2.960815,6.812866,6.93728,-0.214136,0.178247,0.460571,-0.214136,-0.340942,0.355298,me
1616136953.598038,1,48.0,14.0,72.0,72.0,55.0,0.867737,0.408447,-0.057129,0.277283,0.038168,-0.045802,0.038168,2.964404,6.782959,6.942065,-0.226099,0.145947,0.476123,-0.205762,-0.375635,0.33855,me
1616136953.6080534,1,45.0,13.0,72.0,74.0,56.0,0.86731,0.408997,-0.057739,0.277649,0.038168,-0.045802,0.038168,2.979956,6.766211,6.938477,-0.227295,0.126807,0.482104,-0.196191,-0.391187,0.328979,me
1616136953.618099,1,45.0,13.0,74.0,73.0,55.0,0.866882,0.409607,-0.058411,0.277954,0.038168,-0.053435,0.038168,3.015845,6.754248,6.918139,-0.206958,0.112451,0.47373,-0.172266,-0.384009,0.319409,me
1616136953.6280131,1,45.0,14.0,73.0,71.0,54.0,0.866394,0.410278,-0.059143,0.278259,0.038168,-0.053435,0.038168,3.069678,6.735107,6.89541,-0.171069,0.089722,0.46416,-0.131592,-0.373242,0.308643,me
1616136953.63818,1,47.0,12.0,68.0,72.0,55.0,0.865906,0.41095,-0.060059,0.278503,0.038168,-0.061069,0.038168,3.137866,6.715967,6.878662,-0.124414,0.068188,0.460571,-0.082544,-0.362476,0.30625,me
1616136953.648038,1,48.0,11.0,70.0,72.0,57.0,0.865417,0.411743,-0.061035,0.278809,0.045802,-0.068702,0.045802,3.212036,6.707593,6.861914,-0.072974,0.056226,0.458179,-0.033496,-0.344531,0.312231,me
1616136953.6580057,1,49.0,13.0,72.0,72.0,56.0,0.864807,0.41272,-0.062195,0.279053,0.045802,-0.076336,0.045802,3.300561,6.748267,6.823633,-0.010767,0.092114,0.437842,-0.003589,-0.285913,0.343335,me
1616136953.6681511,1,47.0,13.0,70.0,70.0,52.0,0.864136,0.413757,-0.063477,0.279297,0.045802,-0.083969,0.045802,3.397461,6.837988,6.768603,0.056226,0.177051,0.403149,0.0,-0.189014,0.400757,me
1616136953.6780815,1,47.0,12.0,73.0,71.0,56.0,0.863403,0.414856,-0.064758,0.27948,0.045802,-0.083969,0.045802,3.521875,6.943262,6.688452,0.153125,0.276343,0.344531,0.020337,-0.055029,0.462964,me
1616136953.6879125,1,48.0,12.0,72.0,72.0,57.0,0.862793,0.415894,-0.06604,0.279663,0.038168,-0.076336,0.038168,3.640308,7.037768,6.605908,0.242847,0.366064,0.281128,0.038281,0.072974,0.514404,me
1616136953.697889,1,43.0,13.0,70.0,72.0,55.0,0.862183,0.416809,-0.067139,0.279907,0.038168,-0.061069,0.038168,3.757544,7.110742,6.536523,0.336157,0.435449,0.229687,0.071777,0.185425,0.56106,me
1616136953.7081356,1,47.0,13.0,72.0,72.0,57.0,0.861633,0.417664,-0.067932,0.280151,0.030534,-0.045802,0.030534,3.854443,7.174146,6.474317,0.41272,0.492871,0.184229,0.099292,0.278735,0.598145,me
1616136953.7180262,1,45.0,13.0,71.0,74.0,57.0,0.861145,0.418457,-0.068359,0.280396,0.030534,-0.022901,0.022901,3.913062,7.236352,6.413306,0.459375,0.549097,0.136377,0.101685,0.362476,0.623267,me
1616136953.728006,1,45.0,12.0,72.0,70.0,55.0,0.860657,0.419128,-0.068604,0.28064,0.030534,-0.007634,0.015267,3.941772,7.329663,6.370239,0.478516,0.636426,0.10647,0.066992,0.434253,0.671118,me
1616136953.7379162,1,45.0,15.0,70.0,73.0,56.0,0.860352,0.419678,-0.068604,0.280884,0.015267,0.0,0.007634,3.956128,7.425366,6.365454,0.488086,0.724951,0.110059,0.026318,0.478516,0.73811,me
1616136953.7478063,1,44.0,14.0,73.0,74.0,57.0,0.860107,0.420044,-0.068481,0.281067,0.007634,0.007634,0.007634,3.947754,7.485181,6.396558,0.478516,0.781177,0.147144,-0.005981,0.47373,0.796728,me
1616136953.7581615,1,45.0,13.0,73.0,70.0,53.0,0.860046,0.420166,-0.068176,0.281189,0.0,0.015267,0.0,3.89751,7.504321,6.439624,0.43186,0.796728,0.191406,-0.047852,0.427075,0.819458,me
1616136953.7680256,1,48.0,15.0,70.0,74.0,55.0,0.860046,0.420105,-0.067871,0.28125,-0.007634,0.015267,-0.007634,3.825732,7.500732,6.512598,0.364868,0.79314,0.263184,-0.093311,0.342139,0.838599,me
1616136953.7779818,1,49.0,12.0,73.0,72.0,57.0,0.860168,0.419922,-0.067566,0.28125,-0.015267,0.015267,-0.007634,3.755151,7.468432,6.583179,0.300269,0.76084,0.328979,-0.120825,0.250024,0.836206,me
1616136953.7879758,1,47.0,12.0,69.0,70.0,51.0,0.860352,0.419617,-0.067383,0.28125,-0.022901,0.007634,-0.007634,3.689355,7.420581,6.651367,0.239258,0.715381,0.391187,-0.139966,0.154321,0.823047,me
1616136953.7979302,1,44.0,13.0,73.0,70.0,56.0,0.860535,0.41925,-0.067261,0.281189,-0.022901,0.007634,-0.007634,3.647485,7.358374,6.696826,0.202173,0.656763,0.430664,-0.133984,0.080151,0.794336,me
1616136953.807941,1,47.0,13.0,68.0,73.0,54.0,0.860718,0.418884,-0.067139,0.281189,-0.022901,0.007634,-0.007634,3.609204,7.287793,6.721948,0.16748,0.590967,0.449805,-0.12561,0.020337,0.750073,me
1616136953.8178668,1,47.0,15.0,69.0,73.0,55.0,0.860901,0.418518,-0.067078,0.281189,-0.022901,0.007634,0.0,3.572119,7.216016,6.7375,0.132788,0.522778,0.459375,-0.11604,-0.033496,0.697437,me
1616136953.8279722,1,45.0,12.0,71.0,74.0,57.0,0.861084,0.418152,-0.067017,0.28125,-0.022901,0.0,0.0,3.54939,7.145434,6.733911,0.112451,0.456982,0.449805,-0.099292,-0.066992,0.638818,me
1616136953.838036,1,45.0,13.0,70.0,72.0,53.0,0.861206,0.417847,-0.067078,0.281311,-0.022901,0.0,0.0,3.531445,7.073657,6.721948,0.094507,0.38999,0.433057,-0.080151,-0.094507,0.576611,me
1616136953.8479614,1,44.0,13.0,70.0,70.0,57.0,0.861328,0.417542,-0.067139,0.281372,-0.022901,-0.007634,0.0,3.531445,7.003076,6.707593,0.094507,0.324194,0.413916,-0.046655,-0.112451,0.519189,me
1616136953.857991,1,45.0,12.0,70.0,70.0,57.0,0.86145,0.417297,-0.067383,0.281372,-0.022901,-0.015267,0.0,3.554175,6.946851,6.682471,0.114844,0.271558,0.384009,-0.004785,-0.10647,0.471338,me
1616136953.8678026,1,47.0,12.0,70.0,71.0,52.0,0.861572,0.417053,-0.067627,0.281311,-0.022901,-0.015267,-0.007634,3.584082,6.893018,6.645386,0.142358,0.22251,0.344531,0.038281,-0.089722,0.42229,me
1616136953.8778653,1,47.0,16.0,70.0,71.0,53.0,0.861633,0.41687,-0.067932,0.281189,-0.022901,-0.015267,-0.007634,3.613989,6.851148,6.586768,0.168677,0.185425,0.283521,0.072974,-0.050244,0.367261,me
1616136953.8879426,1,47.0,13.0,73.0,71.0,56.0,0.861694,0.416809,-0.068237,0.281128,-0.015267,-0.015267,-0.007634,3.639111,6.839185,6.536523,0.189014,0.174658,0.233276,0.089722,-0.008374,0.334961,me
1616136953.8978026,1,45.0,13.0,70.0,72.0,57.0,0.861755,0.416748,-0.068542,0.281006,-0.015267,-0.015267,-0.007634,3.663037,6.849951,6.49585,0.209351,0.187817,0.191406,0.094507,0.037085,0.324194,me
1616136955.7252743,1,45.0,15.0,73.0,54.0,52.0,0.628662,0.693237,-0.348267,0.053894,-0.007634,0.015267,-0.015267,5.351001,8.647974,-2.123413,0.326587,0.47373,-0.12561,0.029907,-0.004785,0.587378,me
1616136955.7351344,1,48.0,16.0,70.0,72.0,56.0,0.628906,0.693176,-0.347839,0.053772,-0.015267,0.015267,-0.022901,5.318701,8.697021,-2.086328,0.300269,0.517993,-0.095703,-0.023926,-0.019141,0.605322,me
1616136955.7450871,1,45.0,16.0,72.0,72.0,56.0,0.629272,0.693115,-0.347351,0.053589,-0.022901,0.015267,-0.030534,5.284009,8.735303,-2.048047,0.271558,0.550293,-0.065796,-0.072974,-0.033496,0.611304,me
1616136955.7551875,1,46.0,15.0,70.0,73.0,55.0,0.629822,0.692932,-0.346802,0.053223,-0.038168,0.015267,-0.038168,5.260083,8.756836,-2.026514,0.256006,0.564648,-0.057422,-0.094507,-0.033496,0.613696,me
1616136955.765798,1,47.0,19.0,70.0,74.0,57.0,0.630371,0.692749,-0.346252,0.052795,-0.045802,0.007634,-0.038168,5.254102,8.748462,-2.025317,0.258398,0.546704,-0.068188,-0.077759,-0.025122,0.601733,me
1616136955.7752967,1,45.0,17.0,72.0,73.0,55.0,0.63092,0.692505,-0.345764,0.052307,-0.045802,0.007634,-0.038168,5.266065,8.71377,-2.049243,0.279932,0.503638,-0.105273,-0.023926,-0.001196,0.584985,me
1616136955.7851255,1,47.0,15.0,69.0,73.0,56.0,0.631348,0.692322,-0.345398,0.05188,-0.038168,0.0,-0.030534,5.288794,8.663526,-2.070776,0.309839,0.447412,-0.136377,0.039478,0.011963,0.558667,me
1616136955.7951014,1,45.0,16.0,69.0,71.0,56.0,0.631592,0.6922,-0.345215,0.051636,-0.022901,0.0,-0.022901,5.306738,8.63003,-2.077954,0.332568,0.410327,-0.149536,0.082544,0.013159,0.541919,me
1616136955.8052392,1,47.0,11.0,70.0,73.0,50.0,0.631714,0.692139,-0.345093,0.051575,-0.015267,0.0,-0.007634,5.32229,8.604907,-2.070776,0.349316,0.382812,-0.144751,0.108862,0.001196,0.526367,me
1616136955.8151426,1,45.0,15.0,70.0,71.0,54.0,0.631714,0.692139,-0.345154,0.051697,0.0,0.0,0.0,5.331861,8.595337,-2.06001,0.356494,0.374438,-0.133984,0.114844,-0.010767,0.520386,me
1616136955.825116,1,47.0,15.0,70.0,73.0,49.0,0.631653,0.692139,-0.345215,0.051941,0.007634,0.0,0.007634,5.32229,8.602514,-2.03728,0.343335,0.384009,-0.110059,0.090918,-0.026318,0.517993,me
1616136955.8353505,1,47.0,16.0,70.0,75.0,51.0,0.631531,0.6922,-0.345276,0.052185,0.007634,0.0,0.007634,5.299561,8.625244,-2.010962,0.317017,0.410327,-0.081348,0.045459,-0.040674,0.520386,me
1616136955.8450663,1,47.0,17.0,70.0,72.0,54.0,0.63147,0.692261,-0.345337,0.05249,0.007634,0.0,0.007634,5.266065,8.653955,-1.977466,0.278735,0.440234,-0.046655,-0.011963,-0.056226,0.519189,me
1616136955.8550203,1,44.0,17.0,72.0,71.0,53.0,0.63147,0.692261,-0.345276,0.052612,0.0,0.0,0.0,5.233765,8.673096,-1.958325,0.246436,0.460571,-0.027515,-0.053833,-0.058618,0.515601,me
1616136955.8652494,1,48.0,17.0,69.0,73.0,55.0,0.63147,0.692261,-0.345215,0.052612,-0.007634,0.0,0.0,5.220605,8.677881,-1.961914,0.233276,0.465356,-0.0323,-0.0646,-0.049048,0.514404,me
1616136955.875286,1,44.0,15.0,74.0,70.0,55.0,0.631531,0.6922,-0.345215,0.052551,-0.007634,-0.007634,-0.007634,5.219409,8.6719,-1.969092,0.233276,0.459375,-0.040674,-0.058618,-0.04187,0.510815,me
1616136955.8851666,1,43.0,16.0,70.0,70.0,55.0,0.631592,0.6922,-0.345154,0.05249,-0.007634,-0.007634,-0.007634,5.219409,8.670703,-1.984644,0.234473,0.455786,-0.057422,-0.049048,-0.027515,0.512012,me
1616136955.89511,1,48.0,17.0,73.0,72.0,56.0,0.631653,0.692139,-0.345276,0.052368,-0.007634,-0.015267,0.0,5.232568,8.661133,-2.009766,0.246436,0.446216,-0.082544,-0.026318,-0.00957,0.515601,me
1616136955.9052212,1,45.0,16.0,72.0,72.0,58.0,0.631653,0.692078,-0.345398,0.052246,-0.007634,-0.015267,0.0,5.252905,8.643188,-2.034888,0.267969,0.428271,-0.107666,0.008374,0.002393,0.515601,me
1616136955.915037,1,41.0,17.0,70.0,73.0,56.0,0.631531,0.692017,-0.345581,0.052246,-0.007634,-0.015267,0.0,5.27085,8.636011,-2.058814,0.283521,0.423486,-0.130396,0.031104,0.016748,0.523975,me
1616136955.9252105,1,48.0,17.0,73.0,73.0,56.0,0.63147,0.692017,-0.345764,0.052307,0.0,-0.007634,0.007634,5.28042,8.634814,-2.070776,0.290698,0.423486,-0.139966,0.039478,0.022729,0.529956,me
1616136955.9350195,1,46.0,17.0,72.0,71.0,56.0,0.631348,0.692017,-0.345947,0.052429,0.0,-0.007634,0.007634,5.281616,8.6396,-2.089917,0.289502,0.430664,-0.156714,0.040674,0.038281,0.53833,me
1616136955.945047,1,48.0,17.0,70.0,73.0,55.0,0.631287,0.692017,-0.346008,0.052612,0.0,0.0,0.007634,5.278028,8.647974,-2.093506,0.282324,0.441431,-0.159106,0.029907,0.044263,0.544312,me
1616136955.9551313,1,47.0,13.0,72.0,74.0,55.0,0.631287,0.692078,-0.345947,0.052734,0.0,0.007634,0.0,5.264868,8.663526,-2.105469,0.267969,0.456982,-0.171069,0.014355,0.061011,0.552686,me
1616136955.965174,1,45.0,16.0,70.0,72.0,55.0,0.631348,0.692078,-0.345825,0.052856,-0.007634,0.007634,-0.007634,5.240942,8.686255,-2.089917,0.244043,0.479712,-0.156714,-0.020337,0.058618,0.556274,me
1616136955.9751298,1,48.0,16.0,72.0,72.0,56.0,0.631409,0.692017,-0.345764,0.052795,-0.015267,0.0,-0.007634,5.224195,8.685059,-2.06958,0.228491,0.478516,-0.13877,-0.037085,0.049048,0.544312,me
1616136955.985239,1,44.0,16.0,69.0,68.0,56.0,0.631592,0.691956,-0.345642,0.052673,-0.015267,0.0,-0.007634,5.217017,8.667114,-2.050439,0.223706,0.456982,-0.123218,-0.034692,0.035889,0.520386,me
1616136955.9950738,1,45.0,16.0,66.0,70.0,55.0,0.631714,0.691895,-0.345581,0.05249,-0.015267,0.0,-0.015267,5.21582,8.652759,-2.033691,0.224902,0.441431,-0.108862,-0.029907,0.022729,0.504834,me
1616136956.0051184,1,43.0,15.0,69.0,70.0,57.0,0.631897,0.691772,-0.345459,0.052307,-0.015267,-0.007634,-0.015267,5.214624,8.643188,-2.012158,0.226099,0.429468,-0.092114,-0.028711,0.005981,0.492871,me
1616136956.015205,1,45.0,14.0,70.0,68.0,55.0,0.63208,0.691711,-0.345398,0.052063,-0.022901,-0.007634,-0.015267,5.213428,8.633618,-1.989429,0.228491,0.416309,-0.072974,-0.026318,-0.011963,0.478516,me
1616136956.0251217,1,45.0,15.0,72.0,73.0,53.0,0.632202,0.691589,-0.345337,0.051819,-0.015267,-0.015267,-0.015267,5.21582,8.615674,-1.98584,0.233276,0.395972,-0.072974,-0.011963,-0.014355,0.46416,me
1616136956.0352132,1,47.0,16.0,73.0,71.0,52.0,0.632263,0.691528,-0.345398,0.051575,-0.015267,-0.015267,-0.007634,5.226587,8.595337,-1.993018,0.246436,0.374438,-0.080151,0.011963,-0.014355,0.45459,me
1616136956.0450938,1,46.0,15.0,70.0,72.0,53.0,0.632263,0.691528,-0.345459,0.051392,-0.007634,-0.015267,-0.007634,5.240942,8.592944,-2.001392,0.263184,0.37085,-0.088525,0.029907,-0.013159,0.461768,me
1616136956.0552816,1,44.0,15.0,72.0,73.0,55.0,0.632202,0.691528,-0.34552,0.05127,-0.007634,-0.015267,-0.007634,5.256494,8.609693,-2.003784,0.279932,0.387598,-0.089722,0.033496,-0.019141,0.484497,me
1616136956.0652945,1,47.0,13.0,74.0,72.0,57.0,0.632141,0.691528,-0.345642,0.051208,0.0,-0.015267,0.0,5.274438,8.625244,-2.008569,0.29668,0.403149,-0.092114,0.038281,-0.022729,0.50603,me
1616136956.0751069,1,47.0,17.0,70.0,72.0,55.0,0.63208,0.691528,-0.345764,0.051208,0.0,-0.007634,0.0,5.287598,8.6396,-2.01814,0.309839,0.418701,-0.100488,0.043066,-0.020337,0.527563,me
1616136956.0850468,1,45.0,15.0,70.0,24.0,54.0,0.632019,0.691528,-0.345825,0.051208,0.0,-0.007634,0.0,5.292383,8.656347,-2.015747,0.313428,0.436646,-0.096899,0.034692,-0.023926,0.544312,me
1616136956.095065,1,47.0,17.0,71.0,69.0,57.0,0.632019,0.691589,-0.345825,0.051208,0.0,-0.007634,0.0,5.281616,8.66831,-2.000195,0.302661,0.447412,-0.080151,0.014355,-0.034692,0.544312,me
1616136956.1051185,1,48.0,17.0,73.0,73.0,52.0,0.632019,0.691528,-0.345886,0.051086,-0.007634,-0.007634,-0.007634,5.264868,8.679077,-1.978662,0.287109,0.458179,-0.059814,-0.00957,-0.046655,0.540723,me
1616136956.1150362,1,48.0,16.0,69.0,71.0,56.0,0.63208,0.691467,-0.345886,0.050903,-0.007634,-0.015267,-0.007634,5.258887,8.674292,-1.96311,0.283521,0.452197,-0.045459,-0.014355,-0.058618,0.531152,me
1616136956.1251185,1,47.0,16.0,68.0,70.0,56.0,0.632141,0.691406,-0.345886,0.050659,-0.015267,-0.015267,-0.015267,5.261279,8.66831,-1.947559,0.288306,0.44502,-0.031104,-0.011963,-0.072974,0.525171,me
1616136956.135083,1,45.0,16.0,69.0,68.0,57.0,0.632324,0.691345,-0.345886,0.050354,-0.015267,-0.015267,-0.015267,5.25769,8.645581,-1.948755,0.288306,0.418701,-0.034692,0.003589,-0.070581,0.503638,me
1616136956.1450243,1,49.0,17.0,72.0,72.0,54.0,0.632446,0.691284,-0.345825,0.050049,-0.015267,-0.015267,-0.022901,5.243335,8.609693,-1.954736,0.277539,0.379224,-0.043066,0.019141,-0.061011,0.466553,me
1616136956.1550922,1,53.0,15.0,74.0,70.0,55.0,0.632507,0.691284,-0.345764,0.049744,-0.015267,-0.015267,-0.015267,5.232568,8.582178,-1.978662,0.271558,0.349316,-0.068188,0.040674,-0.035889,0.443823,me
1616136956.16503,1,45.0,19.0,72.0,71.0,55.0,0.632446,0.691284,-0.345764,0.0495,-0.007634,-0.015267,-0.015267,5.22898,8.569018,-1.993018,0.271558,0.334961,-0.081348,0.053833,-0.025122,0.434253,me
1616136956.175244,1,45.0,15.0,70.0,68.0,54.0,0.632385,0.691345,-0.345825,0.049194,-0.007634,-0.015267,-0.015267,5.224195,8.570215,-2.007373,0.270361,0.333765,-0.093311,0.057422,-0.014355,0.434253,me
1616136956.1849363,1,44.0,16.0,71.0,70.0,54.0,0.632324,0.691467,-0.345825,0.049011,0.0,-0.015267,-0.015267,5.230176,8.583374,-2.01814,0.279932,0.345728,-0.101685,0.062207,-0.00957,0.451001,me
1616136956.1949117,1,45.0,16.0,74.0,72.0,57.0,0.632263,0.691528,-0.345825,0.048767,0.0,-0.015267,-0.015267,5.22539,8.594141,-2.02771,0.278735,0.354102,-0.110059,0.059814,-0.002393,0.459375,me
1616136956.2051654,1,47.0,16.0,73.0,72.0,57.0,0.632202,0.69165,-0.345703,0.048523,0.0,-0.015267,-0.022901,5.221802,8.615674,-2.02771,0.279932,0.373242,-0.107666,0.049048,-0.003589,0.476123,me
1616136956.2149906,1,45.0,17.0,72.0,72.0,55.0,0.632141,0.691772,-0.345581,0.048279,-0.007634,-0.015267,-0.022901,5.214624,8.647974,-2.030102,0.277539,0.403149,-0.108862,0.0323,-0.001196,0.500049,me
1616136956.2251115,1,45.0,19.0,70.0,72.0,55.0,0.632141,0.691833,-0.345459,0.047913,-0.007634,-0.015267,-0.022901,5.213428,8.66831,-2.046851,0.282324,0.419897,-0.124414,0.033496,0.010767,0.519189,me
1616136956.2350967,1,48.0,16.0,73.0,74.0,56.0,0.632141,0.691956,-0.345459,0.047546,-0.007634,-0.022901,-0.022901,5.232568,8.669507,-2.068384,0.307446,0.417505,-0.144751,0.061011,0.017944,0.533545,me
1616136956.2450793,1,46.0,17.0,73.0,72.0,57.0,0.632019,0.692017,-0.34552,0.047241,-0.007634,-0.022901,-0.015267,5.268457,8.674292,-2.094702,0.346924,0.421094,-0.16748,0.098096,0.021533,0.56106,me
1616136956.2550695,1,45.0,16.0,72.0,68.0,56.0,0.631836,0.692139,-0.345642,0.047058,0.0,-0.015267,-0.015267,5.316308,8.683863,-2.121021,0.397168,0.430664,-0.189014,0.13877,0.020337,0.598145,me
1616136956.264858,1,48.0,16.0,70.0,71.0,55.0,0.631653,0.692261,-0.345764,0.047058,0.007634,-0.015267,-0.007634,5.366553,8.70061,-2.136572,0.446216,0.448608,-0.19978,0.169873,0.010767,0.640015,me
1616136956.2749798,1,48.0,16.0,73.0,73.0,56.0,0.631348,0.692444,-0.345886,0.047119,0.015267,-0.007634,0.0,5.427564,8.720947,-2.156909,0.507227,0.471338,-0.212939,0.208154,-0.002393,0.692651,me
1616136956.285009,1,44.0,17.0,69.0,69.0,54.0,0.631042,0.692627,-0.346069,0.047424,0.022901,-0.007634,0.007634,5.508911,8.741284,-2.170068,0.583789,0.495264,-0.218921,0.25481,-0.027515,0.752466,me
1616136956.2951093,1,49.0,16.0,72.0,70.0,56.0,0.630615,0.69281,-0.346313,0.047852,0.030534,-0.007634,0.015267,5.604614,8.775976,-2.177246,0.673511,0.537134,-0.216528,0.297876,-0.066992,0.832617,me
1616136956.304886,1,45.0,16.0,72.0,71.0,58.0,0.630188,0.693054,-0.346619,0.048462,0.038168,0.0,0.015267,5.714673,8.83938,-2.16648,0.773999,0.607715,-0.196191,0.326587,-0.124414,0.939087,me
1616136956.3149548,1,47.0,15.0,73.0,71.0,58.0,0.6297,0.693298,-0.346924,0.049255,0.045802,0.007634,0.022901,5.853442,8.902783,-2.162891,0.902002,0.680689,-0.181836,0.376831,-0.189014,1.063501,me
1616136956.324984,1,45.0,15.0,70.0,71.0,54.0,0.629211,0.693481,-0.347229,0.050293,0.053435,0.015267,0.030534,6.014941,8.961401,-2.177246,1.047949,0.75127,-0.186621,0.448608,-0.244043,1.197485,me
1616136956.3349392,1,45.0,16.0,72.0,73.0,56.0,0.628662,0.693726,-0.347534,0.051636,0.053435,0.022901,0.038168,6.20874,9.041553,-2.18562,1.223804,0.84458,-0.184229,0.526367,-0.31582,1.366162,me
1616136956.344194,1,48.0,17.0,70.0,72.0,58.0,0.628235,0.693909,-0.347778,0.053223,0.061069,0.038168,0.045802,6.456372,9.150415,-2.162891,1.449902,0.967798,-0.154321,0.614893,-0.43186,1.579102,me
1616136956.354262,1,45.0,15.0,74.0,73.0,53.0,0.62793,0.693909,-0.347961,0.055115,0.053435,0.061069,0.045802,6.7375,9.29397,-2.158105,1.704712,1.129297,-0.145947,0.709399,-0.537134,1.845874,me
1616136956.3645158,1,48.0,20.0,70.0,71.0,56.0,0.627869,0.693848,-0.347839,0.05719,0.045802,0.083969,0.038168,7.040161,9.515284,-2.173657,1.981055,1.366162,-0.165088,0.789551,-0.620874,2.191602,me
1616136956.374446,1,45.0,15.0,70.0,71.0,56.0,0.628235,0.693542,-0.347412,0.059326,0.015267,0.10687,0.030534,7.378711,9.816748,-2.215527,2.293286,1.680786,-0.220117,0.864917,-0.680689,2.629443,me
1616136956.3848224,1,48.0,17.0,72.0,71.0,58.0,0.629089,0.692993,-0.34668,0.061279,-0.022901,0.122137,0.007634,7.78186,10.233057,-2.355493,2.674902,2.104272,-0.386401,0.973779,-0.657959,3.216821,me
1616136956.3949518,1,48.0,17.0,70.0,72.0,56.0,0.630554,0.692017,-0.345642,0.062988,-0.083969,0.145038,-0.007634,8.295069,10.742676,-2.618677,3.16897,2.616284,-0.689062,1.166382,-0.543115,3.962109,me
1616136956.4049058,1,45.0,18.0,70.0,71.0,58.0,0.63269,0.690491,-0.344421,0.064636,-0.145038,0.175573,-0.022901,8.975757,11.295362,-2.967993,3.829321,3.16897,-1.095801,1.501343,-0.381616,4.847363,me
1616136956.414879,1,44.0,16.0,70.0,69.0,56.0,0.635681,0.688354,-0.342896,0.066528,-0.21374,0.236641,-0.022901,9.737793,11.854029,-3.459668,4.567431,3.724048,-1.666431,1.952344,-0.072974,5.803198,me
1616136956.4248905,1,49.0,17.0,72.0,71.0,57.0,0.639465,0.685669,-0.34082,0.069031,-0.274809,0.312977,-0.022901,10.538111,12.405518,-4.06499,5.337842,4.271948,-2.372241,2.4823,0.381616,6.786548,me
1616136956.4342368,1,47.0,15.0,70.0,73.0,57.0,0.644043,0.682312,-0.338135,0.07251,-0.328244,0.419847,-0.007634,11.314502,12.918726,-4.781568,6.075952,4.785156,-3.214429,3.048145,1.02522,7.731616,me
1616136956.4448736,1,47.0,14.0,72.0,70.0,57.0,0.649414,0.678406,-0.334656,0.077209,-0.381679,0.541985,0.015267,12.009546,13.387671,-5.603418,6.723145,5.258887,-4.187012,3.602026,1.881763,8.592944,me
1616136956.4551,1,47.0,15.0,70.0,73.0,57.0,0.655457,0.67395,-0.330261,0.083435,-0.419847,0.687023,0.045802,12.635205,13.759717,-6.462354,7.290185,5.640503,-5.220605,4.141553,2.889038,9.309522,me
1616136956.4648814,1,49.0,17.0,70.0,73.0,57.0,0.662292,0.668823,-0.32489,0.091675,-0.465649,0.854962,0.091603,13.143628,14.019312,-7.342822,7.724439,5.920434,-6.304443,4.610498,4.06499,9.829907,me
1616136956.4741745,1,47.0,17.0,72.0,70.0,56.0,0.669922,0.662903,-0.318298,0.101929,-0.503817,1.038168,0.137405,13.477392,14.190381,-8.22688,7.973267,6.121411,-7.426562,4.934692,5.415601,10.122998,me
1616136956.4850268,1,48.0,16.0,72.0,71.0,53.0,0.678528,0.655945,-0.310242,0.114075,-0.572519,1.229008,0.175573,13.661621,14.25498,-9.049927,8.06897,6.224292,-8.529541,5.12251,6.866699,10.156494,me
1616136956.4942474,1,44.0,15.0,70.0,73.0,56.0,0.688354,0.647705,-0.300354,0.127991,-0.656489,1.435115,0.19084,13.709473,14.134155,-9.673193,8.031885,6.148926,-9.481787,5.190698,8.261572,9.847852,me
1616136956.5047812,1,48.0,17.0,72.0,74.0,58.0,0.699524,0.637939,-0.288147,0.143555,-0.732824,1.664122,0.175573,13.537207,13.672388,-10.15769,7.79143,5.736206,-10.352686,5.191895,9.626538,9.005664,me
1616136956.5150237,1,48.0,17.0,73.0,72.0,58.0,0.71167,0.626831,-0.273315,0.160706,-0.78626,1.877863,0.160305,13.010839,12.834986,-10.468725,7.223193,4.95144,-11.101562,5.023218,10.861109,7.529443,me
1616136956.5250823,1,50.0,19.0,73.0,73.0,55.0,0.724609,0.614319,-0.255737,0.179138,-0.824427,2.083969,0.129771,12.005957,11.717651,-10.497437,6.215918,3.890332,-11.617163,4.51958,11.771484,5.450293,me
1616136956.5349455,1,48.0,17.0,73.0,72.0,54.0,0.738159,0.600403,-0.234985,0.198303,-0.839695,2.259542,0.083969,10.48667,10.487866,-10.211523,4.752856,2.71438,-11.862402,3.582886,12.214111,2.934497,me
1616136956.544915,1,45.0,16.0,72.0,73.0,57.0,0.751953,0.585205,-0.211182,0.217712,-0.847328,2.389313,0.038168,8.454175,9.114527,-9.572705,2.843579,1.390088,-11.784643,2.260986,11.989209,0.062207,me
1616136956.5544171,1,45.0,18.0,69.0,72.0,52.0,0.765869,0.568542,-0.18457,0.236694,-0.839695,2.473282,-0.022901,5.884546,7.616773,-8.512793,0.476123,-0.061011,-11.307324,0.577808,10.892212,-3.009863,me
1616136956.5649445,1,47.0,14.0,68.0,71.0,52.0,0.779602,0.550476,-0.155701,0.254761,-0.824427,2.480916,-0.076336,2.97876,5.973071,-7.071265,-2.148535,-1.660449,-10.455566,-1.21543,8.878858,-6.0281,me
1616136956.575027,1,44.0,21.0,72.0,75.0,53.0,0.792542,0.53125,-0.125732,0.271606,-0.770992,2.40458,-0.10687,-0.122021,4.276733,-5.250513,-4.902392,-3.305347,-9.207837,-2.981152,5.974267,-8.667114,me
1616136956.5841837,1,45.0,4.0,69.0,73.0,55.0,0.804382,0.511475,-0.095581,0.28656,-0.687023,2.244275,-0.137405,-3.29458,2.610303,-3.116333,-7.674194,-4.915552,-7.608398,-4.585376,2.353101,-10.692431,me
1616136956.5945113,1,44.0,13.0,73.0,70.0,57.0,0.814697,0.492371,-0.066711,0.298767,-0.572519,1.969466,-0.160305,-6.193189,1.198682,-0.823047,-10.140943,-6.272143,-5.782861,-5.846265,-1.510913,-11.794214,me
1616136956.6050954,1,45.0,13.0,73.0,72.0,55.0,0.823547,0.47467,-0.04071,0.307739,-0.465649,1.610687,-0.19084,-8.835791,0.044263,1.623364,-12.355273,-7.371533,-3.72644,-6.790137,-5.429956,-12.05022,me
1616136956.614177,1,45.0,14.0,72.0,73.0,56.0,0.83075,0.459778,-0.019165,0.31311,-0.221374,1.076336,-0.137405,-11.691333,-1.722656,4.596143,-14.824414,-9.090601,-1.052734,-7.2854,-10.097876,-12.181811,me
1616136956.6249323,1,47.0,11.0,70.0,72.0,58.0,0.834778,0.450623,-0.006226,0.316101,0.129771,0.351145,0.091603,-13.788427,-2.25022,8.0594,-16.681055,-9.583471,2.240649,-7.616773,-14.178418,-10.766602,me
1616136956.6348767,1,45.0,13.0,69.0,73.0,57.0,0.836548,0.446533,-0.00177,0.317383,0.083969,-0.152672,0.290076,-13.848242,-0.055029,9.679174,-16.654736,-7.364356,3.787451,-8.313013,-14.594727,-7.986426,me
1616136956.6440792,1,46.0,19.0,70.0,72.0,54.0,0.838135,0.443298,-0.003662,0.317688,-0.267176,-0.274809,0.267176,-12.034668,2.178442,9.199463,-14.854321,-5.08064,3.251514,-8.235254,-12.34331,-6.065186,me
1616136956.654945,1,48.0,16.0,70.0,73.0,56.0,0.840637,0.438965,-0.007019,0.317078,-0.358779,-0.19084,0.083969,-9.412402,2.538525,7.681372,-12.255981,-4.649976,1.659253,-6.839185,-9.612183,-5.946753,me
1616136956.6641705,1,47.0,16.0,70.0,73.0,57.0,0.842712,0.436279,-0.00824,0.315186,-0.152672,-0.061069,-0.137405,-6.678882,2.434448,6.174048,-9.509302,-4.720557,0.10647,-5.04834,-7.046143,-6.127393,me
1616136956.6740818,1,45.0,16.0,74.0,71.0,55.0,0.843811,0.43634,-0.006592,0.312134,0.007634,0.038168,-0.259542,-4.117627,3.367554,5.054321,-6.89541,-3.807788,-1.010864,-3.786255,-4.45857,-5.368945,me
1616136956.6842134,1,49.0,15.0,74.0,73.0,57.0,0.844604,0.437195,-0.004028,0.308777,-0.038168,0.068702,-0.274809,-1.878174,4.915552,4.322192,-4.590161,-2.296875,-1.728638,-2.962012,-2.076758,-4.027905,me
1616136956.6940832,1,48.0,17.0,72.0,73.0,55.0,0.845764,0.437256,-0.002319,0.305664,-0.122137,0.053435,-0.251908,-0.093311,6.046045,3.869995,-2.750268,-1.187915,-2.180835,-2.192798,-0.311035,-2.969189,me
1616136956.7042284,1,46.0,16.0,70.0,73.0,55.0,0.847046,0.436646,-0.001709,0.302979,-0.129771,0.022901,-0.21374,1.252515,6.491065,3.706104,-1.368555,-0.747681,-2.355493,-1.348218,0.71897,-2.374634,me
1616136956.7145038,1,47.0,15.0,68.0,72.0,53.0,0.847778,0.43634,-0.001709,0.301208,-0.061069,0.0,-0.129771,2.132983,6.644189,3.87478,-0.471338,-0.595752,-2.191602,-0.649585,1.122119,-1.92124,me
1616136956.7241032,1,44.0,17.0,72.0,72.0,57.0,0.847717,0.43689,-0.002075,0.300659,0.015267,-0.022901,-0.022901,2.497852,6.818848,4.322192,-0.110059,-0.427075,-1.734619,-0.320605,1.043164,-1.416406,me
1616136956.7341983,1,49.0,16.0,70.0,73.0,55.0,0.846924,0.437927,-0.002808,0.301392,0.068702,-0.045802,0.091603,2.473926,7.042554,4.920337,-0.159106,-0.209351,-1.11853,-0.312231,0.659155,-0.88645,me
1616136956.7441258,1,47.0,17.0,74.0,73.0,52.0,0.845642,0.43927,-0.004028,0.302917,0.091603,-0.076336,0.167939,2.284912,7.227979,5.494555,-0.388794,-0.028711,-0.521582,-0.436646,0.178247,-0.447412,me
1616136956.7541187,1,45.0,17.0,74.0,73.0,46.0,0.844238,0.440674,-0.005676,0.304871,0.091603,-0.091603,0.198473,2.091113,7.354785,5.928809,-0.635229,0.095703,-0.063403,-0.582593,-0.235669,-0.143555,me
1616136956.7641366,1,48.0,11.0,69.0,72.0,27.0,0.842957,0.441833,-0.007568,0.306763,0.068702,-0.099237,0.19084,1.982251,7.427759,6.219507,-0.799121,0.172266,0.246436,-0.674707,-0.519189,0.050244,me
1616136956.7741644,1,45.0,16.0,70.0,72.0,53.0,0.841919,0.442688,-0.00946,0.308228,0.045802,-0.099237,0.160305,1.972681,7.401441,6.400146,-0.857739,0.153125,0.443823,-0.660352,-0.707007,0.135181,me
1616136956.783993,1,44.0,16.0,71.0,73.0,55.0,0.841187,0.443359,-0.011292,0.309204,0.030534,-0.10687,0.114504,2.076758,7.360766,6.501831,-0.795532,0.118433,0.557471,-0.563452,-0.775195,0.191406,me
1616136956.7942293,1,45.0,15.0,68.0,72.0,55.0,0.840698,0.44397,-0.013123,0.309631,0.022901,-0.114504,0.076336,2.287305,7.358374,6.571216,-0.623267,0.122021,0.637622,-0.406738,-0.747681,0.290698,me
1616136956.80414,1,48.0,17.0,73.0,70.0,53.0,0.840332,0.44458,-0.015076,0.309692,0.015267,-0.122137,0.053435,2.561255,7.375122,6.608301,-0.385205,0.143555,0.68667,-0.215332,-0.65437,0.404346,me
1616136956.8140635,1,46.0,13.0,69.0,73.0,55.0,0.839966,0.445251,-0.017151,0.309509,0.015267,-0.129771,0.038168,2.857934,7.402637,6.597534,-0.124414,0.175854,0.689062,-0.023926,-0.512012,0.50603,me
1616136956.8241692,1,47.0,16.0,73.0,73.0,54.0,0.839539,0.446167,-0.019348,0.309265,0.022901,-0.129771,0.045802,3.166577,7.452881,6.54729,0.143555,0.228491,0.656763,0.153125,-0.333765,0.606519,me
1616136956.834134,1,45.0,16.0,71.0,70.0,49.0,0.838928,0.447205,-0.021606,0.309265,0.030534,-0.122137,0.053435,3.463257,7.539014,6.467139,0.397168,0.31582,0.596948,0.293091,-0.128003,0.714185,me
1616136956.8440287,1,45.0,13.0,70.0,73.0,53.0,0.838135,0.448425,-0.023621,0.309448,0.038168,-0.10687,0.061069,3.690552,7.659839,6.371436,0.582593,0.435449,0.523975,0.358887,0.0646,0.818262,me
1616136956.8538754,1,48.0,17.0,73.0,71.0,56.0,0.837341,0.449646,-0.025269,0.309753,0.045802,-0.083969,0.061069,3.824536,7.812964,6.278125,0.679492,0.586182,0.453394,0.337354,0.224902,0.91875,me
1616136956.864112,1,45.0,15.0,69.0,72.0,53.0,0.836548,0.450806,-0.026489,0.310059,0.038168,-0.061069,0.045802,3.858032,8.006763,6.196777,0.683081,0.775195,0.394775,0.22251,0.344531,1.026416,me
1616136956.873998,1,44.0,15.0,71.0,72.0,53.0,0.835999,0.451721,-0.027222,0.310242,0.022901,-0.045802,0.030534,3.816162,8.207739,6.159692,0.623267,0.971387,0.373242,0.061011,0.406738,1.140064,me
1616136956.8841853,1,33.0,14.0,70.0,72.0,52.0,0.835632,0.452271,-0.027649,0.310303,0.007634,-0.030534,0.022901,3.736011,8.358472,6.194385,0.532349,1.11853,0.418701,-0.080151,0.384009,1.246533,me
1616136956.893999,1,48.0,16.0,72.0,72.0,57.0,0.83551,0.452454,-0.027893,0.310364,-0.007634,-0.022901,0.015267,3.625952,8.441015,6.272143,0.416309,1.201074,0.500049,-0.19978,0.295483,1.317114,me
1616136956.9039743,1,44.0,15.0,73.0,68.0,54.0,0.835571,0.452271,-0.028137,0.310425,-0.022901,-0.015267,0.015267,3.513501,8.436231,6.361865,0.300269,1.199878,0.587378,-0.272754,0.171069,1.330273,me
1616136956.913984,1,47.0,15.0,73.0,74.0,54.0,0.835693,0.451965,-0.028381,0.310608,-0.030534,-0.015267,0.022901,3.426172,8.34292,6.436035,0.209351,1.112549,0.655566,-0.283521,0.039478,1.275244,me
1616136956.9241123,1,44.0,15.0,66.0,71.0,52.0,0.835815,0.451477,-0.028687,0.310852,-0.030534,-0.007634,0.022901,3.361572,8.18501,6.474317,0.139966,0.963013,0.68667,-0.252417,-0.076563,1.1604,me
1616136956.9341276,1,47.0,16.0,68.0,73.0,53.0,0.835938,0.45105,-0.028931,0.311218,-0.022901,-0.007634,0.022901,3.323291,8.00437,6.485083,0.096899,0.789551,0.689062,-0.192603,-0.168677,1.020435,me
1616136956.944023,1,45.0,16.0,72.0,73.0,55.0,0.835999,0.450623,-0.029236,0.311584,-0.022901,-0.007634,0.022901,3.314917,7.845263,6.468335,0.08374,0.640015,0.665137,-0.128003,-0.215332,0.891235,me
1616136956.954153,1,47.0,17.0,65.0,70.0,55.0,0.836121,0.450195,-0.02948,0.311829,-0.022901,-0.007634,0.015267,3.313721,7.729224,6.444409,0.078955,0.531152,0.634033,-0.080151,-0.236865,0.791943,me
1616136956.964104,1,44.0,16.0,72.0,73.0,53.0,0.836243,0.449829,-0.029785,0.312012,-0.030534,-0.007634,0.007634,3.311328,7.64668,6.420484,0.071777,0.455786,0.604126,-0.052637,-0.247632,0.716577,me
1616136956.9738915,1,44.0,16.0,70.0,68.0,54.0,0.836487,0.449402,-0.030029,0.312073,-0.030534,-0.015267,0.0,3.295776,7.576098,6.403735,0.053833,0.391187,0.5802,-0.037085,-0.263184,0.648389,me
1616136956.9840624,1,45.0,16.0,72.0,71.0,57.0,0.836731,0.448914,-0.030273,0.311951,-0.030534,-0.015267,-0.007634,3.276636,7.516284,6.388184,0.034692,0.33855,0.556274,-0.029907,-0.27395,0.58977,me
1616136956.994013,1,45.0,21.0,72.0,72.0,54.0,0.837036,0.448486,-0.030457,0.311768,-0.030534,-0.015267,-0.015267,3.250317,7.464844,6.365454,0.00957,0.293091,0.526367,-0.0323,-0.281128,0.531152,me
1616136957.0042782,1,35.0,15.0,73.0,74.0,55.0,0.837341,0.448059,-0.03064,0.311523,-0.030534,-0.015267,-0.015267,3.232373,7.403833,6.349902,-0.005981,0.236865,0.503638,-0.019141,-0.294287,0.471338,me
1616136957.0138967,1,47.0,17.0,68.0,72.0,57.0,0.837585,0.447754,-0.030762,0.31134,-0.022901,-0.015267,-0.015267,3.226392,7.332056,6.330762,-0.010767,0.168677,0.478516,0.007178,-0.305054,0.404346,me
1616136957.0243423,1,45.0,16.0,70.0,74.0,55.0,0.837708,0.447571,-0.030823,0.311218,-0.007634,-0.007634,-0.015267,3.231177,7.30813,6.303247,-0.004785,0.147144,0.448608,0.016748,-0.287109,0.373242,me
1616136957.0339277,1,45.0,15.0,68.0,72.0,57.0,0.83783,0.44751,-0.030823,0.311096,-0.007634,-0.007634,-0.007634,3.250317,7.336841,6.27334,0.014355,0.175854,0.417505,0.00957,-0.24165,0.381616,me
1616136957.0440843,1,45.0,15.0,69.0,70.0,55.0,0.83783,0.44751,-0.030823,0.310974,0.0,-0.007634,-0.007634,3.263477,7.403833,6.232666,0.028711,0.242847,0.376831,-0.023926,-0.175854,0.411523,me
1616136957.0541203,1,44.0,-1.0,70.0,73.0,53.0,0.837891,0.447571,-0.030823,0.310852,-0.007634,-0.007634,-0.007634,3.271851,7.48877,6.190796,0.038281,0.325391,0.334961,-0.070581,-0.10647,0.449805,me
1616136957.0639849,1,48.0,16.0,74.0,67.0,53.0,0.837952,0.447571,-0.030823,0.310608,-0.015267,-0.007634,-0.015267,3.274243,7.571313,6.160889,0.043066,0.407935,0.30625,-0.118433,-0.047852,0.495264,me
1616136957.0740638,1,48.0,17.0,70.0,69.0,55.0,0.838074,0.447449,-0.030884,0.310364,-0.022901,-0.015267,-0.015267,3.281421,7.619165,6.139356,0.05144,0.456982,0.283521,-0.144751,-0.005981,0.519189,me
1616136957.0840228,1,45.0,16.0,72.0,73.0,55.0,0.838257,0.447327,-0.030884,0.31012,-0.022901,-0.007634,-0.015267,3.296973,7.621558,6.128589,0.069385,0.459375,0.269165,-0.133984,0.013159,0.519189,me
1616136957.0939307,1,45.0,15.0,69.0,73.0,53.0,0.838501,0.447144,-0.030884,0.309814,-0.022901,-0.007634,-0.022901,3.31731,7.602417,6.130981,0.094507,0.440234,0.267969,-0.104077,0.019141,0.512012,me
1616136957.1040676,1,43.0,15.0,73.0,64.0,52.0,0.838684,0.446899,-0.030884,0.309631,-0.022901,-0.007634,-0.015267,3.340039,7.568921,6.145337,0.119629,0.409131,0.278735,-0.0646,0.010767,0.504834,me
1616136957.1140523,1,44.0,17.0,70.0,72.0,72.0,0.838867,0.446655,-0.030945,0.309448,-0.022901,-0.007634,-0.015267,3.367554,7.522265,6.163281,0.149536,0.366064,0.293091,-0.013159,-0.001196,0.491675,me
1616136957.1240146,1,44.0,14.0,70.0,72.0,53.0,0.838989,0.446472,-0.031067,0.309326,-0.015267,-0.007634,-0.007634,3.399853,7.481592,6.164477,0.181836,0.327783,0.290698,0.0323,0.0,0.472534,me
1616136957.133857,1,44.0,17.0,72.0,73.0,52.0,0.839111,0.446289,-0.03125,0.309204,-0.015267,-0.015267,-0.007634,3.435742,7.452881,6.1573,0.216528,0.301465,0.281128,0.071777,0.013159,0.459375,me
1616136957.143995,1,47.0,17.0,70.0,73.0,54.0,0.839172,0.446228,-0.031494,0.309143,-0.015267,-0.015267,-0.007634,3.471631,7.460059,6.139356,0.248828,0.311035,0.261987,0.088525,0.047852,0.465356,me
1616136957.1539247,1,47.0,19.0,70.0,72.0,54.0,0.839294,0.446167,-0.03186,0.308899,-0.022901,-0.022901,-0.007634,3.49436,7.494751,6.125,0.267969,0.34812,0.246436,0.080151,0.084937,0.489282,me
1616136957.1640785,1,45.0,12.0,69.0,69.0,55.0,0.839478,0.445984,-0.032227,0.308655,-0.030534,-0.022901,-0.015267,3.513501,7.523462,6.119019,0.284717,0.379224,0.238062,0.07417,0.112451,0.512012,me
1616136957.173899,1,43.0,16.0,72.0,70.0,56.0,0.839661,0.445801,-0.032593,0.30835,-0.030534,-0.022901,-0.015267,3.513501,7.536621,6.120215,0.282324,0.395972,0.236865,0.063403,0.118433,0.522778,me
1616136957.1840563,1,42.0,17.0,70.0,73.0,54.0,0.839905,0.445557,-0.032959,0.308105,-0.030534,-0.022901,-0.015267,3.501538,7.518677,6.133374,0.267969,0.382812,0.245239,0.059814,0.099292,0.514404,me
1616136957.1931524,1,46.0,17.0,70.0,69.0,57.0,0.840088,0.445312,-0.033325,0.307922,-0.022901,-0.022901,-0.007634,3.490772,7.482788,6.141748,0.253613,0.350513,0.250024,0.066992,0.075366,0.488086,me
1616136957.2041004,1,48.0,17.0,74.0,74.0,55.0,0.840149,0.445129,-0.03363,0.3078,-0.022901,-0.022901,0.0,3.47522,7.422974,6.159692,0.235669,0.295483,0.265576,0.086133,0.0323,0.452197,me
1616136957.2138789,1,43.0,17.0,69.0,78.0,53.0,0.84021,0.445007,-0.033936,0.3078,-0.015267,-0.015267,0.0,3.454883,7.354785,6.180029,0.210547,0.230884,0.284717,0.105273,-0.020337,0.407935,me
1616136959.590924,1,45.0,17.0,72.0,72.0,56.0,0.605408,0.703003,-0.373108,0.007324,-0.022901,0.007634,-0.030534,4.840186,8.78435,-2.921338,0.311035,0.495264,-0.305054,0.094507,0.10647,0.643604,me
1616136959.6009278,1,45.0,17.0,72.0,70.0,56.0,0.605652,0.702942,-0.372742,0.00708,-0.022901,0.007634,-0.030534,4.846167,8.78435,-2.933301,0.322998,0.490479,-0.324194,0.114844,0.11604,0.649585,me
1616136959.6120234,1,48.0,17.0,69.0,70.0,57.0,0.605957,0.702881,-0.372437,0.006958,-0.022901,0.007634,-0.022901,4.847363,8.77478,-2.94646,0.327783,0.477319,-0.343335,0.133984,0.130396,0.645996,me
1616136959.6209054,1,44.0,16.0,70.0,72.0,55.0,0.60614,0.70282,-0.372131,0.006836,-0.022901,0.007634,-0.022901,4.850952,8.754443,-2.948853,0.334961,0.453394,-0.351709,0.155518,0.133984,0.630444,me
1616136959.6309547,1,45.0,15.0,74.0,73.0,58.0,0.606323,0.70282,-0.371948,0.006836,-0.015267,0.007634,-0.015267,4.847363,8.725733,-2.944067,0.332568,0.42229,-0.350513,0.169873,0.133984,0.60293,me
1616136959.640458,1,45.0,17.0,73.0,72.0,57.0,0.606384,0.70282,-0.371765,0.006897,-0.007634,0.007634,-0.007634,4.838989,8.707788,-2.917749,0.325391,0.404346,-0.325391,0.163892,0.11604,0.577808,me
1616136959.6509447,1,48.0,17.0,70.0,71.0,57.0,0.606445,0.70282,-0.371643,0.007141,0.0,0.015267,0.0,4.828223,8.706592,-2.875879,0.312231,0.404346,-0.285913,0.136377,0.088525,0.56106,me
1616136959.660354,1,44.0,17.0,73.0,72.0,56.0,0.606506,0.702881,-0.371582,0.007446,0.0,0.015267,0.0,4.817456,8.720947,-2.83999,0.29668,0.418701,-0.250024,0.101685,0.066992,0.557471,me
1616136959.6702805,1,47.0,16.0,70.0,73.0,55.0,0.606506,0.702881,-0.37146,0.007751,0.0,0.015267,0.0,4.798316,8.741284,-2.80769,0.275146,0.441431,-0.218921,0.059814,0.05144,0.557471,me
1616136959.6802628,1,44.0,17.0,69.0,71.0,53.0,0.606567,0.702881,-0.371277,0.008057,0.0,0.015267,0.0,4.776782,8.771192,-2.775391,0.251221,0.472534,-0.189014,0.013159,0.038281,0.565845,me
1616136959.6902118,1,45.0,16.0,74.0,70.0,56.0,0.606689,0.702942,-0.371094,0.008301,0.0,0.015267,0.0,4.762427,8.796313,-2.743091,0.234473,0.497656,-0.15791,-0.025122,0.020337,0.57063,me
1616136959.700858,1,42.0,15.0,70.0,73.0,53.0,0.606812,0.702942,-0.370911,0.008362,-0.007634,0.007634,-0.007634,4.748071,8.811865,-2.715576,0.221313,0.512012,-0.133984,-0.052637,0.007178,0.57063,me
1616136959.7101245,1,44.0,19.0,71.0,73.0,51.0,0.606934,0.702881,-0.370728,0.008301,-0.007634,0.0,-0.015267,4.737305,8.802295,-2.703613,0.211743,0.500049,-0.12561,-0.056226,0.004785,0.553882,me
1616136959.7204056,1,40.0,19.0,73.0,72.0,56.0,0.607056,0.702881,-0.370605,0.008179,-0.015267,-0.007634,-0.015267,4.743286,8.777173,-2.706006,0.220117,0.472534,-0.130396,-0.033496,0.004785,0.535937,me
1616136959.730261,1,44.0,17.0,73.0,62.0,15.0,0.607056,0.702881,-0.370544,0.007996,-0.007634,-0.007634,-0.007634,4.763623,8.744873,-2.722754,0.244043,0.439038,-0.147144,0.008374,0.005981,0.522778,me
1616136959.740906,1,44.0,16.0,70.0,71.0,52.0,0.606995,0.702881,-0.370667,0.007935,0.0,-0.007634,-0.007634,4.785156,8.716162,-2.745483,0.265576,0.411523,-0.168677,0.047852,0.013159,0.514404,me
1616136959.7502716,1,45.0,19.0,70.0,70.0,53.0,0.606873,0.702942,-0.370789,0.007996,0.0,-0.007634,0.0,4.799512,8.71377,-2.770606,0.278735,0.410327,-0.19021,0.066992,0.025122,0.525171,me
1616136959.7604814,1,45.0,17.0,73.0,72.0,53.0,0.606689,0.703003,-0.370911,0.008118,0.007634,-0.007634,0.007634,4.812671,8.731714,-2.789746,0.289502,0.430664,-0.205762,0.070581,0.033496,0.551489,me
1616136959.770159,1,45.0,15.0,70.0,72.0,56.0,0.606506,0.703125,-0.371033,0.008301,0.007634,0.0,0.007634,4.807886,8.75205,-2.802905,0.282324,0.453394,-0.214136,0.056226,0.044263,0.57063,me
1616136959.7804031,1,45.0,15.0,72.0,70.0,55.0,0.606323,0.703186,-0.371094,0.008423,0.007634,0.0,0.007634,4.794726,8.781958,-2.819653,0.267969,0.485693,-0.227295,0.034692,0.062207,0.594556,me
1616136959.7902532,1,44.0,20.0,70.0,84.0,55.0,0.606201,0.703308,-0.371155,0.008545,0.007634,0.0,0.0,4.78396,8.823828,-2.822046,0.256006,0.52876,-0.226099,0.002393,0.068188,0.625659,me
1616136959.8003104,1,44.0,13.0,69.0,73.0,55.0,0.606201,0.703308,-0.371155,0.008545,0.0,0.0,0.0,4.775586,8.847754,-2.817261,0.247632,0.552686,-0.221313,-0.017944,0.068188,0.640015,me
1616136959.8103044,1,43.0,16.0,70.0,73.0,57.0,0.606262,0.703308,-0.371094,0.008484,-0.015267,0.0,-0.007634,4.763623,8.840576,-2.812476,0.236865,0.544312,-0.217725,-0.022729,0.070581,0.626855,me
1616136959.8204334,1,45.0,19.0,70.0,70.0,55.0,0.606384,0.703247,-0.370972,0.008362,-0.015267,0.0,-0.015267,4.756445,8.804688,-2.799316,0.23208,0.507227,-0.206958,-0.010767,0.063403,0.590967,me
1616136959.8303137,1,47.0,18.0,70.0,73.0,55.0,0.606506,0.703186,-0.37085,0.008118,-0.015267,-0.007634,-0.015267,4.746875,8.760425,-2.796924,0.226099,0.459375,-0.208154,0.010767,0.066992,0.5479,me
1616136959.8402722,1,45.0,19.0,72.0,71.0,53.0,0.606628,0.703125,-0.370728,0.007874,-0.015267,-0.007634,-0.022901,4.740893,8.730517,-2.789746,0.223706,0.427075,-0.204565,0.025122,0.065796,0.517993,me
1616136959.8501394,1,48.0,17.0,70.0,73.0,56.0,0.60675,0.703125,-0.370667,0.007568,-0.015267,-0.015267,-0.015267,4.752856,8.703003,-2.783765,0.240454,0.395972,-0.19978,0.05144,0.052637,0.498853,me
1616136959.8601687,1,46.0,19.0,72.0,72.0,56.0,0.606812,0.703003,-0.370667,0.007324,-0.015267,-0.015267,-0.015267,4.77439,8.682666,-2.784961,0.26438,0.374438,-0.203369,0.082544,0.043066,0.491675,me
1616136959.8700368,1,45.0,15.0,72.0,68.0,53.0,0.606812,0.703003,-0.370728,0.007263,-0.007634,-0.007634,-0.007634,4.809082,8.651563,-2.784961,0.299072,0.342139,-0.203369,0.124414,0.025122,0.480908,me
1616136959.880467,1,44.0,19.0,73.0,70.0,57.0,0.60675,0.703003,-0.37085,0.007324,0.0,-0.007634,0.0,4.837793,8.640796,-2.801709,0.326587,0.332568,-0.218921,0.155518,0.023926,0.489282,me
1616136959.89014,1,45.0,14.0,69.0,72.0,55.0,0.606628,0.703125,-0.37085,0.007507,0.007634,0.0,0.0,4.850952,8.664721,-2.810083,0.337354,0.358887,-0.223706,0.151929,0.022729,0.517993,me
1616136959.9002156,1,45.0,20.0,70.0,71.0,56.0,0.606506,0.703186,-0.37085,0.00769,0.007634,0.0,0.0,4.847363,8.716162,-2.795727,0.332568,0.41272,-0.206958,0.112451,0.010767,0.557471,me
1616136959.910301,1,45.0,15.0,70.0,72.0,55.0,0.606445,0.703308,-0.370789,0.007751,0.0,0.0,-0.007634,4.823438,8.777173,-2.781372,0.308643,0.47373,-0.19021,0.055029,0.00957,0.593359,me
1616136959.9200337,1,45.0,16.0,69.0,73.0,56.0,0.606445,0.703308,-0.370728,0.00769,-0.007634,-0.007634,-0.007634,4.795923,8.81665,-2.763428,0.282324,0.512012,-0.173462,0.008374,0.00957,0.608911,me
1616136959.9301243,1,43.0,20.0,70.0,70.0,55.0,0.606506,0.703308,-0.370605,0.007385,-0.015267,-0.015267,-0.015267,4.779175,8.838183,-2.739502,0.271558,0.531152,-0.150732,-0.017944,-0.003589,0.614893,me
1616136959.940235,1,43.0,13.0,72.0,73.0,55.0,0.606689,0.703247,-0.370544,0.006958,-0.022901,-0.015267,-0.022901,4.775586,8.841772,-2.725147,0.272754,0.52876,-0.139966,-0.020337,-0.013159,0.610107,me
1616136959.9503262,1,47.0,18.0,70.0,70.0,53.0,0.606934,0.703125,-0.3703,0.00647,-0.030534,-0.015267,-0.030534,4.775586,8.822632,-2.708398,0.281128,0.504834,-0.129199,-0.004785,-0.027515,0.590967,me
1616136959.960205,1,45.0,15.0,72.0,70.0,53.0,0.607239,0.703003,-0.370117,0.005981,-0.038168,-0.007634,-0.030534,4.782763,8.796313,-2.700024,0.294287,0.472534,-0.128003,0.020337,-0.034692,0.569434,me
1616136959.9701865,1,45.0,19.0,74.0,70.0,55.0,0.607605,0.70282,-0.369812,0.005493,-0.038168,-0.007634,-0.030534,4.78396,8.775976,-2.719165,0.303857,0.44502,-0.155518,0.055029,-0.016748,0.557471,me
1616136959.9803195,1,45.0,16.0,73.0,71.0,56.0,0.607971,0.702698,-0.369507,0.005066,-0.038168,0.0,-0.030534,4.782763,8.743677,-2.745483,0.309839,0.406738,-0.19021,0.094507,0.008374,0.535937,me
1616136959.9902663,1,45.0,17.0,70.0,70.0,55.0,0.608276,0.702576,-0.369202,0.0047,-0.030534,0.0,-0.030534,4.780371,8.705396,-2.774194,0.313428,0.362476,-0.226099,0.137573,0.037085,0.509619,me
1616136960.0003357,1,43.0,17.0,72.0,73.0,58.0,0.608398,0.702576,-0.368958,0.004456,-0.022901,0.0,-0.030534,4.789941,8.697021,-2.812476,0.327783,0.350513,-0.267969,0.173462,0.065796,0.516797,me
1616136960.009976,1,43.0,15.0,70.0,72.0,55.0,0.608459,0.702637,-0.368774,0.004272,-0.007634,0.0,-0.022901,4.815063,8.714966,-2.842383,0.35769,0.366064,-0.299072,0.200977,0.076563,0.551489,me
1616136960.020189,1,43.0,16.0,74.0,73.0,56.0,0.608337,0.702759,-0.368713,0.004272,0.0,-0.007634,-0.015267,4.860522,8.75205,-2.850757,0.404346,0.403149,-0.305054,0.217725,0.058618,0.605322,me
1616136960.0302036,1,44.0,15.0,73.0,73.0,49.0,0.608276,0.702881,-0.368713,0.004333,0.007634,0.0,-0.007634,4.919141,8.808276,-2.84956,0.462964,0.459375,-0.301465,0.229687,0.026318,0.679492,me
1616136960.0400658,1,48.0,16.0,70.0,68.0,55.0,0.608154,0.702942,-0.368652,0.004578,0.007634,0.007634,-0.007634,4.988525,8.874072,-2.841187,0.531152,0.527563,-0.290698,0.238062,-0.015552,0.765625,me
1616136960.0501018,1,43.0,14.0,69.0,70.0,55.0,0.608093,0.703064,-0.36853,0.004883,0.007634,0.015267,-0.007634,5.079443,8.948242,-2.832813,0.619678,0.60293,-0.281128,0.258398,-0.068188,0.868506,me
1616136960.060224,1,47.0,17.0,70.0,72.0,58.0,0.608154,0.703125,-0.368347,0.005371,0.007634,0.022901,-0.007634,5.191895,9.033178,-2.818457,0.726147,0.690259,-0.267969,0.284717,-0.132788,0.986938,me
1616136960.0702336,1,43.0,16.0,70.0,72.0,55.0,0.608337,0.703125,-0.368042,0.005981,0.007634,0.038168,-0.007634,5.321094,9.120508,-2.837598,0.849365,0.77998,-0.291895,0.337354,-0.173462,1.126904,me
1616136960.0801282,1,44.0,17.0,70.0,72.0,54.0,0.608459,0.703125,-0.367737,0.006836,0.007634,0.045802,0.0,5.504126,9.230566,-2.908179,1.024023,0.893628,-0.366064,0.436646,-0.194995,1.323096,me
1616136960.090111,1,45.0,15.0,70.0,71.0,54.0,0.608582,0.703186,-0.367432,0.007935,0.007634,0.053435,0.0,5.763721,9.368139,-3.029004,1.270459,1.037183,-0.489282,0.593359,-0.210547,1.589868,me
1616136960.100308,1,44.0,17.0,69.0,72.0,57.0,0.608765,0.703186,-0.367126,0.009216,0.007634,0.068702,0.0,6.111841,9.627734,-3.21084,1.604224,1.302759,-0.675903,0.776392,-0.212939,2.01814,me
1616136960.1100752,1,45.0,17.0,72.0,71.0,56.0,0.609131,0.703125,-0.366577,0.010681,-0.007634,0.091603,-0.007634,6.561646,10.03208,-3.497949,2.03728,1.713086,-0.972583,1.00249,-0.163892,2.643799,me
1616136960.120054,1,45.0,16.0,66.0,72.0,57.0,0.609924,0.702881,-0.365723,0.012268,-0.045802,0.129771,-0.015267,7.119116,10.632617,-3.903491,2.578003,2.317212,-1.397266,1.259692,-0.049048,3.51709,me
1616136960.1299188,1,44.0,13.0,72.0,71.0,57.0,0.61145,0.702209,-0.364319,0.014038,-0.10687,0.183206,-0.030534,7.786645,11.501123,-4.45857,3.226392,3.185718,-1.990625,1.53125,0.175854,4.705005,me
1616136960.1400745,1,45.0,17.0,72.0,73.0,53.0,0.614197,0.700989,-0.362061,0.015747,-0.206107,0.251908,-0.053435,8.506811,12.699804,-5.207446,3.931006,4.372437,-2.806494,1.780078,0.601733,6.237451,me
1616136960.1500883,1,45.0,17.0,74.0,73.0,55.0,0.61853,0.69873,-0.358948,0.01709,-0.351145,0.328244,-0.083969,9.353785,14.197558,-6.125,4.767212,5.846265,-3.829321,2.087524,1.199878,8.108447,me
1616136960.1601322,1,45.0,15.0,79.0,71.0,53.0,0.625305,0.695007,-0.354431,0.018311,-0.541985,0.450382,-0.122137,10.37063,15.630713,-7.083228,5.77688,7.238745,-4.952637,2.658154,1.894922,9.980639,me
1616136960.1709015,1,47.0,16.0,76.0,72.0,55.0,0.634888,0.689331,-0.348206,0.020508,-0.748092,0.656489,-0.145038,11.519068,16.682251,-7.995996,6.908569,8.243628,-6.104663,3.580493,2.695239,11.525049,me
1616136960.1801324,1,45.0,17.0,70.0,72.0,53.0,0.647278,0.681763,-0.339844,0.02478,-0.923664,0.916031,-0.137405,12.527539,17.433521,-8.973364,7.884741,8.948242,-7.397851,4.623657,3.869995,12.669897,me
1616136960.1903036,1,47.0,16.0,72.0,73.0,56.0,0.66156,0.672852,-0.329407,0.031616,-1.022901,1.183206,-0.091603,13.203443,17.758911,-9.99021,8.515185,9.237744,-8.787939,5.623755,5.441919,13.18191,me
1616136960.2001536,1,47.0,17.0,74.0,73.0,57.0,0.676819,0.663025,-0.317078,0.041382,-1.076336,1.419847,-0.030534,13.495337,17.737377,-10.843164,8.750854,9.198267,-10.05481,6.341528,7.177734,13.057495,me
1616136960.210071,1,45.0,16.0,73.0,72.0,54.0,0.692688,0.651978,-0.303467,0.053955,-1.10687,1.618321,0.076336,13.36853,17.472998,-11.413794,8.558252,8.941065,-11.075244,6.601123,8.905176,12.363647,me
1616136960.2202086,1,44.0,14.0,69.0,71.0,55.0,0.708801,0.639648,-0.289185,0.068787,-1.145038,1.748092,0.206107,12.818237,17.024389,-11.661426,7.937378,8.527148,-11.801392,6.346313,10.475904,11.175733,me
1616136960.2300622,1,44.0,16.0,70.0,73.0,55.0,0.725037,0.625671,-0.274658,0.085815,-1.175573,1.854962,0.351145,11.995191,16.137939,-11.532227,7.038965,7.70769,-12.179419,5.806787,11.639893,9.382495,me
1616136960.2401505,1,44.0,16.0,70.0,73.0,55.0,0.740906,0.610107,-0.260071,0.105347,-1.160305,1.961832,0.496183,10.904175,14.749048,-11.093188,5.866601,6.425269,-12.270337,5.050733,12.318189,6.997095,me
1616136960.2502728,1,44.0,16.0,69.0,71.0,54.0,0.755859,0.593628,-0.244812,0.127686,-1.076336,2.076336,0.625954,9.538013,12.957006,-10.363452,4.425073,4.77439,-12.081324,4.080542,12.41748,4.176245,me
1616136960.2602825,1,43.0,17.0,72.0,74.0,56.0,0.769409,0.576721,-0.228149,0.152588,-0.946565,2.198473,0.717557,7.889526,10.877856,-9.431543,2.72395,2.86272,-11.691333,2.934497,11.936572,1.080249,me
1616136960.269968,1,46.0,13.0,70.0,74.0,57.0,0.78125,0.559814,-0.209473,0.179504,-0.78626,2.320611,0.763359,5.895312,8.58457,-8.311816,0.717773,0.748877,-11.107544,1.625757,10.814453,-2.190405,me
1616136960.2802088,1,40.0,15.0,72.0,73.0,55.0,0.791443,0.543091,-0.188232,0.207703,-0.618321,2.412214,0.763359,3.485986,6.135767,-6.96958,-1.643701,-1.52168,-10.292871,0.169873,8.95542,-5.540015,me
1616136960.290126,1,41.0,14.0,70.0,70.0,56.0,0.800049,0.526611,-0.164062,0.235718,-0.450382,2.442748,0.694656,0.684277,3.74917,-5.272046,-4.320996,-3.750366,-9.107348,-1.41521,6.242236,-8.640796,me
1616136960.300217,1,41.0,15.0,72.0,75.0,56.0,0.807434,0.510559,-0.137146,0.261658,-0.29771,2.389313,0.549618,-2.337549,1.680786,-3.225195,-7.126294,-5.695532,-7.546191,-3.021826,2.804101,-11.096777,me
1616136960.3101833,1,39.0,13.0,66.0,68.0,47.0,0.814087,0.494995,-0.108582,0.283508,-0.206107,2.206107,0.335878,-5.43833,0.200977,-0.933105,-9.920825,-7.092798,-5.697925,-4.646387,-1.045557,-12.58855,me
1616136960.3200417,1,41.0,14.0,70.0,73.0,51.0,0.820801,0.479858,-0.080322,0.299133,-0.21374,1.870229,0.083969,-8.28789,-0.584985,1.574316,-12.392359,-7.833301,-3.584082,-6.119019,-4.957422,-12.87207,me
1616136960.3301778,1,42.0,15.0,70.0,71.0,55.0,0.828308,0.464661,-0.055176,0.307983,-0.29771,1.435115,-0.137405,-10.978345,-1.333862,4.099683,-14.678467,-8.543897,-1.406836,-7.279419,-8.838183,-12.619654,me
1616136960.3401718,1,39.0,12.0,66.0,73.0,55.0,0.835938,0.450928,-0.036072,0.310669,-0.221374,0.78626,-0.21374,-13.26565,-2.576807,6.986328,-16.6021,-9.74497,1.197485,-7.711279,-12.912745,-12.072949,me
1616136960.3502033,1,44.0,15.0,70.0,73.0,57.0,0.842041,0.441162,-0.025818,0.309143,-0.10687,0.10687,-0.129771,-14.410498,-2.25022,9.353785,-17.508886,-9.374121,3.381909,-8.267553,-15.215601,-10.290479,me
1616136960.3602676,1,44.0,13.0,73.0,73.0,57.0,0.846619,0.43512,-0.023865,0.305298,-0.259542,-0.267176,-0.053435,-13.169947,-0.311035,9.681567,-16.169043,-7.388281,3.604419,-8.348902,-13.942749,-8.049829,me
1616136960.3700626,1,47.0,17.0,45.0,70.0,55.0,0.850769,0.429932,-0.026733,0.300842,-0.419847,-0.335878,-0.091603,-10.673291,0.939087,8.548681,-13.653247,-6.072363,2.386597,-7.402637,-11.186499,-6.995898,me
1616136960.3802054,1,45.0,16.0,72.0,70.0,51.0,0.854248,0.426208,-0.029968,0.295959,-0.320611,-0.259542,-0.21374,-7.765112,1.513306,6.839185,-10.739087,-5.4479,0.617285,-5.81875,-8.128784,-6.7375,me
1616136960.3900492,1,44.0,17.0,72.0,71.0,55.0,0.856445,0.425415,-0.031067,0.290649,-0.129771,-0.129771,-0.320611,-4.830615,2.52417,5.310327,-7.774683,-4.439429,-0.922339,-4.295874,-5.05791,-6.077148,me
1616136960.4000514,1,44.0,17.0,72.0,72.0,55.0,0.857605,0.426392,-0.030151,0.285828,-0.061069,-0.015267,-0.328244,-2.182031,4.220508,4.177442,-5.077051,-2.777783,-2.039673,-3.195288,-2.144946,-4.776782,me
1616136960.410211,1,43.0,17.0,70.0,74.0,55.0,0.858398,0.427307,-0.028381,0.282227,-0.099237,0.083969,-0.267176,-0.015552,5.807983,3.386694,-2.856738,-1.223804,-2.817261,-2.316016,0.214136,-3.489575,me
1616136960.4200602,1,43.0,15.0,72.0,70.0,56.0,0.859009,0.42749,-0.026367,0.280334,-0.10687,0.152672,-0.183206,1.544409,6.742285,2.994312,-1.24773,-0.309839,-3.208447,-1.516895,1.681982,-2.609107,me
1616136960.4299514,1,45.0,31.0,71.0,70.0,56.0,0.85907,0.427612,-0.024231,0.28009,-0.030534,0.175573,-0.083969,2.40813,7.15022,3.143848,-0.346924,0.082544,-3.058911,-0.937891,2.167676,-1.973877,me
1616136960.4394286,1,44.0,15.0,73.0,74.0,56.0,0.858398,0.428162,-0.022278,0.281433,0.053435,0.145038,0.038168,2.601929,7.321289,3.826929,-0.133984,0.240454,-2.368652,-0.712988,1.821948,-1.360181,me
1616136960.4499335,1,47.0,16.0,74.0,72.0,57.0,0.857117,0.429138,-0.021179,0.283875,0.114504,0.068702,0.160305,2.319604,7.500732,4.812671,-0.423486,0.409131,-1.367358,-0.84458,1.015649,-0.684277,me
1616136960.4600146,1,43.0,15.0,73.0,72.0,55.0,0.855652,0.430176,-0.021301,0.286804,0.099237,-0.015267,0.229008,1.878174,7.745972,5.782861,-0.897217,0.650781,-0.379224,-1.159204,0.161499,-0.020337,me
1616136960.4699612,1,44.0,20.0,73.0,73.0,53.0,0.854492,0.430664,-0.022583,0.289368,0.038168,-0.083969,0.236641,1.515698,7.950537,6.47312,-1.303955,0.864917,0.319409,-1.460669,-0.459375,0.449805,me
1616136960.4799724,1,44.0,16.0,72.0,71.0,56.0,0.854065,0.43042,-0.024597,0.290955,-0.045802,-0.122137,0.175573,1.399658,7.952929,6.84397,-1.46665,0.887646,0.68667,-1.532446,-0.803906,0.641211,me
1616136960.489241,1,44.0,15.0,73.0,70.0,55.0,0.854309,0.429382,-0.026917,0.291504,-0.099237,-0.129771,0.091603,1.522876,7.712476,6.965991,-1.380518,0.675903,0.794336,-1.332666,-0.939087,0.575415,me
1616136960.5000143,1,45.0,15.0,69.0,72.0,53.0,0.85498,0.428101,-0.029053,0.291199,-0.114504,-0.122137,0.015267,1.807593,7.370337,6.932495,-1.122119,0.361279,0.741699,-0.97019,-0.91875,0.391187,me
1616136960.5093343,1,45.0,15.0,70.0,72.0,53.0,0.855896,0.426819,-0.031006,0.290283,-0.114504,-0.10687,-0.030534,2.21792,7.054517,6.846362,-0.729736,0.070581,0.635229,-0.517993,-0.784766,0.233276,me
1616136960.5198731,1,45.0,15.0,71.0,70.0,56.0,0.856689,0.42572,-0.032837,0.289307,-0.091603,-0.091603,-0.038168,2.66294,6.812866,6.731519,-0.301465,-0.14834,0.504834,-0.076563,-0.587378,0.123218,me
1616136960.5291934,1,35.0,17.0,73.0,72.0,56.0,0.857117,0.425171,-0.034546,0.288513,-0.053435,-0.091603,-0.030534,3.069678,6.677686,6.603516,0.084937,-0.269165,0.37085,0.279932,-0.364868,0.070581,me
1616136960.5399785,1,45.0,17.0,70.0,74.0,54.0,0.857178,0.425232,-0.036194,0.288086,-0.015267,-0.076336,-0.007634,3.398657,6.654956,6.501831,0.388794,-0.284717,0.272754,0.521582,-0.15791,0.090918,me
1616136960.549181,1,45.0,17.0,70.0,73.0,56.0,0.856873,0.42572,-0.037537,0.288086,0.022901,-0.061069,0.022901,3.609204,6.720752,6.449194,0.574219,-0.216528,0.229687,0.631641,-0.008374,0.169873,me
1616136960.5593474,1,45.0,17.0,72.0,74.0,53.0,0.856262,0.426575,-0.038513,0.288452,0.045802,-0.045802,0.038168,3.683374,6.881055,6.430054,0.624463,-0.059814,0.226099,0.58977,0.088525,0.295483,me
1616136960.5691574,1,41.0,15.0,74.0,76.0,56.0,0.855591,0.427673,-0.039124,0.289001,0.061069,-0.030534,0.045802,3.652271,7.115527,6.462354,0.573022,0.165088,0.276343,0.437842,0.132788,0.471338,me
1616136960.5792525,1,47.0,17.0,70.0,73.0,57.0,0.854919,0.42865,-0.039368,0.289429,0.053435,-0.022901,0.038168,3.544605,7.383496,6.52815,0.452197,0.423486,0.360083,0.215332,0.132788,0.669922,me
1616136960.589057,1,43.0,16.0,70.0,72.0,53.0,0.854431,0.429382,-0.039429,0.289673,0.030534,-0.022901,0.022901,3.393872,7.634717,6.614282,0.295483,0.667529,0.459375,-0.023926,0.096899,0.855347,me
1616136960.599425,1,47.0,17.0,70.0,72.0,56.0,0.854248,0.429749,-0.039429,0.289673,0.007634,-0.015267,0.007634,3.255103,7.830908,6.701612,0.154321,0.858936,0.552686,-0.224902,0.049048,1.006079,me
1616136960.609395,1,44.0,17.0,74.0,73.0,55.0,0.85437,0.429688,-0.039307,0.28949,-0.022901,-0.015267,-0.007634,3.164185,7.937378,6.774585,0.066992,0.964209,0.623267,-0.339746,0.004785,1.098193,me
1616136960.619135,1,49.0,19.0,73.0,72.0,55.0,0.854675,0.429321,-0.039307,0.289185,-0.038168,-0.007634,-0.015267,3.109155,7.931396,6.797315,0.016748,0.961816,0.640015,-0.378027,-0.029907,1.091016,me
1616136960.6300552,1,45.0,15.0,70.0,71.0,56.0,0.855042,0.428711,-0.039246,0.28894,-0.045802,-0.007634,-0.015267,3.085229,7.852441,6.7698,0.0,0.888843,0.60293,-0.360083,-0.04187,1.010864,me
1616136960.639455,1,43.0,17.0,70.0,74.0,57.0,0.855408,0.428101,-0.039246,0.288696,-0.045802,0.0,-0.015267,3.086426,7.744775,6.712378,0.005981,0.788355,0.534741,-0.313428,-0.0323,0.898413,me
1616136960.649236,1,44.0,15.0,73.0,72.0,53.0,0.855774,0.42749,-0.039246,0.288574,-0.045802,0.0,-0.015267,3.105567,7.620361,6.658545,0.028711,0.671118,0.471338,-0.245239,-0.027515,0.782373,me
1616136960.6592069,1,40.0,16.0,73.0,72.0,55.0,0.856079,0.426941,-0.039246,0.288513,-0.038168,0.007634,-0.007634,3.118726,7.49834,6.635816,0.045459,0.556274,0.439038,-0.175854,-0.049048,0.685474,me
1616136960.6690807,1,45.0,17.0,73.0,71.0,56.0,0.856323,0.426392,-0.039246,0.288513,-0.038168,0.007634,-0.007634,3.133081,7.3823,6.635816,0.062207,0.447412,0.429468,-0.10647,-0.08374,0.607715,me
1616136960.6791253,1,45.0,16.0,68.0,74.0,55.0,0.856628,0.425842,-0.039246,0.288513,-0.030534,0.0,-0.007634,3.141455,7.274634,6.641797,0.07417,0.345728,0.425879,-0.044263,-0.123218,0.537134,me
1616136960.689185,1,43.0,19.0,70.0,118.0,53.0,0.856873,0.425354,-0.039368,0.288513,-0.030534,0.0,-0.007634,3.147437,7.205249,6.642993,0.080151,0.283521,0.419897,-0.008374,-0.144751,0.491675,me
1616136960.6991355,1,44.0,17.0,74.0,70.0,55.0,0.857117,0.424866,-0.03949,0.288391,-0.030534,-0.007634,-0.015267,3.155811,7.152612,6.644189,0.089722,0.238062,0.41272,0.021533,-0.155518,0.458179,me
1616136960.7092412,1,46.0,19.0,74.0,70.0,55.0,0.857361,0.4245,-0.039612,0.288208,-0.030534,-0.015267,-0.015267,3.147437,7.126294,6.63103,0.08374,0.216528,0.393579,0.023926,-0.154321,0.428271,me
1616136960.7193651,1,43.0,14.0,66.0,70.0,54.0,0.857605,0.424133,-0.039856,0.287964,-0.030534,-0.015267,-0.015267,3.1594,7.123901,6.614282,0.094507,0.218921,0.372046,0.027515,-0.131592,0.419897,me
1616136960.7292013,1,44.0,20.0,74.0,72.0,56.0,0.857849,0.423828,-0.040161,0.28772,-0.030534,-0.022901,-0.007634,3.189307,7.120313,6.581983,0.123218,0.220117,0.334961,0.044263,-0.089722,0.406738,me
1616136960.7390933,1,45.0,20.0,74.0,74.0,56.0,0.857971,0.423584,-0.040588,0.287659,-0.022901,-0.022901,0.0,3.225195,7.114331,6.549683,0.154321,0.218921,0.299072,0.0646,-0.049048,0.392383,me
1616136960.749186,1,45.0,17.0,73.0,73.0,55.0,0.857971,0.423462,-0.040955,0.28772,-0.015267,-0.015267,0.015267,3.257495,7.095191,6.506616,0.18064,0.204565,0.25481,0.086133,-0.010767,0.362476,me
1616136960.759166,1,45.0,16.0,72.0,73.0,58.0,0.857849,0.423462,-0.04126,0.288025,0.0,-0.007634,0.015267,3.279028,7.095191,6.485083,0.193799,0.206958,0.233276,0.090918,0.011963,0.354102,me
1616136960.7691925,1,44.0,17.0,73.0,74.0,57.0,0.857666,0.423584,-0.041443,0.28833,0.007634,0.0,0.015267,3.292187,7.129883,6.479102,0.200977,0.242847,0.229687,0.077759,0.034692,0.38042,me
1616136960.7791357,1,45.0,15.0,70.0,70.0,56.0,0.857544,0.423706,-0.041504,0.288635,0.007634,0.0,0.015267,3.287402,7.177734,6.485083,0.192603,0.290698,0.238062,0.046655,0.046655,0.416309,me
1616136960.789265,1,45.0,8.0,74.0,73.0,57.0,0.857422,0.423828,-0.041626,0.288818,0.0,-0.007634,0.007634,3.286206,7.238745,6.492261,0.186621,0.351709,0.246436,0.010767,0.066992,0.462964,me
1616136960.7991924,1,43.0,19.0,70.0,73.0,58.0,0.857361,0.423889,-0.041748,0.288818,-0.007634,-0.007634,0.0,3.276636,7.294971,6.489868,0.174658,0.407935,0.246436,-0.028711,0.087329,0.498853,me
1616136960.8091676,1,48.0,16.0,72.0,72.0,55.0,0.857361,0.423889,-0.04187,0.288757,-0.015267,-0.007634,-0.007634,3.26228,7.328467,6.491065,0.159106,0.441431,0.247632,-0.058618,0.095703,0.517993,me
1616136960.8192928,1,47.0,17.0,71.0,75.0,56.0,0.857483,0.423828,-0.041931,0.288635,-0.015267,-0.007634,-0.015267,3.244336,7.367944,6.488672,0.141162,0.480908,0.244043,-0.095703,0.108862,0.537134,me
1616136960.8292546,1,47.0,19.0,74.0,73.0,56.0,0.857605,0.423706,-0.041931,0.28833,-0.022901,-0.007634,-0.015267,3.225195,7.411011,6.498242,0.12561,0.525171,0.251221,-0.130396,0.117236,0.568237,me
1616136960.8390698,1,45.0,21.0,76.0,73.0,52.0,0.857788,0.423462,-0.041992,0.288025,-0.030534,-0.015267,-0.015267,3.208447,7.438525,6.504224,0.111255,0.555078,0.25481,-0.156714,0.123218,0.587378,me
1616136960.8491416,1,45.0,16.0,50.0,73.0,56.0,0.858032,0.423157,-0.042114,0.28772,-0.030534,-0.015267,-0.015267,3.214429,7.43374,6.507812,0.119629,0.553882,0.253613,-0.149536,0.128003,0.587378,me
1616136960.859176,1,47.0,15.0,72.0,73.0,57.0,0.858276,0.422852,-0.042297,0.287476,-0.038168,-0.015267,-0.015267,3.233569,7.415796,6.506616,0.13877,0.540723,0.246436,-0.128003,0.136377,0.5802,me
1616136960.869092,1,45.0,17.0,73.0,72.0,56.0,0.858521,0.422546,-0.042603,0.287231,-0.038168,-0.015267,-0.015267,3.27544,7.370337,6.500635,0.179443,0.498853,0.235669,-0.07417,0.143555,0.556274,me
1616136960.8792157,1,45.0,17.0,69.0,71.0,56.0,0.858704,0.422241,-0.042908,0.287048,-0.030534,-0.015267,-0.007634,3.328076,7.311719,6.498242,0.229687,0.446216,0.229687,-0.005981,0.145947,0.531152,me
1616136960.8892424,1,43.0,19.0,69.0,72.0,57.0,0.858826,0.421997,-0.043274,0.286987,-0.030534,-0.015267,0.0,3.367554,7.226782,6.499438,0.26438,0.366064,0.227295,0.063403,0.12561,0.484497,me
1616136960.8990004,1,45.0,19.0,70.0,71.0,55.0,0.858948,0.421753,-0.04364,0.286987,-0.022901,-0.015267,0.0,3.389087,7.162183,6.49585,0.281128,0.30625,0.220117,0.107666,0.110059,0.443823,me
1616136960.909131,1,45.0,16.0,70.0,72.0,55.0,0.858948,0.421631,-0.043945,0.287048,-0.015267,-0.015267,0.0,3.383106,7.120313,6.493457,0.270361,0.269165,0.216528,0.117236,0.089722,0.411523,me
1616136960.9190185,1,45.0,14.0,72.0,69.0,55.0,0.858948,0.421509,-0.04425,0.287109,-0.015267,-0.015267,0.007634,3.353198,7.082031,6.499438,0.235669,0.234473,0.221313,0.107666,0.053833,0.38042,me
1616136960.9290943,1,44.0,15.0,72.0,71.0,53.0,0.859009,0.421448,-0.044556,0.287109,-0.007634,-0.022901,0.0,3.307739,7.074853,6.512598,0.185425,0.229687,0.233276,0.070581,0.019141,0.368457,me
1616136960.938934,1,44.0,16.0,70.0,72.0,54.0,0.859009,0.421448,-0.0448,0.287048,-0.007634,-0.022901,0.0,3.271851,7.090405,6.530542,0.145947,0.246436,0.251221,0.031104,-0.003589,0.379224,me
1616136960.9492228,1,43.0,16.0,72.0,73.0,55.0,0.85907,0.421387,-0.045105,0.286865,-0.015267,-0.022901,-0.007634,3.25271,7.086816,6.549683,0.123218,0.244043,0.270361,0.016748,-0.028711,0.382812,me
1616136960.959021,1,45.0,19.0,70.0,69.0,55.0,0.859131,0.421326,-0.045349,0.286682,-0.015267,-0.022901,-0.007634,3.245532,7.068872,6.562842,0.113647,0.228491,0.283521,0.019141,-0.050244,0.376831,me
1616136960.9692369,1,45.0,15.0,70.0,72.0,49.0,0.859253,0.421265,-0.045654,0.286499,-0.007634,-0.022901,-0.007634,3.261084,7.058105,6.565234,0.12561,0.218921,0.284717,0.033496,-0.050244,0.374438,me
1616136960.9791949,1,45.0,17.0,73.0,72.0,55.0,0.859253,0.421265,-0.045898,0.286316,-0.007634,-0.022901,-0.007634,3.290991,7.061694,6.558057,0.153125,0.223706,0.278735,0.053833,-0.031104,0.382812,me
1616136960.9889295,1,47.0,15.0,69.0,71.0,53.0,0.859253,0.421326,-0.046143,0.286255,-0.007634,-0.015267,-0.007634,3.316113,7.070068,6.559253,0.174658,0.23208,0.281128,0.066992,-0.019141,0.397168,me
1616136960.999176,1,45.0,17.0,70.0,73.0,55.0,0.859253,0.421387,-0.046387,0.286194,0.0,-0.015267,0.0,3.325684,7.093994,6.558057,0.18064,0.257202,0.279932,0.058618,-0.003589,0.416309,me
1616136961.0090597,1,44.0,15.0,68.0,71.0,52.0,0.859131,0.42157,-0.046509,0.286194,0.0,-0.015267,0.0,3.331665,7.141846,6.571216,0.183032,0.303857,0.297876,0.038281,0.004785,0.460571,me
1616136961.0189683,1,45.0,15.0,69.0,71.0,52.0,0.85907,0.421692,-0.046692,0.286194,0.0,-0.015267,0.0,3.329273,7.181323,6.590356,0.177051,0.342139,0.318213,0.016748,0.004785,0.498853,me
1616136961.0290184,1,44.0,15.0,73.0,72.0,52.0,0.859009,0.421753,-0.046814,0.286255,0.0,-0.015267,0.0,3.31731,7.219604,6.607104,0.162695,0.38042,0.336157,-0.011963,0.003589,0.532349,me
1616136961.0390615,1,43.0,16.0,70.0,70.0,55.0,0.859009,0.421814,-0.046875,0.286255,-0.007634,-0.015267,0.0,3.30415,7.242334,6.63103,0.147144,0.403149,0.361279,-0.033496,-0.010767,0.558667,me
1616136961.0490165,1,44.0,18.0,70.0,78.0,51.0,0.859009,0.421814,-0.046997,0.286194,-0.007634,-0.015267,0.0,3.281421,7.247119,6.640601,0.123218,0.407935,0.37085,-0.053833,-0.026318,0.56106,me
1616136961.058952,1,45.0,16.0,73.0,73.0,57.0,0.859009,0.421753,-0.047058,0.286133,-0.007634,-0.007634,-0.007634,3.258691,7.238745,6.645386,0.100488,0.400757,0.375635,-0.068188,-0.044263,0.551489,me
1616136961.0691602,1,44.0,17.0,70.0,72.0,58.0,0.85907,0.421692,-0.047119,0.286072,-0.007634,-0.007634,-0.007634,3.244336,7.227979,6.642993,0.086133,0.391187,0.372046,-0.075366,-0.052637,0.53833,me
1616136961.079057,1,44.0,19.0,73.0,70.0,55.0,0.859192,0.42157,-0.047058,0.286011,-0.007634,-0.007634,-0.007634,3.237158,7.214819,6.651367,0.081348,0.379224,0.378027,-0.072974,-0.0646,0.532349,me
1616136965.8829489,1,36.0,10.0,77.0,82.0,59.0,0.579895,0.677063,-0.451843,-0.032532,0.0,0.0,-0.007634,4.931104,8.463745,-3.274243,0.226099,0.479712,-0.086133,-0.092114,-0.04187,0.526367,me
1616136965.893175,1,36.0,12.0,77.0,78.0,58.0,0.579895,0.677124,-0.451782,-0.032593,0.0,0.0,-0.007634,4.916748,8.432642,-3.281421,0.214136,0.447412,-0.093311,-0.076563,-0.0323,0.49646,me
1616136965.9029944,1,36.0,10.0,77.0,80.0,59.0,0.579834,0.677185,-0.451843,-0.032593,0.0,-0.007634,0.0,4.915552,8.401538,-3.29458,0.212939,0.416309,-0.104077,-0.053833,-0.025122,0.474927,me
1616136965.913197,1,38.0,11.0,77.0,82.0,59.0,0.579651,0.677246,-0.451904,-0.032532,0.007634,-0.007634,0.0,4.928711,8.390772,-3.306543,0.226099,0.407935,-0.112451,-0.037085,-0.028711,0.477319,me
1616136965.922963,1,35.0,13.0,75.0,79.0,55.0,0.579529,0.677307,-0.452026,-0.032471,0.007634,-0.007634,0.0,4.949048,8.408716,-3.305347,0.245239,0.427075,-0.108862,-0.038281,-0.04187,0.500049,me
1616136965.9331882,1,35.0,10.0,78.0,80.0,59.0,0.579468,0.677307,-0.452026,-0.03241,0.0,0.0,0.0,4.956225,8.429052,-3.310132,0.252417,0.448608,-0.112451,-0.044263,-0.04187,0.522778,me
1616136965.9431129,1,36.0,14.0,78.0,78.0,58.0,0.579529,0.677368,-0.451965,-0.03241,0.0,0.0,-0.007634,4.949048,8.437427,-3.324487,0.245239,0.455786,-0.126807,-0.044263,-0.026318,0.529956,me
1616136965.953034,1,37.0,10.0,78.0,80.0,59.0,0.57959,0.677368,-0.451843,-0.03241,-0.007634,0.0,-0.007634,4.939477,8.425464,-3.334058,0.235669,0.442627,-0.13877,-0.035889,-0.011963,0.517993,me
1616136965.9631672,1,34.0,12.0,77.0,80.0,58.0,0.579651,0.677368,-0.451721,-0.032471,-0.007634,0.0,-0.007634,4.928711,8.405127,-3.331665,0.227295,0.421094,-0.137573,-0.028711,-0.00957,0.49646,me
1616136965.9731162,1,33.0,10.0,78.0,75.0,58.0,0.579651,0.677429,-0.45166,-0.032593,-0.007634,-0.007634,-0.015267,4.921533,8.368042,-3.342432,0.22251,0.382812,-0.14834,-0.003589,-0.001196,0.466553,me
1616136965.9830418,1,35.0,12.0,78.0,77.0,59.0,0.579529,0.67749,-0.45166,-0.032715,0.0,-0.015267,-0.015267,4.916748,8.317798,-3.350806,0.220117,0.332568,-0.154321,0.026318,0.0,0.425879,me
1616136965.9931054,1,35.0,11.0,78.0,83.0,59.0,0.579285,0.677612,-0.451721,-0.032837,0.007634,-0.022901,-0.007634,4.928711,8.293872,-3.34602,0.235669,0.308643,-0.144751,0.043066,-0.019141,0.411523,me
1616136966.003044,1,36.0,11.0,76.0,79.0,58.0,0.579041,0.677795,-0.451904,-0.032959,0.015267,-0.022901,-0.007634,4.952637,8.304639,-3.354394,0.260791,0.319409,-0.147144,0.052637,-0.0323,0.433057,me
1616136966.0130012,1,36.0,11.0,78.0,83.0,58.0,0.578674,0.677979,-0.452026,-0.032898,0.015267,-0.015267,-0.007634,4.987329,8.339331,-3.35918,0.29668,0.35769,-0.143555,0.050244,-0.056226,0.479712,me
1616136966.0229878,1,36.0,11.0,78.0,79.0,59.0,0.57843,0.678162,-0.452087,-0.032837,0.015267,-0.007634,-0.007634,5.002881,8.391968,-3.367554,0.313428,0.411523,-0.145947,0.029907,-0.061011,0.532349,me
1616136966.0329735,1,39.0,12.0,77.0,78.0,58.0,0.578247,0.678345,-0.452087,-0.032715,0.015267,-0.007634,-0.007634,5.017236,8.437427,-3.374732,0.327783,0.459375,-0.149536,0.013159,-0.0646,0.579004,me
1616136966.0430038,1,17.0,13.0,79.0,83.0,62.0,0.578125,0.678467,-0.452026,-0.032532,0.007634,0.0,-0.007634,5.02561,8.464941,-3.381909,0.336157,0.488086,-0.153125,0.003589,-0.0646,0.607715,me
1616136966.0529892,1,35.0,10.0,79.0,85.0,61.0,0.578003,0.678589,-0.451965,-0.03241,0.007634,0.0,-0.007634,5.01604,8.472119,-3.393872,0.326587,0.49646,-0.162695,-0.001196,-0.05144,0.613696,me
1616136966.0630994,1,35.0,12.0,79.0,78.0,58.0,0.577942,0.678772,-0.451904,-0.032288,0.007634,0.0,-0.007634,4.99331,8.485278,-3.399853,0.302661,0.509619,-0.166284,-0.020337,-0.0323,0.613696,me
1616136966.0731297,1,35.0,10.0,79.0,86.0,60.0,0.577881,0.678894,-0.451782,-0.032288,0.007634,0.0,-0.007634,4.971777,8.503222,-3.389087,0.283521,0.527563,-0.154321,-0.049048,-0.027515,0.614893,me
1616136966.0830774,1,35.0,12.0,79.0,81.0,59.0,0.57782,0.678955,-0.451721,-0.032349,0.0,-0.007634,-0.007634,4.956225,8.510401,-3.384302,0.270361,0.533545,-0.14834,-0.063403,-0.022729,0.611304,me
1616136966.09293,1,34.0,12.0,76.0,82.0,58.0,0.57782,0.679016,-0.45166,-0.032471,-0.007634,-0.007634,-0.015267,4.940674,8.502027,-3.373535,0.257202,0.523975,-0.137573,-0.071777,-0.022729,0.594556,me
1616136966.102908,1,38.0,12.0,76.0,80.0,60.0,0.57782,0.679077,-0.451538,-0.032715,-0.007634,-0.007634,-0.015267,4.925122,8.487671,-3.369946,0.246436,0.507227,-0.133984,-0.070581,-0.020337,0.574219,me
1616136966.112951,1,32.0,11.0,78.0,80.0,58.0,0.577759,0.679077,-0.451538,-0.032898,-0.007634,-0.015267,-0.007634,4.927515,8.463745,-3.375928,0.251221,0.482104,-0.139966,-0.049048,-0.021533,0.558667,me
1616136966.1224356,1,35.0,10.0,75.0,76.0,58.0,0.577698,0.679077,-0.451599,-0.032959,0.0,-0.007634,0.0,4.925122,8.425464,-3.389087,0.250024,0.443823,-0.151929,-0.021533,-0.014355,0.529956,me
1616136966.133005,1,33.0,10.0,77.0,80.0,60.0,0.577576,0.679138,-0.451721,-0.032898,0.007634,-0.007634,0.0,4.923926,8.399145,-3.404639,0.247632,0.418701,-0.163892,-0.001196,-0.005981,0.513208,me
1616136966.1430852,1,33.0,10.0,77.0,77.0,59.0,0.577332,0.67926,-0.451843,-0.032776,0.015267,-0.007634,0.0,4.921533,8.402735,-3.411816,0.244043,0.425879,-0.166284,-0.007178,-0.001196,0.517993,me
1616136966.152212,1,35.0,11.0,79.0,79.0,58.0,0.577087,0.679382,-0.451965,-0.032654,0.015267,-0.007634,0.0,4.925122,8.411108,-3.422583,0.247632,0.436646,-0.171069,-0.008374,0.0,0.529956,me
1616136966.1625333,1,37.0,12.0,78.0,82.0,62.0,0.576782,0.679565,-0.452087,-0.032471,0.022901,-0.007634,0.007634,4.957422,8.407519,-3.438135,0.278735,0.436646,-0.179443,0.013159,-0.013159,0.546704,me
1616136966.1724453,1,33.0,12.0,76.0,77.0,58.0,0.576416,0.67981,-0.452271,-0.032104,0.030534,-0.007634,0.007634,5.014844,8.393164,-3.460864,0.332568,0.427075,-0.192603,0.057422,-0.039478,0.569434,me
1616136966.182364,1,33.0,10.0,78.0,82.0,58.0,0.575867,0.680115,-0.452515,-0.031616,0.045802,-0.007634,0.007634,5.103369,8.385986,-3.481201,0.416309,0.428271,-0.200977,0.110059,-0.088525,0.613696,me
1616136966.1924326,1,35.0,10.0,77.0,79.0,58.0,0.575317,0.68042,-0.45282,-0.030945,0.053435,0.0,0.015267,5.21582,8.418286,-3.500342,0.521582,0.470142,-0.205762,0.149536,-0.150732,0.699829,me
1616136966.2023375,1,36.0,10.0,78.0,77.0,59.0,0.574768,0.680786,-0.453003,-0.030151,0.053435,0.007634,0.015267,5.346216,8.558252,-3.537427,0.6448,0.620874,-0.229687,0.145947,-0.202173,0.888843,me
1616136966.2122438,1,36.0,11.0,78.0,83.0,58.0,0.574402,0.68103,-0.453125,-0.02948,0.038168,0.015267,0.007634,5.501733,8.860913,-3.615185,0.79314,0.930713,-0.299072,0.089722,-0.223706,1.23457,me
1616136966.2224722,1,36.0,11.0,78.0,82.0,59.0,0.574646,0.680969,-0.452942,-0.029053,-0.015267,0.030534,0.007634,5.684766,9.341822,-3.794629,0.97019,1.414014,-0.483301,0.015552,-0.165088,1.7729,me
1616136966.232258,1,38.0,11.0,77.0,80.0,59.0,0.575745,0.680481,-0.452332,-0.028931,-0.083969,0.061069,-0.007634,5.995801,9.926806,-4.063794,1.27644,1.990625,-0.776392,0.027515,-0.095703,2.485889,me
1616136966.2424166,1,37.0,12.0,77.0,83.0,59.0,0.577942,0.679321,-0.451294,-0.028687,-0.152672,0.122137,-0.007634,6.402539,10.532129,-4.419092,1.671216,2.582788,-1.181934,0.151929,0.011963,3.290991,me
1616136966.252252,1,35.0,12.0,78.0,78.0,59.0,0.581177,0.677551,-0.449768,-0.02832,-0.229008,0.175573,-0.007634,6.860718,11.1219,-4.866504,2.112647,3.153418,-1.702319,0.391187,0.192603,4.135571,me
1616136966.2624068,1,36.0,12.0,79.0,82.0,59.0,0.585327,0.675171,-0.447937,-0.027466,-0.290076,0.236641,0.015267,7.430151,11.569311,-5.440722,2.654565,3.581689,-2.371045,0.863721,0.434253,4.955029,me
1616136966.2723403,1,36.0,11.0,74.0,83.0,60.0,0.590027,0.672302,-0.446289,-0.025391,-0.312977,0.305344,0.068702,8.100073,11.922216,-6.229077,3.273047,3.925025,-3.264673,1.557568,0.825439,5.802002,me
1616136966.2822046,1,35.0,11.0,79.0,82.0,58.0,0.594788,0.669128,-0.444946,-0.021729,-0.305344,0.389313,0.137405,8.912354,12.344507,-7.292578,4.009961,4.353296,-4.43584,2.415308,1.403247,6.847558,me
1616136966.2923553,1,36.0,10.0,77.0,83.0,59.0,0.599731,0.665649,-0.443787,-0.015686,-0.29771,0.519084,0.229008,9.908862,12.8625,-8.582178,4.896411,4.901196,-5.836694,3.390283,2.148535,8.12041,me
1616136966.302419,1,33.0,11.0,78.0,79.0,59.0,0.605164,0.661865,-0.442261,-0.006653,-0.282443,0.694656,0.320611,11.022608,13.375708,-9.975855,5.863013,5.467041,-7.354785,4.41311,3.044556,9.463842,me
1616136966.312399,1,34.0,10.0,78.0,80.0,63.0,0.61145,0.657776,-0.439758,0.005737,-0.267176,0.931298,0.396947,12.08252,13.837476,-11.35039,6.7375,6.002978,-8.878858,5.323486,4.143945,10.710376,me
1616136966.322176,1,33.0,11.0,79.0,78.0,58.0,0.618835,0.653381,-0.435425,0.021057,-0.274809,1.183206,0.442748,12.934278,14.299243,-12.522754,7.3823,6.553271,-10.237842,5.910864,5.409619,11.746363,me
1616136966.332396,1,35.0,11.0,78.0,79.0,59.0,0.628296,0.648071,-0.428528,0.038635,-0.343511,1.450382,0.450382,13.512085,14.740674,-13.271631,7.743579,7.084424,-11.239136,6.085523,6.711182,12.422266,me
1616136966.3422174,1,36.0,10.0,74.0,82.0,59.0,0.640564,0.641357,-0.418335,0.057556,-0.480916,1.725191,0.419847,13.619751,14.954809,-13.510889,7.643091,7.373926,-11.81814,5.877368,7.999585,12.404322,me
1616136966.3523936,1,35.0,10.0,78.0,83.0,59.0,0.655884,0.632507,-0.404663,0.07666,-0.671756,1.946565,0.351145,13.144824,14.82561,-13.221387,6.99231,7.302148,-11.968872,5.339038,9.169556,11.523852,me
1616136966.3624086,1,35.0,11.0,78.0,80.0,61.0,0.674194,0.621216,-0.387939,0.095032,-0.877863,2.114504,0.274809,12.104053,14.158081,-12.531128,5.819946,6.671704,-11.816943,4.67749,10.111035,9.688745,me
1616136966.3722887,1,37.0,10.0,78.0,79.0,58.0,0.694397,0.607544,-0.368835,0.112366,-1.038168,2.21374,0.206107,10.611084,12.962988,-11.569311,4.252808,5.505322,-11.467627,3.969287,10.685254,7.065283,me
1616136966.382094,1,35.0,10.0,77.0,79.0,60.0,0.715454,0.591919,-0.347961,0.128601,-1.137405,2.251908,0.145038,8.835791,11.535815,-10.406519,2.464355,4.111646,-10.963989,3.124707,10.798902,4.091309,me
1616136966.3921812,1,35.0,13.0,79.0,80.0,58.0,0.736877,0.574463,-0.325989,0.14386,-1.221374,2.251908,0.129771,6.936084,10.067968,-9.075048,0.607715,2.689258,-10.322779,2.128198,10.411304,1.100586,me
1616136966.4022136,1,35.0,11.0,76.0,84.0,59.0,0.757812,0.555359,-0.303406,0.158752,-1.229008,2.244275,0.145038,5.030396,8.480494,-7.588061,-1.203467,1.174756,-9.538013,1.104175,9.453076,-1.787256,me
1616136966.41245,1,35.0,11.0,79.0,80.0,58.0,0.777588,0.535339,-0.280029,0.174011,-1.160305,2.244275,0.167939,3.141455,6.743482,-6.030493,-2.951245,-0.459375,-8.675488,0.113647,7.985229,-4.513598,me
1616136966.4222076,1,35.0,11.0,78.0,80.0,59.0,0.795471,0.51532,-0.255798,0.190125,-1.015267,2.236641,0.206107,1.27644,5.05791,-4.429858,-4.632031,-2.022925,-7.741187,-0.911572,6.116626,-6.870288,me
1616136966.4322913,1,35.0,13.0,78.0,82.0,58.0,0.810974,0.496033,-0.230774,0.207275,-0.832061,2.206107,0.267176,-0.520386,3.533838,-2.767017,-6.202759,-3.413013,-6.699219,-1.949951,3.925025,-8.704199,me
1616136966.442167,1,33.0,11.0,76.0,80.0,59.0,0.823792,0.477783,-0.205505,0.225281,-0.633588,2.129771,0.328244,-2.314819,2.183228,-1.087427,-7.742383,-4.623657,-5.584277,-2.98833,1.515698,-10.061987,me
1616136966.452499,1,38.0,12.0,78.0,84.0,61.0,0.833984,0.461182,-0.180603,0.243042,-0.442748,1.969466,0.366412,-4.281518,1.163989,0.837402,-9.430346,-5.513696,-4.153516,-4.225293,-1.208252,-10.826416,me
1616136966.4623086,1,37.0,10.0,78.0,80.0,59.0,0.842163,0.446167,-0.157471,0.258484,-0.259542,1.580153,0.343511,-7.631128,-0.721362,3.834106,-12.490454,-7.287793,-1.576709,-5.949145,-5.780469,-11.947339,me
1616136966.4724977,1,39.0,9.0,79.0,80.0,58.0,0.847839,0.434448,-0.140198,0.269653,0.091603,0.778626,0.351145,-10.806079,-2.563648,7.897901,-15.430933,-9.041553,2.182031,-7.351196,-11.260669,-11.988012,me
1616136966.482226,1,38.0,11.0,79.0,79.0,58.0,0.851013,0.427368,-0.131226,0.275452,0.045802,0.152672,0.343511,-12.254786,-1.181934,10.947241,-16.750439,-7.601221,5.063891,-9.152807,-13.693921,-9.624146,me
1616136966.4923513,1,38.0,10.0,79.0,80.0,59.0,0.85498,0.418762,-0.127991,0.277832,-0.419847,0.022901,0.282443,-11.180517,0.521582,11.491552,-15.605591,-5.798413,5.450293,-9.231763,-12.899585,-7.426562,me
1616136966.50229,1,38.0,13.0,80.0,83.0,60.0,0.860107,0.407837,-0.126953,0.278748,-0.587786,0.160305,0.061069,-8.944654,0.313428,10.377808,-13.312304,-5.867798,4.153516,-7.354785,-11.21521,-6.997095,me
1616136966.512429,1,39.0,10.0,79.0,82.0,59.0,0.864929,0.39917,-0.12384,0.27771,-0.366412,0.267176,-0.229008,-6.571216,-0.301465,8.754443,-10.843164,-6.394165,2.378223,-5.114136,-9.311914,-7.155005,me
1616136966.522231,1,38.0,12.0,78.0,82.0,58.0,0.868591,0.394958,-0.118591,0.274597,-0.137405,0.282443,-0.389313,-4.198975,0.163892,7.29856,-8.34292,-5.921631,0.831421,-3.459668,-7.003076,-6.656152,me
1616136966.532483,1,38.0,10.0,78.0,84.0,58.0,0.871094,0.393616,-0.113586,0.270752,-0.091603,0.221374,-0.366412,-1.940381,1.504932,6.145337,-5.968286,-4.611694,-0.363672,-2.356689,-4.515991,-5.573511,me
1616136966.5421653,1,37.0,10.0,78.0,82.0,60.0,0.872803,0.393066,-0.110474,0.267334,-0.114504,0.137405,-0.282443,0.050244,2.814868,5.189502,-3.898706,-3.329273,-1.342236,-1.425977,-2.304053,-4.553076,me
1616136966.5522509,1,38.0,11.0,78.0,78.0,58.0,0.873718,0.393127,-0.109192,0.264771,-0.068702,0.076336,-0.206107,1.735815,3.752759,4.447803,-2.173657,-2.411719,-2.088721,-0.529956,-0.590967,-3.776685,me
1616136966.5624194,1,39.0,12.0,78.0,83.0,60.0,0.873657,0.394287,-0.108643,0.263306,0.015267,0.053435,-0.122137,3.044556,4.54231,4.017138,-0.850561,-1.648486,-2.502637,0.142358,0.641211,-3.044556,me
1616136966.5723765,1,38.0,13.0,76.0,79.0,61.0,0.872742,0.396423,-0.108154,0.263489,0.099237,0.061069,-0.015267,3.87478,5.245728,3.94895,-0.021533,-0.976172,-2.540918,0.462964,1.360181,-2.310034,me
1616136966.58222,1,39.0,12.0,76.0,84.0,58.0,0.871094,0.399048,-0.107483,0.265076,0.160305,0.068702,0.076336,4.188208,5.788843,4.233667,0.278735,-0.465356,-2.216724,0.433057,1.520483,-1.644897,me
1616136966.592216,1,39.0,10.0,79.0,82.0,61.0,0.869202,0.401733,-0.106628,0.267578,0.198473,0.061069,0.137405,4.073364,6.188403,4.801904,0.149536,-0.095703,-1.610205,0.129199,1.221411,-1.055127,me
1616136966.6021154,1,42.0,10.0,79.0,82.0,58.0,0.867371,0.404175,-0.105713,0.270325,0.198473,0.038168,0.160305,3.721655,6.497046,5.520874,-0.216528,0.185425,-0.856543,-0.312231,0.66394,-0.523975,me
1616136966.6123707,1,38.0,11.0,78.0,83.0,59.0,0.865906,0.406006,-0.10498,0.272583,0.160305,0.0,0.145038,3.292187,6.751855,6.244629,-0.657959,0.421094,-0.107666,-0.783569,0.046655,-0.062207,me
1616136966.622053,1,39.0,13.0,78.0,82.0,58.0,0.86499,0.407104,-0.104614,0.273926,0.091603,-0.038168,0.099237,2.957227,6.944458,6.827222,-1.001294,0.604126,0.490479,-1.146045,-0.448608,0.302661,me
1616136966.6320343,1,38.0,12.0,79.0,82.0,60.0,0.864746,0.407349,-0.104675,0.274292,0.015267,-0.053435,0.045802,2.83999,7.040161,7.156201,-1.123315,0.698633,0.823047,-1.284814,-0.702222,0.52876,me
1616136966.6421845,1,38.0,10.0,78.0,80.0,61.0,0.86499,0.407043,-0.105042,0.273926,-0.038168,-0.061069,0.0,2.940479,6.981543,7.242334,-1.02522,0.643604,0.905591,-1.171167,-0.753662,0.586182,me
1616136966.6522176,1,40.0,11.0,78.0,83.0,59.0,0.865417,0.406433,-0.105591,0.273132,-0.053435,-0.053435,-0.038168,3.179736,6.822436,7.186109,-0.785962,0.492871,0.843384,-0.892432,-0.689062,0.545508,me
1616136966.662143,1,39.0,12.0,79.0,153.0,60.0,0.865906,0.405884,-0.106262,0.272095,-0.053435,-0.053435,-0.053435,3.481201,6.676489,7.067676,-0.485693,0.354102,0.71897,-0.573022,-0.5479,0.49646,me
1616136966.6721828,1,38.0,12.0,79.0,82.0,59.0,0.866272,0.40564,-0.106873,0.271057,-0.038168,-0.053435,-0.053435,3.806592,6.603516,6.912158,-0.162695,0.283521,0.562256,-0.272754,-0.340942,0.480908,me
1616136966.6820393,1,38.0,11.0,77.0,81.0,58.0,0.866455,0.405701,-0.107605,0.270203,-0.022901,-0.045802,-0.045802,4.117627,6.576001,6.741089,0.141162,0.256006,0.394775,-0.011963,-0.111255,0.477319,me
1616136966.6922011,1,39.0,13.0,80.0,82.0,60.0,0.866394,0.406006,-0.108154,0.269653,0.0,-0.030534,-0.030534,4.359277,6.595141,6.587964,0.376831,0.271558,0.248828,0.169873,0.095703,0.489282,me
1616136966.7020206,1,41.0,12.0,80.0,84.0,61.0,0.86615,0.406555,-0.108398,0.26947,0.022901,-0.007634,-0.015267,4.523169,6.682471,6.44082,0.534741,0.352905,0.111255,0.251221,0.301465,0.516797,me
1616136966.7121377,1,39.0,13.0,79.0,82.0,62.0,0.865784,0.407349,-0.108276,0.269653,0.038168,0.015267,0.0,4.599731,6.832007,6.349902,0.608911,0.491675,0.0323,0.233276,0.461768,0.586182,me
1616136966.7212863,1,38.0,10.0,78.0,80.0,58.0,0.865295,0.408203,-0.107788,0.27002,0.045802,0.030534,0.007634,4.591357,6.986328,6.325976,0.601733,0.632837,0.020337,0.14834,0.541919,0.667529,me
1616136966.732245,1,39.0,11.0,79.0,79.0,61.0,0.864929,0.408875,-0.107056,0.270447,0.038168,0.038168,0.007634,4.49685,7.138257,6.386987,0.514404,0.773999,0.088525,0.0,0.52876,0.768018,me
1616136966.7419956,1,38.0,11.0,77.0,82.0,59.0,0.864746,0.409363,-0.106262,0.270691,0.022901,0.030534,0.0,4.374829,7.245923,6.487475,0.400757,0.870898,0.193799,-0.142358,0.45459,0.852954,me
1616136966.751477,1,40.0,10.0,78.0,82.0,59.0,0.864746,0.409485,-0.105713,0.270813,0.0,0.022901,0.0,4.259985,7.303345,6.595141,0.294287,0.923535,0.300269,-0.256006,0.360083,0.912769,me
1616136966.761304,1,38.0,12.0,79.0,80.0,59.0,0.864868,0.409241,-0.105408,0.270752,-0.030534,0.007634,-0.007634,4.176245,7.300952,6.662134,0.216528,0.922339,0.362476,-0.317017,0.282324,0.919946,me
1616136966.77222,1,38.0,10.0,79.0,83.0,61.0,0.865173,0.408752,-0.105286,0.27063,-0.045802,0.007634,-0.007634,4.140357,7.172949,6.677686,0.186621,0.799121,0.369653,-0.272754,0.203369,0.832617,me
1616136966.7812486,1,40.0,13.0,77.0,82.0,60.0,0.86554,0.408081,-0.105225,0.270508,-0.038168,0.007634,-0.015267,4.102075,6.962402,6.686059,0.153125,0.596948,0.367261,-0.189014,0.088525,0.685474,me
1616136966.7916696,1,38.0,10.0,79.0,80.0,59.0,0.865845,0.407532,-0.105103,0.270447,-0.030534,0.007634,-0.015267,4.059009,6.730322,6.692041,0.114844,0.37085,0.363672,-0.095703,-0.039478,0.521582,me
1616136966.8020587,1,38.0,14.0,77.0,84.0,59.0,0.866028,0.407043,-0.10498,0.270508,-0.015267,0.007634,-0.007634,4.007568,6.519775,6.696826,0.066992,0.166284,0.361279,-0.021533,-0.162695,0.367261,me
1616136966.8120496,1,39.0,10.0,78.0,78.0,58.0,0.86615,0.406738,-0.104858,0.270691,-0.007634,0.007634,0.0,3.977661,6.35708,6.699219,0.039478,0.008374,0.35769,0.04187,-0.252417,0.252417,me
1616136966.8222167,1,39.0,12.0,69.0,83.0,61.0,0.86615,0.406616,-0.104797,0.270935,0.007634,0.007634,0.007634,3.965698,6.267358,6.683667,0.026318,-0.078955,0.339746,0.077759,-0.289502,0.178247,me
1616136966.8321052,1,39.0,13.0,78.0,82.0,60.0,0.866089,0.406616,-0.104675,0.271118,0.015267,0.0,0.0,3.962109,6.23147,6.662134,0.023926,-0.113647,0.318213,0.094507,-0.291895,0.141162,me
1616136966.8421738,1,38.0,10.0,77.0,80.0,58.0,0.865967,0.406738,-0.104614,0.271301,0.015267,0.0,0.0,3.966895,6.248218,6.640601,0.027515,-0.098096,0.297876,0.088525,-0.266772,0.139966,me
1616136966.8519711,1,38.0,11.0,76.0,82.0,61.0,0.865906,0.406921,-0.104614,0.271362,0.015267,-0.007634,0.0,3.974072,6.290088,6.628638,0.033496,-0.058618,0.288306,0.071777,-0.236865,0.161499,me
1616136966.862182,1,39.0,12.0,80.0,78.0,59.0,0.865784,0.407166,-0.104736,0.27124,0.007634,-0.022901,-0.007634,3.992017,6.342725,6.619067,0.049048,-0.00957,0.283521,0.056226,-0.200977,0.196191,me
1616136966.8720477,1,40.0,11.0,80.0,80.0,48.0,0.865723,0.407349,-0.104919,0.271118,0.007634,-0.022901,-0.007634,4.019531,6.375024,6.607104,0.07417,0.020337,0.275146,0.061011,-0.169873,0.220117,me
1616136966.8812535,1,38.0,12.0,78.0,77.0,59.0,0.865601,0.407654,-0.105042,0.270996,0.015267,-0.015267,-0.007634,4.035083,6.39895,6.601123,0.087329,0.040674,0.275146,0.059814,-0.154321,0.238062,me
1616136966.8914304,1,38.0,13.0,78.0,83.0,58.0,0.865417,0.40802,-0.105042,0.270935,0.022901,-0.015267,-0.007634,4.024316,6.455176,6.598731,0.075366,0.090918,0.278735,0.022729,-0.136377,0.267969,me
1616136966.9014893,1,38.0,10.0,79.0,82.0,58.0,0.865234,0.408447,-0.104919,0.270996,0.030534,-0.007634,0.0,4.002783,6.53772,6.610693,0.053833,0.16748,0.29668,-0.035889,-0.118433,0.320605,me
1616136966.9117403,1,38.0,10.0,79.0,79.0,58.0,0.865051,0.408875,-0.104675,0.271057,0.030534,0.0,0.0,3.966895,6.641797,6.634619,0.019141,0.26438,0.326587,-0.117236,-0.104077,0.388794,me
1616136966.9214263,1,38.0,10.0,77.0,83.0,60.0,0.864807,0.409363,-0.104431,0.271179,0.022901,0.0,0.0,3.945361,6.739892,6.648974,0.0,0.355298,0.346924,-0.181836,-0.081348,0.453394,me
1616136966.9315186,1,38.0,12.0,78.0,78.0,59.0,0.864624,0.409729,-0.104248,0.27124,0.022901,0.0,0.0,3.952539,6.846362,6.656152,0.007178,0.456982,0.360083,-0.23208,-0.035889,0.531152,me
1616136966.9415834,1,29.0,12.0,76.0,84.0,59.0,0.864502,0.410034,-0.104126,0.27124,0.007634,-0.007634,0.0,3.988428,6.944458,6.665723,0.043066,0.550293,0.374438,-0.252417,0.013159,0.616089,me
1616136966.9513652,1,41.0,13.0,78.0,82.0,59.0,0.864441,0.410217,-0.104065,0.271179,0.0,-0.007634,0.0,4.042261,7.01145,6.668115,0.098096,0.613696,0.379224,-0.24165,0.063403,0.683081,me
1616136966.961418,1,41.0,13.0,79.0,83.0,61.0,0.864441,0.410278,-0.104187,0.271057,-0.007634,-0.015267,-0.007634,4.098486,7.047339,6.65376,0.153125,0.648389,0.366064,-0.215332,0.112451,0.71897,me
1616136966.9715595,1,38.0,11.0,76.0,82.0,59.0,0.864502,0.410278,-0.104309,0.270935,-0.022901,-0.015267,-0.007634,4.152319,7.03418,6.620264,0.205762,0.635229,0.332568,-0.166284,0.151929,0.710596,me
1616136966.9812057,1,40.0,11.0,78.0,82.0,59.0,0.864563,0.410095,-0.104492,0.270752,-0.022901,-0.007634,-0.007634,4.184619,6.965991,6.587964,0.236865,0.57063,0.299072,-0.10647,0.155518,0.659155,me
1616136966.9915369,1,37.0,11.0,79.0,80.0,60.0,0.864746,0.409851,-0.104553,0.270691,-0.022901,0.0,-0.007634,4.172656,6.873877,6.573608,0.226099,0.480908,0.279932,-0.065796,0.120825,0.583789,me
1616136967.001256,1,38.0,11.0,79.0,80.0,59.0,0.864868,0.409607,-0.104492,0.270569,-0.015267,0.0,-0.007634,4.128394,6.784155,6.602319,0.184229,0.394775,0.305054,-0.052637,0.040674,0.526367,me
1616136967.0114155,1,39.0,12.0,78.0,82.0,62.0,0.86499,0.409363,-0.10437,0.270569,-0.015267,0.0,-0.007634,4.075757,6.701612,6.632226,0.135181,0.314624,0.330176,-0.047852,-0.037085,0.471338,me
1616136967.0213282,1,40.0,13.0,77.0,80.0,58.0,0.865173,0.409119,-0.104309,0.270508,-0.007634,0.0,-0.007634,4.031494,6.625049,6.648974,0.093311,0.240454,0.342139,-0.040674,-0.100488,0.413916,me
1616136967.0312526,1,39.0,12.0,79.0,82.0,61.0,0.865234,0.408997,-0.104126,0.270386,-0.007634,0.0,-0.015267,4.00398,6.609497,6.657349,0.070581,0.224902,0.349316,-0.050244,-0.122021,0.399561,me
1616136967.0414495,1,39.0,14.0,78.0,82.0,59.0,0.865356,0.408875,-0.104004,0.270264,-0.015267,-0.007634,-0.015267,3.994409,6.659741,6.665723,0.063403,0.275146,0.355298,-0.08374,-0.104077,0.433057,me
1616136967.051324,1,38.0,10.0,79.0,83.0,59.0,0.865479,0.408752,-0.104004,0.27002,-0.022901,-0.007634,-0.015267,3.999194,6.718359,6.65376,0.070581,0.334961,0.340942,-0.111255,-0.058618,0.465356,me
1616136967.0614698,1,38.0,11.0,78.0,80.0,58.0,0.865662,0.408569,-0.104126,0.269775,-0.030534,-0.015267,-0.015267,4.027905,6.759033,6.633423,0.100488,0.376831,0.318213,-0.111255,-0.008374,0.490479,me
1616136967.0712438,1,39.0,12.0,79.0,81.0,59.0,0.865845,0.408264,-0.104309,0.26947,-0.030534,-0.015267,-0.015267,4.057813,6.770996,6.613086,0.130396,0.392383,0.294287,-0.095703,0.028711,0.49646,me
1616136967.08133,1,38.0,12.0,79.0,83.0,58.0,0.866089,0.407959,-0.104431,0.269165,-0.030534,-0.015267,-0.015267,4.057813,6.732715,6.601123,0.132788,0.35769,0.277539,-0.075366,0.025122,0.46416,me
1616136967.0912824,1,38.0,35.0,76.0,78.0,59.0,0.866272,0.407654,-0.104553,0.268982,-0.022901,-0.007634,-0.015267,4.053027,6.66333,6.603516,0.128003,0.291895,0.275146,-0.043066,-0.008374,0.417505,me
1616136967.101319,1,38.0,12.0,78.0,80.0,60.0,0.866394,0.40741,-0.104675,0.26886,-0.015267,-0.007634,-0.007634,4.042261,6.559253,6.603516,0.117236,0.191406,0.272754,0.002393,-0.062207,0.346924,me
1616136967.1113968,1,39.0,12.0,77.0,79.0,61.0,0.866455,0.407288,-0.104675,0.26886,-0.007634,-0.007634,-0.007634,4.024316,6.471924,6.593946,0.099292,0.10647,0.260791,0.033496,-0.104077,0.276343,me
1616136967.1212132,1,38.0,11.0,77.0,82.0,61.0,0.866455,0.407288,-0.104675,0.26886,0.0,-0.007634,-0.007634,3.994409,6.439624,6.583179,0.069385,0.07417,0.250024,0.026318,-0.124414,0.236865,me
1616136967.1311648,1,38.0,10.0,78.0,80.0,63.0,0.866455,0.407349,-0.104675,0.26886,0.0,-0.007634,-0.007634,3.99082,6.424072,6.586768,0.065796,0.057422,0.253613,0.0323,-0.137573,0.227295,me
1616136967.141316,1,38.0,13.0,77.0,79.0,59.0,0.866455,0.40741,-0.104614,0.268799,0.007634,-0.007634,-0.007634,3.992017,6.426465,6.604712,0.068188,0.058618,0.272754,0.034692,-0.150732,0.240454,me
1616136967.1513665,1,37.0,11.0,77.0,80.0,61.0,0.866455,0.407471,-0.104675,0.268677,0.007634,-0.007634,-0.007634,4.007568,6.457568,6.62146,0.08374,0.088525,0.290698,0.031104,-0.142358,0.278735,me
1616136967.1611257,1,39.0,31.0,77.0,80.0,59.0,0.866394,0.407593,-0.104675,0.268555,0.0,-0.007634,-0.015267,4.027905,6.520972,6.627441,0.104077,0.149536,0.299072,0.015552,-0.110059,0.331372,me
1616136967.1711848,1,41.0,12.0,78.0,79.0,59.0,0.866394,0.407776,-0.104675,0.268433,0.0,-0.015267,-0.015267,4.051831,6.597534,6.628638,0.128003,0.22251,0.302661,-0.003589,-0.065796,0.391187,me
1616136967.1812422,1,38.0,11.0,78.0,81.0,59.0,0.866394,0.407837,-0.104736,0.26825,-0.007634,-0.007634,-0.007634,4.063794,6.662134,6.63103,0.139966,0.287109,0.30625,-0.028711,-0.029907,0.440234,me
1616136967.1912074,1,38.0,11.0,78.0,80.0,59.0,0.866455,0.407898,-0.104675,0.268127,-0.007634,-0.007634,-0.007634,4.062598,6.712378,6.641797,0.141162,0.334961,0.317017,-0.053833,-0.011963,0.478516,me
1616136967.2012374,1,40.0,10.0,77.0,80.0,52.0,0.866455,0.407898,-0.104675,0.268005,-0.007634,0.0,-0.007634,4.059009,6.742285,6.662134,0.137573,0.364868,0.33855,-0.072974,-0.014355,0.510815,me
1616136967.211221,1,38.0,11.0,78.0,84.0,59.0,0.866455,0.407898,-0.104614,0.268066,0.0,0.0,0.0,4.050635,6.7375,6.674097,0.130396,0.358887,0.349316,-0.075366,-0.028711,0.510815,me
1616136967.221253,1,37.0,13.0,79.0,82.0,59.0,0.866455,0.407898,-0.104492,0.268188,0.0,0.0,0.0,4.037476,6.741089,6.706397,0.118433,0.362476,0.381616,-0.086133,-0.056226,0.52876,me
1616136967.2312288,1,38.0,11.0,79.0,82.0,59.0,0.866455,0.407837,-0.104309,0.268311,0.0,0.007634,0.0,4.026709,6.745874,6.743482,0.110059,0.367261,0.416309,-0.093311,-0.082544,0.551489,me
1616136967.2411337,1,41.0,12.0,78.0,82.0,59.0,0.866455,0.407776,-0.104187,0.268372,-0.007634,0.0,0.0,4.017138,6.75664,6.751855,0.101685,0.379224,0.423486,-0.10647,-0.084937,0.559863,me
1616136967.2511718,1,39.0,12.0,77.0,83.0,60.0,0.866516,0.407654,-0.104065,0.268372,-0.015267,0.0,-0.007634,4.015943,6.76023,6.744678,0.104077,0.384009,0.415112,-0.107666,-0.075366,0.558667,me
1616136967.2612188,1,38.0,12.0,77.0,84.0,58.0,0.866699,0.407471,-0.103943,0.26825,-0.015267,0.0,-0.015267,4.020728,6.749463,6.724341,0.112451,0.373242,0.38999,-0.095703,-0.058618,0.539526,me
1616136967.2714725,1,38.0,12.0,79.0,79.0,60.0,0.866821,0.407288,-0.103882,0.268066,-0.015267,0.0,-0.015267,4.038672,6.730322,6.693237,0.132788,0.355298,0.356494,-0.070581,-0.034692,0.514404,me
1616136967.2810223,1,38.0,15.0,78.0,83.0,58.0,0.866943,0.407043,-0.103821,0.267944,-0.015267,0.0,-0.015267,4.062598,6.696826,6.664526,0.160303,0.325391,0.324194,-0.0323,-0.014355,0.484497,me
1616136967.2911224,1,54.0,10.0,78.0,83.0,58.0,0.867065,0.40686,-0.103821,0.267944,-0.015267,0.007634,-0.007634,4.084131,6.656152,6.632226,0.183032,0.285913,0.288306,0.005981,0.0,0.44502,me
1616136967.3010545,1,38.0,11.0,77.0,82.0,58.0,0.867126,0.406738,-0.103699,0.268005,-0.007634,0.007634,-0.007634,4.096094,6.614282,6.62146,0.196191,0.245239,0.275146,0.039478,-0.004785,0.415112,me
1616136967.3113756,1,38.0,12.0,78.0,83.0,60.0,0.867188,0.406616,-0.103577,0.268127,-0.007634,0.007634,0.0,4.09729,6.57959,6.619067,0.19978,0.211743,0.269165,0.059814,-0.016748,0.391187,me
1616136967.321241,1,40.0,12.0,79.0,83.0,58.0,0.867188,0.406494,-0.103455,0.26825,0.0,0.007634,0.0,4.098486,6.550879,6.620264,0.202173,0.185425,0.269165,0.076563,-0.029907,0.374438,me
1616136967.3311913,1,35.0,10.0,77.0,76.0,58.0,0.867188,0.406433,-0.10321,0.268372,0.0,0.015267,0.0,4.088916,6.52815,6.629834,0.196191,0.162695,0.276343,0.084937,-0.049048,0.362476,me
1616136967.3411376,1,37.0,2.0,79.0,82.0,63.0,0.867188,0.406433,-0.102966,0.268555,0.007634,0.015267,0.0,4.066186,6.529346,6.639404,0.175854,0.162695,0.284717,0.068188,-0.063403,0.358887,me
1616136967.3512106,1,38.0,12.0,78.0,83.0,62.0,0.867188,0.406433,-0.102722,0.268677,0.0,0.007634,0.0,4.037476,6.576001,6.648974,0.150732,0.208154,0.293091,0.022729,-0.055029,0.384009,me
1616136967.361168,1,40.0,10.0,76.0,80.0,61.0,0.867188,0.406494,-0.102478,0.268738,0.0,0.007634,-0.007634,4.01355,6.633423,6.644189,0.130396,0.263184,0.288306,-0.023926,-0.029907,0.409131,me
1616136967.3712857,1,38.0,10.0,76.0,121.0,59.0,0.867188,0.406433,-0.102356,0.268677,-0.007634,0.0,-0.007634,4.01355,6.671704,6.625049,0.132788,0.301465,0.269165,-0.043066,0.003589,0.42229,me
1616136968.6692154,1,38.0,12.0,77.0,82.0,60.0,0.64978,0.634766,-0.412903,-0.065247,-0.030534,0.0,-0.015267,4.734912,9.20664,-1.544409,0.287109,0.593359,-0.104077,-0.008374,0.014355,0.666333,me
1616136968.6792176,1,37.0,13.0,78.0,79.0,60.0,0.650024,0.634644,-0.41272,-0.06543,-0.022901,0.0,-0.015267,4.745679,9.156397,-1.55398,0.300269,0.540723,-0.119629,0.031104,0.00957,0.628052,me
1616136968.6893494,1,38.0,14.0,78.0,80.0,58.0,0.650208,0.634583,-0.412537,-0.065552,-0.015267,0.007634,-0.015267,4.75166,9.119311,-1.562353,0.308643,0.501245,-0.132788,0.063403,0.007178,0.599341,me
1616136968.699425,1,38.0,13.0,78.0,82.0,61.0,0.650391,0.634521,-0.412354,-0.065613,-0.015267,0.007634,-0.007634,4.754053,9.096582,-1.55398,0.313428,0.477319,-0.129199,0.07417,-0.001196,0.5802,me
1616136968.709297,1,13.0,15.0,77.0,82.0,58.0,0.650513,0.63446,-0.412231,-0.065613,-0.007634,0.007634,-0.007634,4.739697,9.087011,-1.544409,0.299072,0.466553,-0.123218,0.065796,0.0,0.563452,me
1616136968.7194054,1,38.0,12.0,79.0,84.0,60.0,0.650574,0.63446,-0.41217,-0.065613,-0.007634,0.0,-0.007634,4.725342,9.083423,-1.513306,0.284717,0.462964,-0.093311,0.040674,-0.014355,0.549097,me
1616136968.729342,1,38.0,14.0,79.0,80.0,60.0,0.650635,0.634399,-0.412109,-0.065735,-0.015267,-0.007634,-0.007634,4.724145,9.100171,-1.481006,0.285913,0.478516,-0.063403,0.015552,-0.034692,0.558667,me
1616136968.7392342,1,37.0,11.0,78.0,83.0,61.0,0.650818,0.634216,-0.412048,-0.065979,-0.022901,-0.007634,-0.015267,4.721753,9.124097,-1.454687,0.284717,0.500049,-0.04187,-0.005981,-0.046655,0.574219,me
1616136968.7493277,1,37.0,15.0,79.0,84.0,59.0,0.651062,0.634033,-0.411926,-0.066345,-0.038168,-0.007634,-0.015267,4.718164,9.165967,-1.431958,0.285913,0.539526,-0.026318,-0.0323,-0.052637,0.607715,me
1616136968.7592733,1,38.0,14.0,63.0,78.0,59.0,0.651489,0.633667,-0.411621,-0.066895,-0.053435,-0.007634,-0.030534,4.725342,9.209033,-1.416406,0.299072,0.577808,-0.023926,-0.040674,-0.055029,0.647192,me
1616136968.7692797,1,38.0,13.0,78.0,87.0,59.0,0.652161,0.63324,-0.411194,-0.067627,-0.068702,0.0,-0.038168,4.736108,9.222193,-1.406836,0.319409,0.582593,-0.0323,-0.022729,-0.058618,0.661548,me
1616136968.779477,1,38.0,16.0,78.0,80.0,62.0,0.652954,0.63269,-0.410583,-0.06842,-0.083969,0.007634,-0.045802,4.744483,9.179126,-1.399658,0.337354,0.531152,-0.047852,0.021533,-0.066992,0.626855,me
1616136968.7892065,1,37.0,15.0,79.0,82.0,58.0,0.65387,0.632202,-0.409851,-0.069275,-0.083969,0.015267,-0.053435,4.745679,9.097778,-1.408032,0.350513,0.439038,-0.081348,0.092114,-0.065796,0.555078,me
1616136968.799364,1,38.0,14.0,77.0,79.0,61.0,0.654663,0.631775,-0.408997,-0.070007,-0.076336,0.022901,-0.061069,4.739697,9.010449,-1.412817,0.35769,0.342139,-0.110059,0.156714,-0.066992,0.476123,me
