"Alphabet","timestamp","user_id","flex_1","flex_2","flex_3","flex_4","flex_5","Qw","Qx","Qy","Qz","GYRx","GYRy","GYRz","ACCx","ACCy","ACCz","ACCx_body","ACCy_body","ACCz_body","ACCx_world","ACCy_world","ACCz_world"
"N","1617446207.1727874","7","48","29","11","62","13","0.713196","0.184265","-0.674683","-0.046509","-0.007634","-0.007634","0.015267","9.2521","3.153418","0.143555","-0.010767","-0.037085","-0.068188","0.071777","-0.016748","-0.022729"
"N","1617446207.162355","7","48","31","12","68","52","0.713257","0.184509","-0.674561","-0.046753","-0.007634","-0.007634","0.015267","9.258081","3.20127","0.168677","-0.002393","0.003589","-0.044263","0.04187","0.011963","-0.001196"
"N","1617446207.1521206","7","52","33","14","67","48","0.713257","0.184814","-0.674438","-0.046875","-0.015267","-0.007634","0.015267","9.254492","3.256299","0.197388","-0.003589","0.052637","-0.016748","0.005981","0.052637","0.013159"
"N","1617446207.1427348","7","51","32","13","62","49","0.713318","0.18512","-0.674316","-0.046997","-0.015267","-0.015267","0.015267","9.259277","3.310132","0.218921","0.001196","0.100488","0.002393","-0.020337","0.092114","0.033496"
"N","1617446207.1327116","7","49","31","12","76","51","0.713379","0.185425","-0.674133","-0.046997","-0.015267","-0.015267","0.015267","9.260473","3.323291","0.224902","0.004785","0.108862","0.005981","-0.025122","0.098096","0.039478"
"N","1617446207.1220665","7","50","32","12","70","49","0.713501","0.185669","-0.67395","-0.046997","-0.007634","-0.015267","0.007634","9.278418","3.329273","0.236865","0.023926","0.111255","0.014355","-0.0323","0.092114","0.058618"
"N","1617446207.112171","7","48","28","14","71","52","0.713623","0.18573","-0.673828","-0.046997","0","-0.015267","0","9.291577","3.32688","0.246436","0.037085","0.107666","0.021533","-0.037085","0.082544","0.070581"
"N","1617446207.1020038","7","52","31","13","71","52","0.713745","0.185669","-0.673706","-0.047058","0.007634","-0.015267","0","9.31311","3.281421","0.236865","0.058618","0.062207","0.008374","-0.014355","0.037085","0.075366"
"N","1617446207.092911","7","50","30","12","64","49","0.713867","0.185547","-0.673584","-0.047241","0.015267","-0.007634","0","9.348999","3.257495","0.220117","0.095703","0.037085","-0.011963","0.013159","0.005981","0.101685"
"N","1617446207.082751","7","51","32","14","68","53","0.713928","0.185425","-0.673523","-0.047485","0.007634","-0.007634","0","9.366943","3.27544","0.209351","0.114844","0.053833","-0.025122","0.023926","0.017944","0.124414"
"N","1617446207.072741","7","51","29","15","66","51","0.71405","0.185364","-0.673401","-0.047668","0.007634","-0.007634","0","9.365747","3.305347","0.208154","0.113647","0.081348","-0.029907","0.023926","0.044263","0.132788"
"N","1617446207.062729","7","49","33","14","70","49","0.714111","0.185303","-0.67334","-0.047913","0.007634","-0.007634","0.007634","9.368139","3.334058","0.211743","0.117236","0.107666","-0.027515","0.016748","0.066992","0.144751"
"N","1617446207.052102","7","50","35","14","42","55","0.714172","0.185242","-0.673279","-0.048096","0.007634","-0.007634","0.007634","9.362158","3.363965","0.218921","0.111255","0.135181","-0.022729","0.007178","0.093311","0.14834"
"N","1617446207.042065","7","51","32","13","67","49","0.714172","0.185242","-0.673279","-0.048279","0.007634","0","0.007634","9.334643","3.379517","0.226099","0.084937","0.14834","-0.015552","-0.003589","0.112451","0.128003"
"N","1617446207.0329945","7","50","31","15","64","52","0.714172","0.185181","-0.673279","-0.048401","0.007634","0","0","9.30354","3.369946","0.227295","0.053833","0.13877","-0.015552","-0.004785","0.113647","0.095703"
"N","1617446207.0221117","7","49","32","14","68","49","0.714172","0.18512","-0.673279","-0.048523","0.007634","0","0","9.292773","3.355591","0.220117","0.044263","0.123218","-0.022729","0.003589","0.104077","0.081348"
"N","1617446207.0127969","7","52","31","15","66","53","0.714111","0.184937","-0.673401","-0.048645","0.007634","0.007634","-0.007634","9.292773","3.355591","0.212939","0.043066","0.124414","-0.027515","0.008374","0.10647","0.080151"
"N","1617446207.0027297","7","49","29","12","68","51","0.71405","0.184814","-0.673523","-0.048706","0.007634","0.007634","-0.007634","9.295166","3.337646","0.200977","0.044263","0.107666","-0.038281","0.021533","0.092114","0.075366"
"N","1617446206.9928596","7","49","30","13","64","47","0.713928","0.184631","-0.673645","-0.048767","0","0.007634","-0.007634","9.284399","3.328076","0.200977","0.033496","0.100488","-0.035889","0.019141","0.088525","0.063403"
"N","1617446206.982842","7","49","33","13","66","46","0.713867","0.18457","-0.673767","-0.048706","-0.007634","0.007634","-0.007634","9.285596","3.334058","0.220117","0.033496","0.107666","-0.014355","-0.001196","0.090918","0.065796"
"N","1617446206.9728649","7","51","29","10","70","51","0.713745","0.184509","-0.67395","-0.048584","-0.015267","0.007634","-0.015267","9.29038","3.357983","0.242847","0.037085","0.133984","0.011963","-0.0323","0.110059","0.078955"
"N","1617446206.9628613","7","50","32","14","68","48","0.713562","0.184448","-0.674133","-0.04834","-0.015267","0.007634","-0.022901","9.28081","3.355591","0.25481","0.026318","0.136377","0.028711","-0.050244","0.111255","0.069385"
"N","1617446206.952894","7","51","32","14","67","50","0.713379","0.184326","-0.674377","-0.047974","-0.015267","0.015267","-0.030534","9.268847","3.318506","0.256006","0.011963","0.10647","0.035889","-0.052637","0.087329","0.046655"
"N","1617446206.9428158","7","51","28","10","68","48","0.713135","0.184021","-0.674744","-0.047546","-0.007634","0.015267","-0.038168","9.260473","3.255103","0.239258","0","0.053833","0.026318","-0.034692","0.044263","0.017944"
"N","1617446206.9330204","7","49","29","10","70","51","0.712891","0.183594","-0.675171","-0.047058","0","0.022901","-0.045802","9.262866","3.162988","0.216528","-0.001196","-0.023926","0.011963","-0.007178","-0.023926","-0.008374"
"N","1617446206.9228258","7","51","31","12","68","53","0.712585","0.182922","-0.67572","-0.046692","0.015267","0.030534","-0.053435","9.256885","3.037378","0.162695","-0.013159","-0.135181","-0.0323","0.053833","-0.114844","-0.056226"
"N","1617446206.9130564","7","48","31","15","66","45","0.71228","0.182251","-0.676208","-0.046448","0.015267","0.030534","-0.053435","9.253296","2.929712","0.104077","-0.020337","-0.229687","-0.081348","0.118433","-0.19021","-0.094507"
"N","1617446206.902866","7","50","30","12","69","46","0.711975","0.18158","-0.676697","-0.046265","0.007634","0.030534","-0.045802","9.273633","2.886646","0.057422","-0.004785","-0.260791","-0.119629","0.162695","-0.216528","-0.089722"
"N","1617446206.8927655","7","48","30","14","68","52","0.71167","0.18103","-0.677246","-0.046082","0","0.030534","-0.038168","9.31311","2.887842","0.031104","0.028711","-0.248828","-0.136377","0.18064","-0.212939","-0.053833"
"N","1617446206.8828683","7","45","28","10","67","52","0.711365","0.180664","-0.677612","-0.045959","-0.007634","0.022901","-0.030534","9.32268","2.911767","0.011963","0.037085","-0.216528","-0.147144","0.185425","-0.184229","-0.035889"
"N","1617446206.8730018","7","49","29","10","68","49","0.711121","0.180542","-0.677917","-0.045776","-0.015267","0.015267","-0.022901","9.315503","2.97876","0.026318","0.027515","-0.144751","-0.12561","0.150732","-0.118433","-0.021533"
"N","1617446206.8627756","7","50","29","12","64","48","0.710938","0.180542","-0.678162","-0.045532","-0.022901","0.015267","-0.015267","9.292773","3.045752","0.053833","0.003589","-0.07417","-0.092114","0.102881","-0.05144","-0.021533"
"N","1617446206.852851","7","47","31","14","67","48","0.710754","0.180664","-0.678345","-0.045288","-0.030534","0.007634","-0.015267","9.2521","3.111548","0.077759","-0.037085","-0.007178","-0.063403","0.059814","0.016748","-0.038281"
"N","1617446206.8429797","7","52","31","12","64","48","0.710571","0.180847","-0.678467","-0.044922","-0.030534","0.007634","-0.015267","9.205444","3.14624","0.08374","-0.08374","0.029907","-0.05144","0.038281","0.063403","-0.070581"
"N","1617446206.8330836","7","50","32","14","71","52","0.710449","0.180847","-0.67865","-0.044556","-0.015267","0.015267","-0.022901","9.182714","3.134277","0.084937","-0.108862","0.022729","-0.046655","0.0323","0.063403","-0.095703"
"N","1617446206.8230062","7","51","31","13","67","49","0.710205","0.180725","-0.678955","-0.044189","-0.007634","0.022901","-0.030534","9.181519","3.079248","0.080151","-0.112451","-0.023926","-0.044263","0.038281","0.020337","-0.113647"
"N","1617446206.8130074","7","49","31","12","67","49","0.709961","0.18042","-0.679321","-0.044006","0","0.022901","-0.030534","9.180323","3.025415","0.057422","-0.11604","-0.070581","-0.058618","0.061011","-0.017944","-0.132788"
"N","1617446206.8028982","7","53","32","13","68","48","0.709656","0.180115","-0.679688","-0.043823","0","0.022901","-0.030534","9.16477","3.000293","0.026318","-0.133984","-0.088525","-0.082544","0.087329","-0.023926","-0.155518"
"N","1617446206.7930677","7","49","30","12","68","51","0.709412","0.17981","-0.680115","-0.04364","-0.007634","0.022901","-0.022901","9.152807","2.976367","-0.002393","-0.149536","-0.105273","-0.102881","0.108862","-0.031104","-0.175854"
"N","1617446206.7830374","7","49","29","10","64","49","0.709106","0.179626","-0.68042","-0.043457","-0.007634","0.022901","-0.022901","9.144434","2.959619","-0.0323","-0.159106","-0.11604","-0.124414","0.131592","-0.034692","-0.187817"
"N","1617446206.7728486","7","51","29","14","68","47","0.708862","0.179382","-0.680725","-0.043274","-0.007634","0.015267","-0.022901","9.119311","2.942871","-0.065796","-0.185425","-0.12561","-0.151929","0.15791","-0.029907","-0.216528"
"N","1617446206.7629988","7","50","31","14","66","48","0.70874","0.179199","-0.680969","-0.043152","0","0.015267","-0.022901","9.124097","2.921338","-0.090918","-0.183032","-0.143555","-0.172266","0.181836","-0.044263","-0.220117"
"N","1617446206.7529557","7","42","31","14","66","48","0.708557","0.178955","-0.681213","-0.04303","-0.007634","0.015267","-0.022901","9.138453","2.920142","-0.098096","-0.171069","-0.13877","-0.174658","0.184229","-0.043066","-0.206958"
"N","1617446206.7430494","7","51","31","12","70","53","0.708374","0.178833","-0.681458","-0.042908","-0.007634","0.015267","-0.022901","9.162378","2.932105","-0.093311","-0.14834","-0.123218","-0.163892","0.172266","-0.037085","-0.179443"
"N","1617446206.7329817","7","49","33","14","66","48","0.708191","0.178589","-0.681702","-0.042786","0","0.015267","-0.022901","9.17793","2.939282","-0.089722","-0.133984","-0.111255","-0.155518","0.163892","-0.0323","-0.162695"
"N","1617446206.723065","7","48","31","13","17","49","0.708069","0.178345","-0.681885","-0.042603","0","0.015267","-0.022901","9.192286","2.933301","-0.055029","-0.122021","-0.110059","-0.117236","0.126807","-0.04187","-0.150732"
"N","1617446206.712978","7","52","31","12","69","49","0.707947","0.178162","-0.682129","-0.04248","0","0.015267","-0.022901","9.201856","2.922534","-0.026318","-0.114844","-0.117236","-0.08374","0.095703","-0.057422","-0.145947"
"N","1617446206.7029972","7","50","31","12","68","48","0.707825","0.177979","-0.682312","-0.042419","-0.007634","0.007634","-0.015267","9.198267","2.915356","-0.00957","-0.119629","-0.120825","-0.063403","0.075366","-0.063403","-0.150732"
"N","1617446206.6931863","7","51","29","15","67","46","0.707703","0.177917","-0.682434","-0.042297","-0.007634","0","-0.015267","9.186304","2.933301","-0.017944","-0.131592","-0.099292","-0.069385","0.076563","-0.038281","-0.155518"
"N","1617446206.6829045","7","49","29","13","69","46","0.707703","0.177917","-0.682434","-0.042236","-0.007634","-0.007634","-0.007634","9.161181","2.95603","-0.043066","-0.156714","-0.076563","-0.094507","0.095703","-0.004785","-0.172266"
"N","1617446206.6729772","7","51","33","13","67","49","0.707703","0.177979","-0.682434","-0.042114","-0.007634","-0.007634","0","9.150415","2.967993","-0.069385","-0.168677","-0.063403","-0.119629","0.117236","0.014355","-0.18064"
"N","1617446206.6630423","7","50","31","12","67","47","0.707703","0.177979","-0.682434","-0.042053","-0.007634","0","0","9.157593","2.971582","-0.087329","-0.161499","-0.058618","-0.137573","0.135181","0.020337","-0.172266"
"N","1617446206.6530674","7","51","31","14","70","49","0.707703","0.177979","-0.682434","-0.042114","-0.007634","0","0","9.19707","2.977563","-0.081348","-0.122021","-0.053833","-0.131592","0.130396","0.011963","-0.132788"
"N","1617446206.6430016","7","51","30","14","63","51","0.707642","0.177979","-0.682495","-0.042175","0","0.007634","0","9.23894","3.002686","-0.061011","-0.078955","-0.029907","-0.110059","0.107666","0.016748","-0.08374"
"N","1617446206.632907","7","51","31","13","71","48","0.707581","0.177979","-0.682495","-0.042175","0","0","0","9.265259","3.023022","-0.040674","-0.052637","-0.008374","-0.088525","0.084937","0.025122","-0.052637"
"N","1617446206.623045","7","48","29","12","70","49","0.707581","0.177979","-0.682556","-0.042236","0","0.007634","0","9.298755","3.042163","-0.002393","-0.019141","0.008374","-0.050244","0.045459","0.022729","-0.015552"
"N","1617446206.6128502","7","49","32","14","63","48","0.707581","0.177917","-0.682556","-0.042358","0.007634","0","0","9.323877","3.048145","0.034692","0.004785","0.013159","-0.013159","0.010767","0.013159","0.008374"
"N","1617446206.6030817","7","51","28","11","68","49","0.707581","0.177795","-0.682556","-0.042419","0.007634","-0.007634","0","9.302343","3.040967","0.047852","-0.015552","0.007178","0","-0.001196","0.010767","-0.011963"
"N","1617446206.5931723","7","51","31","14","69","47","0.707642","0.177734","-0.682495","-0.042542","0.007634","-0.015267","0","9.265259","3.024219","0.0323","-0.05144","-0.00957","-0.017944","0.015552","0.00957","-0.05144"
"N","1617446206.5831432","7","50","28","10","70","47","0.707825","0.177673","-0.682373","-0.042603","0","-0.015267","0","9.23894","3.019433","0.020337","-0.078955","-0.014355","-0.034692","0.031104","0.016748","-0.078955"
"N","1617446206.5729475","7","49","32","12","67","46","0.707886","0.177673","-0.682251","-0.042603","-0.007634","-0.007634","0","9.244922","3.023022","0.015552","-0.071777","-0.010767","-0.04187","0.038281","0.019141","-0.071777"
"N","1617446206.5631082","7","47","28","10","57","47","0.707886","0.177734","-0.682251","-0.042542","-0.007634","0","-0.007634","9.278418","3.042163","0.007178","-0.038281","0.007178","-0.049048","0.044263","0.027515","-0.033496"
"N","1617446206.553077","7","52","28","12","64","49","0.707825","0.177734","-0.682312","-0.042419","-0.007634","0.007634","-0.007634","9.305933","3.032593","-0.002393","-0.011963","0","-0.057422","0.055029","0.014355","-0.010767"
"N","1617446206.5429711","7","51","29","13","67","48","0.707703","0.177673","-0.682434","-0.042358","0","0.007634","-0.007634","9.320288","3.013452","-0.017944","0.001196","-0.016748","-0.069385","0.070581","-0.002393","-0.003589"
"N","1617446206.5330377","7","53","31","14","67","48","0.707581","0.177612","-0.682617","-0.042358","0","0.007634","-0.007634","9.327466","2.995508","-0.028711","0.007178","-0.033496","-0.076563","0.081348","-0.017944","-0.003589"
"N","1617446206.5230107","7","50","30","13","66","29","0.707458","0.177551","-0.682739","-0.042358","0","0.007634","-0.007634","9.332251","2.995508","-0.029907","0.011963","-0.0323","-0.07417","0.078955","-0.019141","0"
"N","1617446206.5137258","7","49","29","12","66","51","0.707336","0.177551","-0.682922","-0.042419","-0.007634","0.007634","-0.007634","9.32268","3.001489","-0.027515","0.002393","-0.027515","-0.068188","0.071777","-0.013159","-0.005981"
"N","1617446206.5038874","7","49","28","13","67","51","0.707275","0.177551","-0.682983","-0.042419","-0.007634","0","-0.007634","9.289185","3.009863","-0.033496","-0.031104","-0.019141","-0.072974","0.072974","0.004785","-0.034692"
"N","1617446206.493695","7","49","32","13","71","48","0.707214","0.177551","-0.683044","-0.042358","-0.007634","0","-0.007634","9.255689","3.002686","-0.037085","-0.0646","-0.025122","-0.07417","0.072974","0.00957","-0.069385"
"N","1617446206.4838536","7","51","29","12","68","49","0.707214","0.177551","-0.683044","-0.042358","-0.007634","0","-0.007634","9.230566","2.994312","-0.046655","-0.089722","-0.033496","-0.08374","0.082544","0.011963","-0.095703"
"N","1617446206.4737153","7","48","32","14","67","52","0.707214","0.177551","-0.683044","-0.042297","-0.007634","0","-0.007634","9.223389","3.002686","-0.038281","-0.096899","-0.023926","-0.075366","0.071777","0.021533","-0.099292"
"N","1617446206.463668","7","48","27","11","65","49","0.707214","0.177612","-0.683044","-0.042236","-0.007634","0","-0.007634","9.207837","3.013452","-0.023926","-0.112451","-0.013159","-0.061011","0.055029","0.033496","-0.110059"
"N","1617446206.453688","7","51","29","15","68","54","0.707214","0.177551","-0.683044","-0.042114","-0.007634","0","-0.007634","9.203052","3.003882","-0.023926","-0.117236","-0.020337","-0.061011","0.055029","0.027515","-0.117236"
"N","1617446206.4438622","7","49","29","12","70","48","0.707153","0.177429","-0.683105","-0.041992","0","0","-0.015267","9.213819","2.959619","-0.0323","-0.107666","-0.061011","-0.068188","0.070581","-0.010767","-0.120825"
"N","1617446206.4337776","7","45","31","11","66","47","0.707153","0.177185","-0.683228","-0.041931","0.007634","0.007634","-0.015267","9.23894","2.905786","-0.039478","-0.084937","-0.111255","-0.07417","0.087329","-0.063403","-0.114844"
"N","1617446206.4238036","7","51","28","12","66","52","0.707092","0.176941","-0.68335","-0.042053","0.007634","0.007634","-0.007634","9.266455","2.875879","-0.053833","-0.057422","-0.13877","-0.087329","0.10647","-0.094507","-0.096899"
"N","1617446206.4137514","7","47","30","14","70","48","0.707031","0.176758","-0.683411","-0.042175","0","0","-0.007634","9.258081","2.874683","-0.063403","-0.065796","-0.13877","-0.095703","0.114844","-0.090918","-0.105273"
"N","1617446206.4039154","7","48","28","10","66","49","0.707092","0.176758","-0.68335","-0.042297","-0.007634","-0.007634","0","9.234156","2.912964","-0.057422","-0.089722","-0.102881","-0.092114","0.102881","-0.050244","-0.117236"
"N","1617446206.3936992","7","49","31","11","67","49","0.707153","0.177002","-0.683228","-0.042358","-0.015267","-0.007634","0.007634","9.22937","2.971582","-0.04187","-0.093311","-0.047852","-0.077759","0.078955","-0.001196","-0.102881"
"N","1617446206.3840225","7","49","30","12","63","49","0.707214","0.177307","-0.683105","-0.042297","-0.022901","-0.015267","0.007634","9.232959","3.031396","-0.023926","-0.088525","0.007178","-0.061011","0.052637","0.044263","-0.081348"
"N","1617446206.3738098","7","48","32","13","65","49","0.707275","0.177551","-0.682983","-0.042175","-0.015267","-0.015267","0","9.226977","3.050537","-0.010767","-0.093311","0.023926","-0.049048","0.037085","0.059814","-0.081348"
"N","1617446206.3629775","7","47","30","14","70","44","0.707336","0.177734","-0.682861","-0.042053","-0.007634","-0.007634","0","9.234156","3.029004","-0.002393","-0.086133","0.001196","-0.043066","0.035889","0.034692","-0.081348"
"N","1617446206.3537445","7","47","29","12","68","49","0.707397","0.177673","-0.682861","-0.041992","0","0","-0.007634","9.265259","2.989526","0.005981","-0.056226","-0.035889","-0.035889","0.037085","-0.008374","-0.0646"
"N","1617446206.343888","7","48","30","12","70","52","0.707397","0.177551","-0.682861","-0.042053","0.007634","0","-0.007634","9.301147","2.960815","0.00957","-0.020337","-0.063403","-0.0323","0.04187","-0.046655","-0.038281"
"N","1617446206.333749","7","50","31","13","68","53","0.707397","0.17749","-0.682861","-0.042114","0","0","-0.007634","9.326269","2.953638","0.00957","0.004785","-0.070581","-0.0323","0.044263","-0.061011","-0.016748"
"N","1617446206.3237936","7","50","27","14","70","47","0.707458","0.177429","-0.682861","-0.042236","0","-0.007634","0","9.325073","2.952441","0.005981","0.002393","-0.072974","-0.037085","0.049048","-0.061011","-0.020337"
"N","1617446206.3138883","7","48","32","10","66","51","0.707458","0.177429","-0.6828","-0.042358","-0.007634","-0.007634","0","9.298755","2.97876","-0.002393","-0.021533","-0.047852","-0.046655","0.052637","-0.028711","-0.034692"
"N","1617446206.303773","7","50","32","13","68","51","0.70752","0.177551","-0.682678","-0.042419","-0.007634","-0.007634","0.007634","9.279614","3.008667","-0.007178","-0.039478","-0.020337","-0.053833","0.053833","0.002393","-0.043066"
"N","1617446206.2936902","7","49","32","15","71","49","0.707581","0.177734","-0.682556","-0.04248","-0.015267","-0.007634","0.007634","9.272436","3.0302","-0.00957","-0.045459","-0.002393","-0.057422","0.053833","0.021533","-0.043066"
"N","1617446206.2838416","7","49","30","13","68","51","0.707642","0.177979","-0.682434","-0.04248","-0.015267","-0.007634","0.007634","9.278418","3.05293","-0.001196","-0.038281","0.015552","-0.05144","0.044263","0.035889","-0.031104"
"N","1617446206.2737727","7","49","29","11","68","51","0.707642","0.178162","-0.682373","-0.04248","-0.015267","-0.007634","0","9.279614","3.0625","0.008374","-0.035889","0.022729","-0.04187","0.033496","0.039478","-0.026318"
"N","1617446206.263809","7","49","33","15","68","48","0.707642","0.178284","-0.682373","-0.04248","-0.007634","0","0","9.286792","3.061304","0.011963","-0.028711","0.020337","-0.038281","0.031104","0.034692","-0.020337"
"N","1617446206.2539103","7","50","32","12","68","47","0.707642","0.178284","-0.682434","-0.04248","0","0","0","9.296362","3.040967","0.00957","-0.020337","0","-0.039478","0.037085","0.013159","-0.019141"
"N","1617446206.2437415","7","49","29","13","70","51","0.707581","0.178345","-0.682434","-0.042542","-0.007634","0","0","9.296362","3.034985","0.013159","-0.019141","-0.007178","-0.034692","0.033496","0.004785","-0.020337"
"N","1617446206.2337432","7","49","30","13","64","49","0.70752","0.178406","-0.682434","-0.042542","-0.007634","0","0","9.29397","3.046948","0.021533","-0.020337","0.003589","-0.025122","0.021533","0.014355","-0.017944"
"N","1617446206.2240064","7","50","31","13","67","49","0.70752","0.178467","-0.682495","-0.04248","-0.007634","-0.007634","0","9.284399","3.05293","0.025122","-0.031104","0.00957","-0.020337","0.015552","0.021533","-0.026318"
"N","1617446206.2137697","7","52","33","14","69","51","0.707458","0.178589","-0.682434","-0.042419","-0.007634","-0.007634","0","9.250903","3.037378","0.014355","-0.062207","-0.005981","-0.031104","0.027515","0.019141","-0.061011"
"N","1617446206.203848","7","51","32","14","68","48","0.70752","0.17865","-0.682434","-0.042358","0","-0.007634","0","9.223389","3.005078","-0.011963","-0.090918","-0.038281","-0.057422","0.057422","0.002393","-0.098096"
"N","1617446206.1938634","7","47","32","14","69","51","0.707581","0.178589","-0.682373","-0.042419","0","0","-0.007634","9.230566","2.962012","-0.044263","-0.08374","-0.081348","-0.092114","0.099292","-0.0323","-0.105273"
"N","1617446206.183894","7","49","31","10","69","47","0.707581","0.178528","-0.682373","-0.04248","0","0","-0.007634","9.24851","2.960815","-0.068188","-0.065796","-0.082544","-0.11604","0.124414","-0.033496","-0.088525"
"N","1617446206.173816","7","49","31","11","62","49","0.707581","0.178589","-0.682373","-0.042542","-0.007634","0","0","9.268847","2.993115","-0.065796","-0.045459","-0.05144","-0.113647","0.117236","-0.011963","-0.058618"
"N","1617446206.1639042","7","48","31","15","70","49","0.707581","0.17865","-0.682373","-0.04248","-0.015267","0","-0.007634","9.283203","3.034985","-0.049048","-0.031104","-0.010767","-0.096899","0.094507","0.017944","-0.0323"
"N","1617446206.1538005","7","47","31","13","71","55","0.70752","0.178711","-0.682373","-0.042419","-0.007634","0","-0.007634","9.292773","3.040967","-0.037085","-0.020337","-0.003589","-0.08374","0.081348","0.019141","-0.020337"
"N","1617446206.1437547","7","49","33","14","68","49","0.70752","0.178711","-0.682434","-0.042358","0","0","-0.007634","9.308325","3.019433","-0.023926","-0.005981","-0.025122","-0.069385","0.071777","-0.007178","-0.013159"
"N","1617446206.1338437","7","51","29","13","69","49","0.70752","0.178711","-0.682434","-0.042419","-0.007634","0","0","9.301147","3.009863","-0.004785","-0.013159","-0.034692","-0.050244","0.053833","-0.017944","-0.022729"
"N","1617446206.1238256","7","51","30","15","69","51","0.70752","0.178772","-0.682373","-0.042419","-0.007634","-0.007634","0","9.291577","3.025415","0.015552","-0.021533","-0.020337","-0.031104","0.0323","-0.005981","-0.026318"
"N","1617446206.113818","7","50","30","12","66","51","0.70752","0.178894","-0.682312","-0.042419","-0.015267","-0.007634","0","9.270044","3.060107","0.029907","-0.043066","0.011963","-0.016748","0.010767","0.027515","-0.037085"
"N","1617446206.1040306","7","49","29","12","67","53","0.707581","0.179016","-0.682251","-0.042358","-0.007634","-0.015267","0","9.232959","3.070874","0.017944","-0.080151","0.021533","-0.029907","0.019141","0.050244","-0.069385"
"N","1617446206.093973","7","50","29","12","70","52","0.707703","0.179077","-0.682129","-0.042297","0","-0.015267","0","9.204248","3.039771","-0.014355","-0.108862","-0.00957","-0.065796","0.058618","0.035889","-0.10647"
"N","1617446206.0841093","7","50","29","13","68","48","0.707764","0.178955","-0.682068","-0.042358","0.007634","-0.007634","0","9.207837","2.995508","-0.035889","-0.105273","-0.052637","-0.088525","0.088525","0","-0.11604"
"N","1617446206.073981","7","51","29","12","68","49","0.707825","0.178833","-0.682007","-0.04248","0","0","0","9.235352","2.98833","-0.045459","-0.076563","-0.059814","-0.100488","0.104077","-0.011963","-0.090918"
"N","1617446206.0639298","7","49","33","15","68","47","0.707886","0.178894","-0.681946","-0.042603","-0.007634","0","0","9.259277","3.01106","-0.040674","-0.052637","-0.039478","-0.098096","0.099292","-0.001196","-0.062207"
"N","1617446206.0538185","7","49","31","13","26","67","0.707886","0.178955","-0.681946","-0.042603","-0.007634","0","0","9.268847","3.048145","-0.027515","-0.043066","-0.003589","-0.08374","0.078955","0.025122","-0.04187"
"N","1617446206.043847","7","49","31","13","68","71","0.707886","0.179016","-0.681946","-0.042603","-0.007634","0","0","9.286792","3.060107","-0.010767","-0.025122","0.005981","-0.066992","0.062207","0.025122","-0.021533"
"N","1617446206.0338244","7","49","30","13","67","51","0.707825","0.179077","-0.682007","-0.042603","-0.007634","0","-0.007634","9.310718","3.057715","0.004785","-0.001196","0.003589","-0.050244","0.047852","0.013159","0"
"N","1617446206.0240145","7","52","29","13","70","48","0.707825","0.179077","-0.682007","-0.042542","-0.007634","-0.007634","0","9.328662","3.058911","0.029907","0.015552","0.004785","-0.025122","0.023926","0.003589","0.015552"
"N","1617446206.0140254","7","52","29","12","67","50","0.707825","0.179138","-0.681946","-0.042542","-0.007634","-0.015267","0","9.298755","3.049341","0.034692","-0.011963","-0.003589","-0.020337","0.019141","0.003589","-0.011963"
"N","1617446206.004038","7","49","30","12","69","51","0.707947","0.17926","-0.681763","-0.042542","-0.015267","-0.022901","0","9.268847","3.061304","0.04187","-0.040674","0.004785","-0.016748","0.011963","0.019141","-0.037085"
"N","1617446205.9937851","7","49","31","13","69","49","0.70813","0.179443","-0.68158","-0.04248","-0.007634","-0.015267","0","9.243726","3.07207","0.043066","-0.065796","0.013159","-0.020337","0.011963","0.035889","-0.057422"
"N","1617446205.9841597","7","49","31","14","70","52","0.708252","0.179443","-0.681458","-0.042419","0","-0.015267","0","9.254492","3.045752","0.035889","-0.055029","-0.010767","-0.031104","0.028711","0.011963","-0.055029"
"N","1617446205.9739122","7","49","32","15","63","52","0.708313","0.179443","-0.681396","-0.042419","0","-0.007634","0","9.292773","3.021826","0.021533","-0.016748","-0.035889","-0.046655","0.050244","-0.019141","-0.026318"
"N","1617446205.9640772","7","48","32","12","68","49","0.708374","0.179382","-0.681335","-0.042542","0","-0.007634","0","9.31311","3.024219","0.025122","0.002393","-0.033496","-0.045459","0.050244","-0.022729","-0.008374"
"N","1617446205.9539156","7","50","32","18","68","49","0.708435","0.179382","-0.681274","-0.042542","-0.007634","-0.007634","0","9.304736","3.045752","0.033496","-0.004785","-0.011963","-0.038281","0.038281","-0.001196","-0.008374"
"N","1617446205.9441352","7","50","31","14","67","49","0.708496","0.179443","-0.681213","-0.042542","-0.007634","-0.007634","0","9.295166","3.061304","0.043066","-0.014355","0.001196","-0.029907","0.027515","0.010767","-0.013159"
"N","1617446205.9339736","7","50","29","13","69","48","0.708557","0.179443","-0.681091","-0.04248","-0.007634","-0.007634","-0.007634","9.291577","3.066089","0.061011","-0.016748","0.005981","-0.014355","0.010767","0.013159","-0.013159"
"N","1617446205.923892","7","51","33","14","70","52","0.708557","0.179504","-0.681091","-0.042419","-0.007634","-0.007634","-0.007634","9.292773","3.079248","0.086133","-0.016748","0.019141","0.00957","-0.013159","0.020337","-0.00957"
"N","1617446205.913919","7","48","30","13","69","49","0.708557","0.179565","-0.681091","-0.042297","-0.015267","-0.007634","0","9.286792","3.095996","0.099292","-0.022729","0.037085","0.022729","-0.029907","0.035889","-0.00957"
"N","1617446205.9040246","7","50","29","10","70","51","0.708557","0.179688","-0.681091","-0.042236","-0.015267","-0.007634","0","9.28081","3.106763","0.089722","-0.028711","0.046655","0.014355","-0.023926","0.049048","-0.011963"
"N","1617446205.8941824","7","48","28","13","68","47","0.708557","0.179749","-0.68103","-0.042114","-0.007634","-0.007634","-0.007634","9.273633","3.115137","0.082544","-0.035889","0.056226","0.005981","-0.017944","0.061011","-0.015552"
"N","1617446205.8841004","7","49","31","12","67","49","0.708557","0.179749","-0.68103","-0.041931","0","-0.007634","-0.007634","9.250903","3.085229","0.056226","-0.058618","0.028711","-0.019141","0.008374","0.047852","-0.046655"
"N","1617446205.8739522","7","48","31","13","69","47","0.708618","0.179565","-0.681091","-0.04187","0.007634","0","-0.015267","9.246119","3.024219","0.019141","-0.065796","-0.027515","-0.056226","0.055029","0.004785","-0.070581"
"N","1617446205.8639958","7","51","31","13","68","48","0.708679","0.17926","-0.681091","-0.041809","0.007634","0","-0.015267","9.260473","2.9656","-0.007178","-0.052637","-0.081348","-0.084937","0.094507","-0.043066","-0.075366"
"N","1617446205.8539295","7","49","31","11","62","47","0.708679","0.178955","-0.681152","-0.041809","0.007634","0","-0.015267","9.274829","2.92373","-0.017944","-0.039478","-0.119629","-0.095703","0.112451","-0.080151","-0.075366"
"N","1617446205.8440337","7","49","28","13","68","51","0.708679","0.178711","-0.681274","-0.041809","0","0.007634","-0.015267","9.302343","2.90459","-0.013159","-0.013159","-0.135181","-0.089722","0.111255","-0.104077","-0.055029"
"N","1617446205.8338718","7","48","29","10","68","47","0.708618","0.178528","-0.681335","-0.041809","0","0.007634","-0.015267","9.326269","2.909375","0.001196","0.008374","-0.128003","-0.07417","0.095703","-0.10647","-0.031104"
"N","1617446205.8240678","7","49","31","14","70","48","0.708557","0.178467","-0.681396","-0.041748","-0.007634","0","-0.007634","9.325073","2.921338","0.005981","0.007178","-0.113647","-0.068188","0.087329","-0.094507","-0.028711"
"N","1617446205.8141332","7","51","32","11","68","51","0.708557","0.178589","-0.681396","-0.041687","-0.015267","-0.007634","-0.007634","9.304736","2.941675","0.001196","-0.011963","-0.094507","-0.072974","0.087329","-0.069385","-0.040674"
"N","1617446205.804076","7","49","30","14","68","49","0.708618","0.178711","-0.681335","-0.041626","-0.015267","-0.015267","0","9.262866","2.970386","0.002393","-0.053833","-0.066992","-0.072974","0.080151","-0.031104","-0.071777"
"N","1617446205.793963","7","53","31","12","70","49","0.708679","0.178894","-0.681213","-0.041504","-0.015267","-0.007634","-0.007634","9.247314","2.994312","0.007178","-0.068188","-0.044263","-0.069385","0.070581","-0.005981","-0.078955"
"N","1617446205.7841508","7","49","32","14","67","46","0.70874","0.178955","-0.681152","-0.041382","-0.007634","-0.007634","-0.007634","9.255689","3.005078","0.013159","-0.061011","-0.0323","-0.0646","0.0646","0","-0.068188"
"N","1617446205.7739007","7","49","31","14","67","48","0.708801","0.178894","-0.681091","-0.041382","0.007634","0","-0.007634","9.264063","2.990723","0.007178","-0.052637","-0.046655","-0.072974","0.075366","-0.013159","-0.0646"
"N","1617446205.7641668","7","49","29","12","68","50","0.708862","0.17865","-0.681091","-0.041443","0.015267","0","-0.007634","9.272436","2.963208","0.005981","-0.044263","-0.071777","-0.075366","0.08374","-0.038281","-0.0646"
"N","1617446205.753937","7","47","31","14","68","52","0.708862","0.178345","-0.681091","-0.041687","0.015267","0","-0.007634","9.279614","2.938086","0.015552","-0.037085","-0.095703","-0.066992","0.080151","-0.0646","-0.0646"
"N","1617446205.744151","7","48","29","11","67","53","0.708923","0.178101","-0.681091","-0.04187","0.007634","0","-0.007634","9.284399","2.944067","0.040674","-0.0323","-0.088525","-0.044263","0.056226","-0.063403","-0.057422"
"N","1617446205.7342017","7","40","31","12","63","52","0.708984","0.17804","-0.681091","-0.042053","0","-0.007634","0","9.283203","2.984741","0.076563","-0.033496","-0.050244","-0.00957","0.015552","-0.034692","-0.046655"
"N","1617446205.724013","7","49","31","14","66","47","0.709045","0.178162","-0.680969","-0.042114","-0.015267","-0.015267","0","9.265259","3.038574","0.123218","-0.050244","0","0.033496","-0.035889","0.008374","-0.046655"
"N","1617446205.713993","7","48","30","9","67","48","0.709106","0.178406","-0.680847","-0.042053","-0.022901","-0.015267","0","9.235352","3.086426","0.156714","-0.080151","0.045459","0.065796","-0.077759","0.052637","-0.061011"
"N","1617446205.7045386","7","51","28","13","42","57","0.709167","0.17865","-0.680725","-0.041931","-0.015267","-0.015267","0","9.20664","3.101978","0.15791","-0.107666","0.058618","0.065796","-0.082544","0.07417","-0.082544"
"N","1617446205.693957","7","51","29","12","67","49","0.70929","0.178711","-0.680603","-0.041748","-0.007634","-0.015267","-0.007634","9.181519","3.084033","0.147144","-0.133984","0.04187","0.05144","-0.066992","0.069385","-0.113647"
"N","1617446205.6840649","7","48","32","12","68","47","0.70929","0.17865","-0.680603","-0.041687","0","-0.007634","-0.007634","9.179126","3.039771","0.107666","-0.136377","0","0.011963","-0.020337","0.038281","-0.129199"
"N","1617446205.3848112","7","50","30","14","67","51","0.707886","0.178955","-0.681946","-0.041748","0","-0.007634","0","9.272436","3.024219","0.043066","-0.04187","-0.015552","-0.013159","0.011963","0","-0.044263"
"N","1617446205.374755","7","49","33","11","68","47","0.708008","0.178955","-0.681885","-0.04187","0","-0.007634","0","9.258081","3.054126","0.050244","-0.057422","0.010767","-0.008374","0.002393","0.028711","-0.050244"
"N","1617446205.3648438","7","47","29","13","70","48","0.708069","0.178955","-0.681763","-0.041992","0.007634","-0.007634","0","9.230566","3.070874","0.046655","-0.08374","0.025122","-0.014355","0.003589","0.05144","-0.071777"
"N","1617446205.354792","7","49","32","13","69","51","0.70813","0.178833","-0.681702","-0.042114","0.007634","-0.007634","0","9.215014","3.049341","0.038281","-0.098096","0.003589","-0.025122","0.016748","0.037085","-0.092114"
"N","1617446205.3448856","7","49","27","12","67","47","0.708191","0.178711","-0.681702","-0.042175","0.007634","-0.007634","-0.007634","9.20664","3.007471","0.019141","-0.107666","-0.035889","-0.045459","0.043066","0.007178","-0.113647"
"N","1617446205.3347788","7","49","31","13","66","48","0.708252","0.178467","-0.681702","-0.042236","0.007634","0","-0.007634","9.222193","2.976367","-0.005981","-0.092114","-0.0646","-0.072974","0.076563","-0.017944","-0.107666"
"N","1617446205.3248394","7","49","30","12","68","48","0.708252","0.178345","-0.681763","-0.042358","0","0","-0.007634","9.264063","2.973975","-0.010767","-0.05144","-0.066992","-0.076563","0.08374","-0.031104","-0.069385"
"N","1617446205.314819","7","53","32","13","67","48","0.708191","0.178406","-0.681763","-0.042358","-0.015267","-0.007634","0","9.274829","3.000293","-0.016748","-0.039478","-0.04187","-0.081348","0.08374","-0.010767","-0.050244"
"N","1617446205.304818","7","49","33","15","68","49","0.708313","0.178589","-0.681641","-0.042236","-0.022901","-0.015267","0","9.244922","3.036182","-0.008374","-0.069385","-0.007178","-0.076563","0.070581","0.028711","-0.068188"
"N","1617446205.294849","7","52","28","12","67","45","0.708374","0.178772","-0.681519","-0.042053","-0.015267","-0.015267","0","9.230566","3.046948","0.00957","-0.08374","0.002393","-0.059814","0.05144","0.038281","-0.078955"
"N","1617446205.2852478","7","49","28","13","66","48","0.708496","0.178894","-0.681396","-0.04187","-0.015267","-0.007634","-0.007634","9.258081","3.036182","0.015552","-0.056226","-0.007178","-0.056226","0.05144","0.020337","-0.055029"
"N","1617446205.274953","7","50","32","12","68","47","0.708496","0.178894","-0.681396","-0.041748","-0.007634","0","-0.007634","9.315503","3.014648","0.029907","0","-0.026318","-0.04187","0.045459","-0.015552","-0.008374"
"N","1617446205.264944","7","49","31","12","64","51","0.708435","0.178894","-0.681396","-0.041748","0","-0.007634","-0.007634","9.339429","3.001489","0.045459","0.023926","-0.039478","-0.025122","0.033496","-0.038281","0.00957"
"N","1617446205.2548125","7","52","29","13","68","49","0.708496","0.178955","-0.681335","-0.041809","-0.007634","-0.015267","0","9.309522","3.0302","0.043066","-0.004785","-0.013159","-0.029907","0.031104","-0.004785","-0.008374"
"N","1617446205.245085","7","54","30","12","68","47","0.708618","0.179016","-0.681213","-0.041809","-0.007634","-0.015267","0","9.28081","3.07207","0.049048","-0.033496","0.026318","-0.026318","0.017944","0.039478","-0.022729"
"N","1617446205.2350483","7","49","31","12","68","46","0.708679","0.179077","-0.681091","-0.04187","0","-0.015267","0","9.255689","3.098389","0.046655","-0.057422","0.05144","-0.031104","0.016748","0.070581","-0.038281"
"N","1617446205.2248769","7","51","31","12","68","45","0.708801","0.179077","-0.68103","-0.041931","0","-0.007634","0","9.24851","3.109155","0.04187","-0.0646","0.061011","-0.038281","0.021533","0.08374","-0.04187"
"N","1617446205.2147975","7","49","32","12","72","49","0.708801","0.179077","-0.680969","-0.041992","0","0","0","9.259277","3.1271","0.05144","-0.052637","0.077759","-0.029907","0.010767","0.093311","-0.025122"
"N","1617446205.204872","7","49","32","12","70","51","0.708801","0.178955","-0.68103","-0.042053","0","0.007634","-0.007634","9.28081","3.140259","0.059814","-0.0323","0.092114","-0.021533","0.001196","0.099292","-0.001196"
"N","1617446205.1948223","7","50","28","12","68","12","0.70874","0.178833","-0.681152","-0.042053","0","0.007634","-0.007634","9.315503","3.140259","0.084937","0","0.094507","0.004785","-0.021533","0.086133","0.028711"
"N","1617446205.1850965","7","51","30","12","71","49","0.708618","0.17865","-0.681335","-0.042053","0.007634","0.015267","-0.015267","9.326269","3.116333","0.102881","0.00957","0.072974","0.026318","-0.038281","0.059814","0.031104"
"N","1617446205.1751275","7","51","29","12","64","49","0.708435","0.178345","-0.681519","-0.042053","0","0.007634","-0.015267","9.314306","3.087622","0.099292","-0.001196","0.049048","0.026318","-0.034692","0.040674","0.013159"
"N","1617446205.1650689","7","51","26","10","70","49","0.708313","0.178162","-0.681763","-0.041931","-0.007634","0.007634","-0.015267","9.29397","3.063696","0.089722","-0.023926","0.029907","0.021533","-0.027515","0.029907","-0.013159"
"N","1617446205.1549308","7","48","29","12","66","51","0.70813","0.178101","-0.681946","-0.041748","-0.022901","0.007634","-0.015267","9.287989","3.056519","0.0646","-0.031104","0.026318","0.001196","-0.007178","0.033496","-0.020337"
"N","1617446205.1451032","7","48","29","11","64","45","0.707947","0.178101","-0.68219","-0.041382","-0.022901","0.007634","-0.015267","9.278418","3.05293","0.029907","-0.04187","0.027515","-0.026318","0.017944","0.043066","-0.031104"
"N","1617446205.1348324","7","49","31","11","69","48","0.707764","0.178162","-0.682373","-0.041016","-0.022901","0.007634","-0.015267","9.254492","3.027808","-0.025122","-0.068188","0.007178","-0.075366","0.066992","0.04187","-0.062207"
"N","1617446205.125125","7","49","29","11","67","45","0.707581","0.178162","-0.682556","-0.04071","-0.015267","0.007634","-0.015267","9.237744","2.97876","-0.080151","-0.086133","-0.035889","-0.12561","0.123218","0.016748","-0.093311"
"N","1617446205.1150558","7","50","31","10","66","50","0.70752","0.17804","-0.682739","-0.040466","-0.007634","0.007634","-0.022901","9.231763","2.928516","-0.131592","-0.094507","-0.081348","-0.173462","0.178247","-0.013159","-0.114844"
"N","1617446205.1050985","7","49","28","10","68","48","0.707397","0.177795","-0.682861","-0.040283","0.007634","0.015267","-0.022901","9.240137","2.878272","-0.163892","-0.087329","-0.12561","-0.203369","0.216528","-0.050244","-0.122021"
"N","1617446205.0950058","7","51","31","14","68","50","0.707275","0.17749","-0.683105","-0.040222","0.007634","0.015267","-0.022901","9.273633","2.832813","-0.172266","-0.055029","-0.165088","-0.208154","0.230884","-0.095703","-0.102881"
"N","1617446205.08485","7","50","33","14","67","48","0.707153","0.177063","-0.683289","-0.040222","0.007634","0.022901","-0.022901","9.311914","2.810083","-0.172266","-0.017944","-0.181836","-0.205762","0.233276","-0.123218","-0.072974"
"N","1617446205.0749643","7","50","32","13","68","55","0.707031","0.176758","-0.683533","-0.040283","0.007634","0.015267","-0.022901","9.340625","2.814868","-0.151929","0.007178","-0.173462","-0.181836","0.210547","-0.128003","-0.045459"
"N","1617446205.0652974","7","48","29","14","67","53","0.70697","0.176453","-0.683655","-0.040283","0","0.007634","-0.015267","9.328662","2.848364","-0.123218","-0.004785","-0.136377","-0.150732","0.172266","-0.095703","-0.045459"
"N","1617446205.0551617","7","47","29","13","68","47","0.70697","0.176331","-0.683716","-0.040283","-0.007634","-0.007634","-0.007634","9.29397","2.884253","-0.094507","-0.040674","-0.098096","-0.122021","0.135181","-0.055029","-0.068188"
"N","1617446205.0451262","7","48","29","13","66","50","0.707031","0.176392","-0.683594","-0.040283","-0.007634","-0.015267","0","9.26167","2.926123","-0.055029","-0.071777","-0.057422","-0.084937","0.088525","-0.015552","-0.084937"
"N","1617446205.034938","7","50","31","10","65","48","0.707153","0.176514","-0.683472","-0.040222","-0.015267","-0.015267","0","9.226977","2.966797","-0.020337","-0.10647","-0.017944","-0.052637","0.047852","0.025122","-0.10647"
"N","1617446205.0251887","7","48","29","13","69","49","0.707275","0.176697","-0.683289","-0.0401","-0.015267","-0.015267","0","9.20664","2.995508","0","-0.12561","0.008374","-0.035889","0.025122","0.05144","-0.11604"
"N","1617446205.0149145","7","49","29","13","70","51","0.707336","0.17688","-0.683167","-0.039978","-0.015267","-0.007634","0","9.215014","3.006274","0.008374","-0.117236","0.017944","-0.029907","0.017944","0.057422","-0.105273"
"N","1617446205.0052173","7","49","30","13","60","47","0.707336","0.176941","-0.683167","-0.039795","-0.015267","0","-0.007634","9.256885","2.984741","0.003589","-0.075366","0","-0.033496","0.027515","0.028711","-0.071777"
"N","1617446204.994954","7","48","29","12","66","49","0.707275","0.176941","-0.683289","-0.039612","-0.007634","0.007634","-0.015267","9.30354","2.954834","-0.008374","-0.031104","-0.027515","-0.043066","0.044263","-0.007178","-0.037085"
"N","1617446204.984878","7","50","31","15","68","51","0.707153","0.176819","-0.683411","-0.03949","0","0.007634","-0.015267","9.326269","2.906982","-0.017944","-0.008374","-0.071777","-0.050244","0.061011","-0.053833","-0.029907"
"N","1617446204.9749725","7","51","32","13","66","52","0.707092","0.176575","-0.683594","-0.039429","0","0.007634","-0.015267","9.343018","2.853149","-0.021533","0.004785","-0.122021","-0.05144","0.072974","-0.105273","-0.0323"
"N","1617446204.9659183","7","50","15","12","68","49","0.707031","0.176453","-0.683655","-0.039429","0","0","-0.007634","9.334643","2.83999","-0.023926","-0.002393","-0.132788","-0.05144","0.07417","-0.112451","-0.04187"
"N","1617446204.9551702","7","50","30","13","69","47","0.707092","0.176453","-0.683655","-0.039429","-0.015267","-0.007634","-0.007634","9.292773","2.869897","-0.016748","-0.045459","-0.102881","-0.045459","0.059814","-0.072974","-0.07417"
"N","1617446204.945176","7","52","30","12","71","52","0.707153","0.176636","-0.683533","-0.039368","-0.015267","-0.015267","0","9.262866","2.909375","0.004785","-0.07417","-0.065796","-0.026318","0.0323","-0.033496","-0.089722"
"N","1617446204.9350295","7","49","31","14","64","49","0.707214","0.17688","-0.683411","-0.039246","-0.022901","-0.015267","0","9.246119","2.935693","0.028711","-0.089722","-0.040674","-0.003589","0.004785","-0.00957","-0.096899"
"N","1617446204.9257648","7","52","32","10","71","48","0.707214","0.177124","-0.683289","-0.039124","-0.015267","-0.007634","0","9.244922","2.944067","0.033496","-0.089722","-0.034692","0","0","-0.004785","-0.095703"
"N","1617446204.91478","7","49","32","14","68","51","0.707214","0.177246","-0.683289","-0.039001","-0.007634","0","-0.007634","9.256885","2.926123","0.027515","-0.078955","-0.052637","-0.004785","0.008374","-0.023926","-0.090918"
"N","1617446204.904867","7","49","27","14","67","61","0.707153","0.177185","-0.68335","-0.03894","0","0.007634","-0.015267","9.285596","2.901001","0.026318","-0.050244","-0.075366","-0.004785","0.015552","-0.053833","-0.070581"
"N","1617446204.902014","7","53","31","14","71","52","0.707092","0.176941","-0.683472","-0.03894","0.015267","0.007634","-0.015267","9.305933","2.856738","0.007178","-0.031104","-0.11604","-0.022729","0.04187","-0.094507","-0.0646"
"N","1617446204.90088","7","48","29","13","71","53","0.707031","0.176697","-0.683655","-0.039001","0.015267","0.007634","-0.007634","9.32268","2.831616","0.007178","-0.015552","-0.13877","-0.020337","0.044263","-0.120825","-0.056226"
"N","1617446204.8750262","7","49","30","13","70","49","0.707031","0.176514","-0.683655","-0.039246","0.007634","0","-0.007634","9.323877","2.851953","0.013159","-0.013159","-0.119629","-0.014355","0.034692","-0.104077","-0.047852"
"N","1617446204.8658142","7","49","29","15","68","47","0.707031","0.176514","-0.683655","-0.039368","0","-0.007634","0","9.311914","2.909375","0.033496","-0.025122","-0.063403","0.004785","0.004785","-0.052637","-0.043066"
"N","1617446204.8551536","7","51","32","13","68","49","0.707092","0.176575","-0.683533","-0.039551","0","-0.015267","0.007634","9.278418","2.954834","0.045459","-0.057422","-0.021533","0.014355","-0.013159","-0.004785","-0.061011"
"N","1617446204.8451416","7","49","30","12","67","52","0.707153","0.176758","-0.683411","-0.039673","-0.007634","-0.015267","0.007634","9.247314","2.9979","0.059814","-0.087329","0.015552","0.026318","-0.033496","0.034692","-0.077759"
"N","1617446204.8356812","7","51","28","16","67","49","0.707275","0.176941","-0.683289","-0.039734","-0.007634","-0.015267","0.007634","9.207837","3.02063","0.037085","-0.12561","0.034692","0.001196","-0.014355","0.069385","-0.108862"
"N","1617446204.8249314","7","49","29","14","66","48","0.707275","0.177002","-0.683228","-0.039795","0","0","0","9.198267","3.01106","-0.004785","-0.133984","0.023926","-0.040674","0.026318","0.069385","-0.119629"
"N","1617446204.815089","7","52","30","12","70","48","0.707275","0.17688","-0.683289","-0.039917","0.015267","0.007634","0","9.236547","2.976367","-0.046655","-0.096899","-0.00957","-0.081348","0.075366","0.034692","-0.094507"
"N","1617446204.8059192","7","49","31","13","66","49","0.707214","0.176636","-0.683411","-0.040161","0.015267","0.007634","0","9.295166","2.942871","-0.086133","-0.038281","-0.043066","-0.119629","0.122021","-0.004785","-0.049048"
"N","1617446204.7956767","7","49","30","13","70","48","0.707153","0.176453","-0.683472","-0.040466","0.015267","0","0","9.323877","2.942871","-0.117236","-0.008374","-0.044263","-0.150732","0.154321","-0.00957","-0.021533"
"N","1617446204.785174","7","48","30","10","67","48","0.707214","0.176331","-0.683472","-0.040771","0.007634","-0.007634","0.007634","9.32268","2.973975","-0.123218","-0.00957","-0.015552","-0.15791","0.156714","0.017944","-0.014355"
"N","1617446204.7750769","7","48","31","9","70","49","0.707275","0.176392","-0.68335","-0.040955","-0.007634","-0.007634","0.007634","9.31311","3.026611","-0.111255","-0.017944","0.0323","-0.14834","0.137573","0.063403","-0.007178"
"N","1617446204.765724","7","51","29","12","68","50","0.707336","0.176575","-0.683228","-0.041016","-0.015267","-0.007634","0","9.296362","3.057715","-0.095703","-0.033496","0.059814","-0.135181","0.118433","0.090918","-0.013159"
"N","1617446204.755757","7","49","30","12","67","49","0.707458","0.176636","-0.683044","-0.040955","-0.007634","-0.007634","0","9.279614","3.060107","-0.081348","-0.049048","0.062207","-0.124414","0.10647","0.096899","-0.027515"
"N","1617446204.7457423","7","48","29","13","68","51","0.707581","0.176697","-0.682983","-0.040833","-0.007634","-0.007634","-0.007634","9.282007","3.044556","-0.075366","-0.047852","0.046655","-0.120825","0.10647","0.081348","-0.031104"
"N","1617446204.7359188","7","49","29","13","66","47","0.707642","0.176575","-0.682922","-0.04071","-0.007634","-0.007634","-0.007634","9.310718","3.033789","-0.055029","-0.020337","0.039478","-0.101685","0.090918","0.062207","-0.007178"
"N","1617446204.7257447","7","49","33","11","67","49","0.707703","0.176514","-0.682922","-0.040588","0","-0.007634","-0.007634","9.328662","3.023022","-0.035889","-0.003589","0.031104","-0.08374","0.075366","0.045459","0.004785"
"N","1617446204.7159822","7","50","29","10","67","49","0.707825","0.176392","-0.6828","-0.040588","0","-0.015267","-0.007634","9.29038","3.006274","-0.033496","-0.04187","0.015552","-0.084937","0.077759","0.043066","-0.034692"
"N","1617446204.7056923","7","52","30","12","67","45","0.708008","0.176331","-0.682617","-0.040588","0.007634","-0.015267","-0.007634","9.262866","2.994312","-0.021533","-0.069385","0.003589","-0.078955","0.071777","0.038281","-0.0646"
"N","1617446204.695798","7","49","32","10","64","48","0.708191","0.176147","-0.682434","-0.040649","0.007634","-0.007634","0","9.255689","2.967993","-0.028711","-0.075366","-0.020337","-0.090918","0.087329","0.020337","-0.077759"
"N","1617446204.6857712","7","49","28","11","63","49","0.708313","0.176147","-0.682373","-0.040771","-0.007634","-0.007634","0","9.272436","2.975171","-0.016748","-0.059814","-0.015552","-0.081348","0.077759","0.017944","-0.062207"
"N","1617446204.6758296","7","51","29","10","67","49","0.708313","0.17627","-0.682312","-0.040833","-0.015267","-0.007634","0.007634","9.284399","3.025415","-0.020337","-0.046655","0.031104","-0.086133","0.075366","0.058618","-0.034692"
"N","1617446204.6657584","7","50","30","12","70","51","0.708313","0.176575","-0.682251","-0.040771","-0.022901","-0.007634","0.007634","9.262866","3.074463","-0.019141","-0.066992","0.077759","-0.084937","0.0646","0.108862","-0.039478"
"N","1617446204.6558826","7","49","31","13","71","52","0.708313","0.17688","-0.682129","-0.040649","-0.022901","-0.007634","0.007634","9.226977","3.088818","-0.017944","-0.101685","0.089722","-0.08374","0.058618","0.130396","-0.069385"
"N","1617446204.645784","7","52","29","13","68","47","0.708313","0.177124","-0.682068","-0.040466","-0.022901","-0.007634","0","9.209033","3.075659","-0.016748","-0.118433","0.075366","-0.082544","0.058618","0.120825","-0.089722"
"N","1617446204.6357949","7","49","31","13","68","47","0.708313","0.177246","-0.682068","-0.040222","-0.015267","0","-0.007634","9.218603","3.050537","-0.020337","-0.110059","0.05144","-0.084937","0.065796","0.096899","-0.088525"
"N","1617446204.626046","7","51","34","14","70","47","0.708252","0.177307","-0.682129","-0.0401","-0.015267","0","-0.007634","9.247314","3.01106","-0.022729","-0.081348","0.013159","-0.086133","0.076563","0.052637","-0.072974"
"N","1617446204.6158626","7","48","31","14","66","52","0.708252","0.177368","-0.682129","-0.039917","-0.015267","0","-0.007634","9.273633","2.981152","-0.011963","-0.056226","-0.014355","-0.07417","0.070581","0.017944","-0.057422"
"N","1617446204.6059127","7","51","30","14","64","51","0.708252","0.177368","-0.68219","-0.039734","-0.015267","0","-0.015267","9.29397","2.958423","0.011963","-0.037085","-0.034692","-0.050244","0.052637","-0.010767","-0.045459"
"N","1617446204.5959487","7","51","31","13","67","50","0.708252","0.177307","-0.68219","-0.039551","-0.015267","0","-0.015267","9.310718","2.933301","0.050244","-0.021533","-0.056226","-0.011963","0.020337","-0.043066","-0.037085"
"N","1617446204.5857985","7","48","29","12","68","58","0.708191","0.177307","-0.682251","-0.039307","-0.015267","0","-0.015267","9.323877","2.924927","0.090918","-0.008374","-0.061011","0.029907","-0.017944","-0.059814","-0.026318"
"N","1617446204.576019","7","52","29","12","67","46","0.708191","0.177307","-0.682312","-0.039001","-0.015267","0","-0.015267","9.323877","2.912964","0.110059","-0.010767","-0.069385","0.050244","-0.035889","-0.070581","-0.029907"
"N","1617446204.5658605","7","51","30","15","68","46","0.70813","0.177307","-0.682373","-0.038757","-0.015267","0","-0.022901","9.320288","2.897412","0.113647","-0.015552","-0.081348","0.055029","-0.039478","-0.081348","-0.038281"
"N","1617446204.5558937","7","48","32","14","70","49","0.708069","0.177246","-0.682434","-0.038513","-0.007634","0","-0.022901","9.304736","2.873486","0.088525","-0.0323","-0.100488","0.0323","-0.014355","-0.089722","-0.061011"
"N","1617446204.5458117","7","47","29","12","66","45","0.707947","0.177063","-0.682617","-0.038269","0","0.007634","-0.022901","9.304736","2.843579","0.057422","-0.033496","-0.124414","0.004785","0.015552","-0.10647","-0.069385"
"N","1617446204.5359447","7","50","29","12","70","50","0.707886","0.17688","-0.682739","-0.038208","0.007634","0.007634","-0.022901","9.31311","2.82085","0.023926","-0.026318","-0.143555","-0.026318","0.050244","-0.120825","-0.068188"
"N","1617446204.52589","7","51","32","13","67","49","0.707764","0.176636","-0.682922","-0.038208","0.007634","0","-0.015267","9.302343","2.813672","-0.010767","-0.038281","-0.147144","-0.057422","0.081348","-0.114844","-0.080151"
"N","1617446204.5157998","7","49","31","11","70","49","0.707764","0.176453","-0.682983","-0.038269","0","0","-0.007634","9.282007","2.83999","-0.027515","-0.059814","-0.119629","-0.07417","0.090918","-0.078955","-0.093311"
"N","1617446204.505894","7","47","31","14","64","63","0.707764","0.176392","-0.682983","-0.03833","-0.007634","0","0","9.266455","2.884253","-0.025122","-0.075366","-0.075366","-0.071777","0.078955","-0.033496","-0.094507"
"N","1617446204.4959064","7","49","32","14","67","49","0.707825","0.176514","-0.682922","-0.038391","-0.015267","0","0","9.284399","2.942871","0.00957","-0.056226","-0.019141","-0.038281","0.037085","0.005981","-0.058618"
"N","1617446204.4858005","7","51","29","15","68","51","0.707764","0.176636","-0.682922","-0.038391","-0.015267","0","0","9.30354","3.000293","0.057422","-0.037085","0.035889","0.00957","-0.017944","0.04187","-0.023926"
"N","1617446204.4758668","7","50","31","14","65","48","0.707703","0.176819","-0.682922","-0.03833","-0.015267","0","0","9.316699","3.023022","0.082544","-0.022729","0.056226","0.035889","-0.046655","0.05144","-0.003589"
"N","1617446204.4659426","7","49","29","12","70","49","0.707642","0.17688","-0.682983","-0.038269","-0.007634","-0.007634","-0.007634","9.309522","3.007471","0.090918","-0.029907","0.04187","0.046655","-0.055029","0.038281","-0.015552"
"N","1617446204.4559326","7","47","28","13","67","47","0.707642","0.176819","-0.683044","-0.038208","0","-0.007634","-0.007634","9.295166","2.952441","0.072974","-0.045459","-0.010767","0.028711","-0.028711","-0.001196","-0.045459"
"N","1617446204.4458113","7","49","30","12","72","51","0.707642","0.176697","-0.683044","-0.038269","0","0","-0.007634","9.309522","2.910571","0.052637","-0.031104","-0.05144","0.008374","0","-0.039478","-0.044263"
"N","1617446204.436062","7","49","33","12","68","51","0.707642","0.176636","-0.683044","-0.038269","0","-0.007634","-0.007634","9.311914","2.893823","0.04187","-0.028711","-0.068188","-0.001196","0.011963","-0.053833","-0.047852"
"N","1617446204.4258342","7","48","31","13","64","48","0.707642","0.176575","-0.683105","-0.03833","0","-0.007634","-0.007634","9.310718","2.886646","0.020337","-0.031104","-0.075366","-0.022729","0.033496","-0.056226","-0.05144"
"N","1617446204.415805","7","49","27","15","64","48","0.707642","0.176514","-0.683044","-0.038391","-0.007634","0","0","9.320288","2.891431","0.010767","-0.020337","-0.070581","-0.033496","0.044263","-0.052637","-0.040674"
"N","1617446204.405824","7","51","28","10","68","47","0.707642","0.176575","-0.683044","-0.038391","-0.007634","0","0","9.341822","2.920142","0.019141","0","-0.04187","-0.023926","0.031104","-0.033496","-0.011963"
"N","1617446204.3960602","7","50","9","13","67","48","0.707581","0.176697","-0.683105","-0.03833","-0.015267","0","0","9.347803","2.94646","0.028711","0.005981","-0.016748","-0.013159","0.015552","-0.014355","0"
"N","1617446204.3858664","7","49","31","14","69","51","0.70752","0.176758","-0.683167","-0.038269","-0.007634","0","-0.007634","9.346606","2.960815","0.039478","0.004785","-0.002393","0","0","-0.003589","0.003589"
"N","1617446204.3759975","7","51","33","13","67","49","0.707397","0.176758","-0.683289","-0.038208","0","0.007634","-0.007634","9.348999","2.94646","0.029907","0.007178","-0.015552","-0.005981","0.008374","-0.014355","0.001196"
"N","1617446204.365898","7","47","29","12","64","45","0.707275","0.176636","-0.683472","-0.038208","0","0.015267","-0.015267","9.35498","2.927319","0.004785","0.011963","-0.0323","-0.027515","0.033496","-0.027515","0.001196"
"N","1617446204.3559568","7","49","29","13","64","48","0.707092","0.176514","-0.683655","-0.038269","0.007634","0.007634","-0.007634","9.341822","2.915356","-0.023926","0","-0.043066","-0.05144","0.057422","-0.029907","-0.011963"
"N","1617446204.346154","7","52","32","13","67","49","0.70697","0.176331","-0.683838","-0.03833","0","0.007634","-0.007634","9.314306","2.903394","-0.062207","-0.028711","-0.052637","-0.086133","0.092114","-0.022729","-0.043066"
"N","1617446204.3359697","7","49","31","12","68","52","0.706909","0.176331","-0.683899","-0.038452","-0.007634","0","0","9.282007","2.916553","-0.094507","-0.059814","-0.04187","-0.117236","0.118433","0.001196","-0.069385"
"N","1617446204.3260114","7","49","33","13","68","48","0.706909","0.176392","-0.683899","-0.038452","-0.007634","-0.007634","0","9.254492","2.954834","-0.111255","-0.087329","-0.003589","-0.133984","0.12561","0.047852","-0.08374"
"N","1617446204.3159816","7","51","31","14","69","49","0.706909","0.176514","-0.683838","-0.038452","-0.015267","-0.007634","0","9.235352","2.989526","-0.119629","-0.10647","0.027515","-0.142358","0.126807","0.084937","-0.093311"
"N","1617446204.3059225","7","51","31","12","71","50","0.706909","0.176575","-0.683838","-0.038391","-0.007634","0","0","9.241333","3.006274","-0.111255","-0.100488","0.044263","-0.133984","0.11604","0.096899","-0.082544"
"N","1617446204.295998","7","49","30","12","68","49","0.706909","0.176575","-0.683838","-0.038269","0","0","-0.007634","9.27124","2.98833","-0.090918","-0.070581","0.028711","-0.113647","0.100488","0.069385","-0.058618"
"N","1617446204.2859118","7","52","32","13","66","48","0.706909","0.176392","-0.683899","-0.038208","0.007634","0.007634","-0.015267","9.296362","2.947656","-0.071777","-0.046655","-0.008374","-0.094507","0.090918","0.023926","-0.046655"
"N","1617446204.276146","7","49","31","10","66","51","0.706848","0.176086","-0.684021","-0.038147","0.007634","0.007634","-0.015267","9.31311","2.899805","-0.066992","-0.031104","-0.050244","-0.088525","0.093311","-0.020337","-0.044263"
"N","1617446204.265919","7","48","29","13","67","48","0.706848","0.175781","-0.684082","-0.038147","0.007634","0","-0.015267","9.331055","2.859131","-0.059814","-0.014355","-0.087329","-0.081348","0.094507","-0.061011","-0.039478"
"N","1617446204.2559402","7","51","32","14","70","47","0.706848","0.175537","-0.684204","-0.038147","0","0","-0.015267","9.341822","2.836401","-0.059814","-0.005981","-0.10647","-0.080151","0.096899","-0.081348","-0.037085"
"N","1617446204.2459965","7","48","29","14","69","48","0.706848","0.175415","-0.684265","-0.038086","-0.007634","0","-0.015267","9.350195","2.853149","-0.044263","0","-0.087329","-0.0646","0.078955","-0.068188","-0.026318"
"N","1617446204.2361245","7","53","31","12","61","48","0.706787","0.175476","-0.684204","-0.037964","-0.015267","-0.007634","-0.007634","9.325073","2.878272","-0.044263","-0.021533","-0.061011","-0.063403","0.071777","-0.038281","-0.038281"
"N","1617446204.2259865","7","51","30","12","69","47","0.706909","0.175598","-0.684143","-0.037781","-0.015267","-0.015267","-0.007634","9.277222","2.897412","-0.052637","-0.071777","-0.04187","-0.07417","0.075366","-0.002393","-0.080151"
"N","1617446204.2160225","7","50","31","13","66","51","0.70697","0.17572","-0.684021","-0.037598","-0.015267","-0.015267","-0.007634","9.236547","2.912964","-0.057422","-0.111255","-0.025122","-0.081348","0.076563","0.025122","-0.113647"
"N","1617446204.206142","7","48","30","14","56","51","0.707092","0.175781","-0.683899","-0.037415","-0.007634","-0.007634","-0.007634","9.224585","2.903394","-0.065796","-0.124414","-0.033496","-0.092114","0.088525","0.022729","-0.128003"
"N","1617446204.1960711","7","50","28","15","69","49","0.707092","0.175659","-0.68396","-0.037354","0.007634","0.007634","-0.007634","9.262866","2.863916","-0.077759","-0.087329","-0.070581","-0.104077","0.108862","-0.019141","-0.104077"
"N","1617446204.186148","7","49","31","12","71","47","0.707031","0.175415","-0.684021","-0.037476","0.007634","0.007634","-0.007634","9.299952","2.836401","-0.07417","-0.049048","-0.095703","-0.099292","0.111255","-0.055029","-0.075366"
"N","1617446204.17614","7","49","29","14","65","49","0.70697","0.175232","-0.684143","-0.037598","0.007634","0.007634","-0.007634","9.310718","2.831616","-0.068188","-0.039478","-0.100488","-0.092114","0.10647","-0.063403","-0.066992"
"N","1617446204.1659944","7","51","33","14","68","52","0.706909","0.17511","-0.684265","-0.037659","0","0","-0.007634","9.298755","2.848364","-0.052637","-0.052637","-0.082544","-0.07417","0.08374","-0.046655","-0.07417"
"N","1617446204.1561136","7","50","31","14","68","47","0.706909","0.17511","-0.684265","-0.037659","-0.015267","0","-0.007634","9.287989","2.871094","-0.0323","-0.063403","-0.059814","-0.053833","0.059814","-0.026318","-0.077759"
"N","1617446204.1460922","7","51","29","13","67","54","0.706909","0.175232","-0.684204","-0.037598","-0.022901","-0.015267","-0.007634","9.258081","2.898608","-0.007178","-0.092114","-0.033496","-0.028711","0.028711","0.001196","-0.096899"
"N","1617446204.135919","7","48","31","12","68","48","0.70697","0.175415","-0.684082","-0.037354","-0.022901","-0.015267","-0.007634","9.216211","2.915356","0.00957","-0.133984","-0.015552","-0.014355","0.008374","0.026318","-0.131592"
"N","1617446204.1260717","7","49","31","12","67","47","0.707092","0.175537","-0.68396","-0.037109","-0.015267","-0.015267","-0.007634","9.1875","2.897412","0.011963","-0.162695","-0.0323","-0.014355","0.00957","0.019141","-0.163892"
"N","1617446204.1161203","7","48","32","14","71","48","0.707214","0.175476","-0.683899","-0.036926","-0.007634","-0.007634","-0.007634","9.211426","2.856738","0.016748","-0.141162","-0.070581","-0.011963","0.015552","-0.021533","-0.155518"
"N","1617446204.1060278","7","51","31","13","68","48","0.707275","0.175415","-0.683838","-0.036804","0","-0.007634","-0.007634","9.247314","2.83042","0.020337","-0.105273","-0.094507","-0.010767","0.021533","-0.055029","-0.128003"
"N","1617446204.096188","7","49","30","13","66","49","0.707275","0.175293","-0.683838","-0.036804","0.007634","0","-0.007634","9.259277","2.817261","0.015552","-0.093311","-0.105273","-0.015552","0.028711","-0.068188","-0.119629"
"N","1617446204.0860956","7","50","28","13","68","49","0.707275","0.175171","-0.683899","-0.036865","0","0","-0.007634","9.273633","2.825635","0.023926","-0.080151","-0.095703","-0.007178","0.019141","-0.0646","-0.104077"
"N","1617446204.0760622","7","51","29","12","68","49","0.707214","0.17511","-0.68396","-0.036926","0","0.007634","-0.007634","9.283203","2.848364","0.016748","-0.070581","-0.072974","-0.011963","0.020337","-0.044263","-0.088525"
"N","1617446204.0660665","7","49","32","13","68","49","0.707153","0.175049","-0.684082","-0.037048","0","0.007634","0","9.29038","2.866309","0.005981","-0.063403","-0.056226","-0.021533","0.027515","-0.028711","-0.076563"
"N","1617446204.056245","7","51","28","13","67","50","0.707031","0.175049","-0.684143","-0.03717","0","0","0","9.296362","2.880664","0.002393","-0.056226","-0.043066","-0.022729","0.026318","-0.019141","-0.065796"
"N","1617446204.045913","7","50","31","15","68","48","0.70697","0.175049","-0.684204","-0.037292","-0.007634","0","0.007634","9.298755","2.90459","0","-0.053833","-0.020337","-0.022729","0.022729","0","-0.057422"
"N","1617446204.0362391","7","52","39","13","70","49","0.706909","0.175232","-0.684204","-0.037415","-0.007634","0","0.007634","9.304736","2.934497","0.008374","-0.046655","0.004785","-0.013159","0.008374","0.020337","-0.043066"
"N","1617446204.02673","7","48","29","16","68","49","0.706848","0.175415","-0.684204","-0.037476","-0.015267","-0.007634","0.007634","9.301147","2.960815","0","-0.049048","0.027515","-0.020337","0.010767","0.043066","-0.038281"
"N","1617446204.0159378","7","47","29","13","64","57","0.706848","0.175598","-0.684204","-0.037415","-0.007634","-0.007634","0","9.295166","2.952441","-0.017944","-0.055029","0.016748","-0.037085","0.028711","0.038281","-0.046655"
"N","1617446204.006778","7","49","29","12","27","48","0.706848","0.175659","-0.684204","-0.037415","0","0","0","9.298755","2.915356","-0.026318","-0.05144","-0.019141","-0.045459","0.044263","0.005981","-0.053833"
"N","1617446203.9959655","7","51","32","14","70","51","0.706848","0.175598","-0.684204","-0.037476","0.007634","0","-0.007634","9.319092","2.880664","-0.044263","-0.029907","-0.053833","-0.063403","0.069385","-0.028711","-0.044263"
"N","1617446203.9860892","7","50","29","13","68","52","0.706787","0.175476","-0.684265","-0.037598","0.007634","0","0","9.323877","2.868701","-0.040674","-0.025122","-0.065796","-0.058618","0.068188","-0.04187","-0.043066"
"N","1617446203.9767506","7","50","31","12","66","53","0.706787","0.175476","-0.684265","-0.037781","0","0","0","9.314306","2.89502","-0.033496","-0.034692","-0.04187","-0.052637","0.056226","-0.017944","-0.045459"
"N","1617446203.9660666","7","49","31","12","70","47","0.706787","0.175415","-0.684265","-0.037903","0","0","0","9.301147","2.929712","-0.021533","-0.046655","-0.008374","-0.040674","0.038281","0.013159","-0.046655"
"N","1617446203.9560122","7","49","33","13","67","51","0.706787","0.175415","-0.684265","-0.037964","0.007634","0","0","9.283203","2.954834","-0.019141","-0.0646","0.015552","-0.038281","0.029907","0.040674","-0.056226"
"N","1617446203.9468749","7","48","31","12","67","51","0.706726","0.175293","-0.684326","-0.038086","0.007634","0.007634","-0.007634","9.279614","2.964404","-0.027515","-0.068188","0.025122","-0.045459","0.034692","0.05144","-0.057422"
"N","1617446203.9362078","7","48","29","13","66","49","0.706665","0.17511","-0.684448","-0.038147","0.007634","0.007634","-0.007634","9.297559","2.958423","-0.033496","-0.05144","0.020337","-0.049048","0.040674","0.043066","-0.04187"
"N","1617446203.926846","7","51","30","13","67","48","0.706665","0.174927","-0.684509","-0.038208","0.007634","0","-0.007634","9.304736","2.947656","-0.058618","-0.044263","0.011963","-0.07417","0.066992","0.038281","-0.038281"
"N","1617446203.9167075","7","48","29","13","66","48","0.706665","0.174805","-0.684509","-0.038269","0","-0.007634","-0.007634","9.284399","2.952441","-0.0646","-0.0646","0.016748","-0.081348","0.071777","0.050244","-0.056226"
"N","1617446203.9068606","7","52","32","15","71","51","0.706787","0.174683","-0.684448","-0.03833","0","-0.007634","0","9.2521","2.964404","-0.069385","-0.098096","0.029907","-0.088525","0.075366","0.072974","-0.08374"
"N","1617446203.89684","7","52","31","13","68","48","0.706848","0.174622","-0.684387","-0.038391","0","-0.007634","0","9.241333","2.964404","-0.076563","-0.108862","0.029907","-0.098096","0.08374","0.078955","-0.094507"
"N","1617446203.646902","7","47","29","-5","66","49","0.706177","0.175293","-0.684937","-0.038269","0","-0.007634","0","9.262866","2.985938","-0.056226","-0.084937","0.045459","-0.058618","0.043066","0.078955","-0.066992"
"N","1617446203.6367962","7","48","29","12","68","47","0.706238","0.175354","-0.684814","-0.038269","-0.007634","-0.015267","0","9.277222","2.981152","-0.055029","-0.070581","0.039478","-0.059814","0.046655","0.068188","-0.055029"
"N","1617446203.6267998","7","51","30","12","66","49","0.706421","0.175293","-0.684692","-0.038208","0","-0.015267","0","9.292773","2.95603","-0.043066","-0.055029","0.015552","-0.05144","0.044263","0.040674","-0.047852"
"N","1617446203.6169848","7","50","29","15","64","47","0.706604","0.175293","-0.684509","-0.038147","-0.007634","-0.015267","-0.007634","9.328662","2.920142","-0.020337","-0.020337","-0.019141","-0.033496","0.034692","-0.004785","-0.025122"
"N","1617446203.606942","7","48","30","12","68","48","0.706787","0.175232","-0.684326","-0.038025","-0.007634","-0.015267","-0.007634","9.369336","2.90459","-0.002393","0.019141","-0.0323","-0.021533","0.027515","-0.031104","0.008374"
"N","1617446203.5968826","7","50","32","12","70","52","0.706909","0.175232","-0.684143","-0.037903","-0.007634","-0.015267","-0.007634","9.412402","2.892627","0.020337","0.063403","-0.043066","-0.002393","0.013159","-0.057422","0.046655"
"N","1617446203.586976","7","49","31","14","62","49","0.707031","0.175232","-0.684082","-0.03772","-0.007634","-0.007634","-0.007634","9.465039","2.885449","0.047852","0.113647","-0.047852","0.021533","-0.004785","-0.081348","0.093311"
"N","1617446203.5771418","7","51","29","12","68","48","0.707031","0.175232","-0.684082","-0.037598","-0.007634","-0.007634","-0.015267","9.492554","2.868701","0.068188","0.141162","-0.063403","0.04187","-0.020337","-0.108862","0.114844"
"N","1617446203.566916","7","49","29","14","66","51","0.707092","0.175293","-0.684021","-0.037415","-0.015267","-0.015267","-0.015267","9.468628","2.853149","0.075366","0.117236","-0.077759","0.047852","-0.025122","-0.11604","0.088525"
"N","1617446203.5569084","7","49","30","12","71","49","0.707275","0.175354","-0.683838","-0.037231","-0.015267","-0.022901","-0.007634","9.424365","2.853149","0.068188","0.071777","-0.076563","0.035889","-0.015552","-0.099292","0.045459"
"N","1617446203.5469038","7","49","31","12","68","49","0.707397","0.175476","-0.683716","-0.037048","-0.015267","-0.022901","-0.007634","9.386084","2.865112","0.062207","0.033496","-0.063403","0.027515","-0.011963","-0.07417","0.011963"
"N","1617446203.5370803","7","48","33","12","68","53","0.70752","0.175598","-0.683533","-0.036804","-0.007634","-0.015267","-0.007634","9.351392","2.863916","0.039478","0","-0.063403","0.001196","0.00957","-0.058618","-0.017944"
"N","1617446203.5269525","7","49","32","12","70","49","0.707642","0.175598","-0.683411","-0.036621","0","-0.015267","-0.015267","9.339429","2.845972","0.014355","-0.013159","-0.078955","-0.026318","0.039478","-0.0646","-0.035889"
"N","1617446203.516997","7","51","28","-7","68","48","0.707703","0.175537","-0.68335","-0.03656","0","-0.007634","-0.015267","9.338232","2.847168","0.001196","-0.014355","-0.076563","-0.04187","0.053833","-0.058618","-0.035889"
"N","1617446203.5069396","7","49","29","14","70","49","0.707764","0.175354","-0.683411","-0.03656","0.007634","0","-0.015267","9.350195","2.845972","-0.016748","-0.003589","-0.075366","-0.059814","0.071777","-0.057422","-0.025122"
"N","1617446203.4968789","7","49","29","12","67","48","0.707703","0.175049","-0.683472","-0.036682","0.015267","0.007634","-0.015267","9.356176","2.844775","-0.021533","0.001196","-0.07417","-0.0646","0.076563","-0.056226","-0.020337"
"N","1617446203.4869976","7","49","31","13","70","52","0.707703","0.174866","-0.683594","-0.036804","0.007634","0.007634","-0.007634","9.351392","2.850757","-0.016748","-0.003589","-0.066992","-0.058618","0.069385","-0.049048","-0.022729"
"N","1617446203.4767883","7","49","32","12","67","47","0.707642","0.174744","-0.683655","-0.036987","0","0","-0.007634","9.326269","2.874683","0","-0.028711","-0.044263","-0.040674","0.045459","-0.023926","-0.040674"
"N","1617446203.4670205","7","49","30","11","68","51","0.707581","0.174805","-0.683655","-0.037048","-0.015267","0","0","9.283203","2.921338","0.004785","-0.070581","0","-0.034692","0.028711","0.026318","-0.066992"
"N","1617446203.456919","7","49","31","12","69","49","0.707581","0.174988","-0.683655","-0.036987","-0.022901","-0.007634","0","9.254492","2.975171","0.005981","-0.099292","0.052637","-0.033496","0.016748","0.08374","-0.078955"
"N","1617446203.4469836","7","48","32","15","66","52","0.70752","0.175354","-0.683594","-0.036804","-0.030534","-0.007634","0.007634","9.222193","3.023022","0.001196","-0.130396","0.098096","-0.035889","0.008374","0.136377","-0.094507"
"N","1617446203.4369657","7","49","29","13","67","49","0.70752","0.175659","-0.683533","-0.03656","-0.022901","-0.007634","0","9.183911","3.038574","-0.003589","-0.168677","0.112451","-0.040674","0.007178","0.161499","-0.126807"
"N","1617446203.4270458","7","49","31","12","68","50","0.70752","0.17572","-0.683533","-0.036316","-0.007634","-0.007634","-0.007634","9.154004","2.985938","-0.04187","-0.198584","0.062207","-0.078955","0.052637","0.131592","-0.171069"
"N","1617446203.4170032","7","45","29","12","68","49","0.70752","0.175476","-0.683594","-0.036194","0.015267","0.007634","-0.022901","9.175537","2.893823","-0.089722","-0.179443","-0.023926","-0.126807","0.117236","0.055029","-0.178247"
"N","1617446203.4070275","7","51","33","13","67","49","0.707458","0.174927","-0.683777","-0.036133","0.030534","0.015267","-0.030534","9.240137","2.796924","-0.119629","-0.117236","-0.112451","-0.154321","0.165088","-0.039478","-0.144751"
"N","1617446203.397161","7","50","32","12","69","49","0.707336","0.174255","-0.684082","-0.036316","0.030534","0.022901","-0.022901","9.289185","2.727539","-0.142358","-0.070581","-0.174658","-0.174658","0.198584","-0.107666","-0.119629"
"N","1617446203.387215","7","50","28","12","69","49","0.707214","0.173706","-0.684326","-0.03656","0.015267","0.015267","-0.015267","9.307129","2.728735","-0.14834","-0.053833","-0.168677","-0.177051","0.200977","-0.107666","-0.101685"
"N","1617446203.3770711","7","49","30","13","68","50","0.707153","0.173523","-0.684448","-0.036743","0","0.007634","-0.007634","9.304736","2.789746","-0.142358","-0.056226","-0.107666","-0.169873","0.183032","-0.05144","-0.084937"
"N","1617446203.3669794","7","49","31","13","68","49","0.707092","0.173645","-0.684509","-0.036865","-0.022901","0","0.007634","9.287989","2.903394","-0.108862","-0.072974","0.001196","-0.133984","0.12561","0.047852","-0.069385"
"N","1617446203.3571126","7","49","32","12","64","49","0.707031","0.174072","-0.684387","-0.036865","-0.030534","-0.007634","0.015267","9.26167","3.014648","-0.080151","-0.095703","0.107666","-0.105273","0.076563","0.14834","-0.058618"
"N","1617446203.346992","7","48","29","13","67","48","0.707031","0.174622","-0.684265","-0.036682","-0.038168","-0.015267","0.015267","9.217407","3.074463","-0.058618","-0.13877","0.161499","-0.082544","0.04187","0.206958","-0.08374"
"N","1617446203.3370888","7","50","29","12","66","50","0.707153","0.17511","-0.684082","-0.036438","-0.030534","-0.022901","0.007634","9.180323","3.087622","-0.0646","-0.175854","0.171069","-0.090918","0.045459","0.228491","-0.117236"
"N","1617446203.3271198","7","48","28","14","70","48","0.707336","0.175354","-0.683838","-0.036133","-0.022901","-0.022901","0","9.162378","3.05293","-0.070581","-0.193799","0.136377","-0.101685","0.061011","0.203369","-0.144751"
"N","1617446203.3170483","7","49","28","15","70","49","0.70752","0.175415","-0.683655","-0.035767","-0.007634","-0.015267","-0.015267","9.17793","2.966797","-0.071777","-0.179443","0.053833","-0.107666","0.08374","0.123218","-0.155518"
"N","1617446203.307192","7","49","29","12","65","49","0.707703","0.175171","-0.683472","-0.035583","0","-0.015267","-0.022901","9.22937","2.863916","-0.059814","-0.128003","-0.04187","-0.101685","0.099292","0.017944","-0.133984"
"N","1617446203.297146","7","47","29","13","70","48","0.707886","0.174866","-0.683411","-0.035339","0","-0.015267","-0.022901","9.273633","2.790942","-0.033496","-0.086133","-0.107666","-0.078955","0.092114","-0.059814","-0.113647"
"N","1617446203.2871137","7","51","31","12","68","53","0.708069","0.174683","-0.683289","-0.035156","-0.007634","-0.015267","-0.015267","9.308325","2.759839","0.002393","-0.053833","-0.135181","-0.047852","0.068188","-0.100488","-0.090918"
"N","1617446203.2769969","7","49","29","12","68","47","0.708252","0.174683","-0.683105","-0.034973","-0.015267","-0.022901","-0.015267","9.323877","2.767017","0.037085","-0.038281","-0.12561","-0.017944","0.038281","-0.102881","-0.072974"
"N","1617446203.2670543","7","49","33","13","67","50","0.708435","0.174805","-0.682922","-0.034729","-0.022901","-0.022901","-0.007634","9.326269","2.78855","0.055029","-0.037085","-0.102881","-0.004785","0.021533","-0.08374","-0.065796"
"N","1617446203.257108","7","51","33","14","67","51","0.708618","0.17511","-0.682678","-0.034546","-0.030534","-0.022901","0","9.327466","2.818457","0.075366","-0.034692","-0.075366","0.00957","0.002393","-0.062207","-0.055029"
"N","1617446203.2477045","7","51","31","12","67","48","0.70874","0.175415","-0.682434","-0.034302","-0.022901","-0.022901","0","9.31311","2.848364","0.089722","-0.047852","-0.046655","0.020337","-0.013159","-0.033496","-0.058618"
"N","1617446203.237188","7","48","29","13","68","47","0.708923","0.17572","-0.68219","-0.034058","-0.015267","-0.022901","0","9.30354","2.851953","0.087329","-0.057422","-0.044263","0.013159","-0.007178","-0.027515","-0.066992"
"N","1617446203.227027","7","45","28","10","64","49","0.709045","0.175842","-0.682007","-0.033936","-0.007634","-0.022901","0","9.304736","2.835205","0.081348","-0.056226","-0.061011","0.003589","0.003589","-0.040674","-0.070581"
"N","1617446203.216998","7","49","30","11","68","51","0.709229","0.175903","-0.681824","-0.033875","0","-0.015267","-0.007634","9.308325","2.811279","0.065796","-0.052637","-0.086133","-0.015552","0.027515","-0.062207","-0.075366"
"N","1617446203.2071","7","52","29","11","71","52","0.709351","0.175781","-0.681702","-0.033936","0.007634","-0.007634","-0.007634","9.329859","2.78855","0.059814","-0.031104","-0.107666","-0.025122","0.043066","-0.086133","-0.061011"
"N","1617446203.1971183","7","45","29","12","67","48","0.709473","0.17572","-0.681641","-0.034058","0.007634","-0.007634","-0.007634","9.35498","2.782568","0.059814","-0.005981","-0.114844","-0.027515","0.047852","-0.099292","-0.039478"
"N","1617446203.1870377","7","49","31","12","69","49","0.709473","0.175659","-0.681641","-0.034119","0","0","0","9.370532","2.789746","0.057422","0.008374","-0.107666","-0.029907","0.050244","-0.096899","-0.023926"
"N","1617446203.1771903","7","48","31","13","65","48","0.709473","0.175781","-0.68158","-0.03418","-0.015267","-0.007634","0","9.392065","2.82085","0.059814","0.031104","-0.078955","-0.028711","0.044263","-0.076563","0.005981"
"N","1617446203.1670415","7","80","30","12","68","51","0.709473","0.176025","-0.68158","-0.03418","-0.022901","-0.007634","0.007634","9.407618","2.867505","0.062207","0.046655","-0.035889","-0.025122","0.033496","-0.04187","0.033496"
"N","1617446203.157172","7","50","29","12","66","49","0.709473","0.176392","-0.681458","-0.034058","-0.030534","-0.015267","0.007634","9.411206","2.910571","0.0646","0.052637","0.002393","-0.022729","0.025122","-0.007178","0.050244"
"N","1617446203.147086","7","50","31","10","66","48","0.709473","0.176819","-0.681335","-0.033875","-0.030534","-0.015267","0.007634","9.386084","2.953638","0.07417","0.028711","0.04187","-0.013159","0.005981","0.033496","0.039478"
"N","1617446203.1370378","7","45","29","13","66","49","0.709595","0.177185","-0.681152","-0.033691","-0.022901","-0.022901","0","9.35498","2.973975","0.08374","-0.001196","0.059814","-0.007178","-0.003589","0.057422","0.015552"
"N","1617446203.1277227","7","49","32","12","67","47","0.709717","0.177307","-0.680969","-0.033508","-0.007634","-0.015267","0","9.339429","2.958423","0.086133","-0.015552","0.044263","-0.008374","-0.001196","0.046655","-0.001196"
"N","1617446203.117117","7","49","31","12","67","49","0.709839","0.177246","-0.680847","-0.033447","0.007634","-0.007634","-0.007634","9.363355","2.91416","0.096899","0.005981","0.001196","-0.001196","0.001196","0","0.005981"
"N","1617446203.1079316","7","51","30","14","67","49","0.709961","0.177002","-0.680847","-0.033447","0.015267","-0.007634","-0.015267","9.376513","2.868701","0.112451","0.017944","-0.039478","0.010767","-0.001196","-0.044263","0.004785"
"N","1617446203.0977044","7","49","30","10","70","49","0.710022","0.176758","-0.680786","-0.033569","0.015267","-0.007634","-0.015267","9.360962","2.843579","0.124414","0.002393","-0.063403","0.020337","-0.007178","-0.063403","-0.015552"
"N","1617446203.0877495","7","49","32","14","68","47","0.710144","0.176514","-0.680725","-0.03363","0","-0.007634","-0.007634","9.346606","2.834009","0.136377","-0.010767","-0.070581","0.028711","-0.014355","-0.068188","-0.029907"
"N","1617446203.0778456","7","48","31","12","66","49","0.710205","0.176453","-0.680664","-0.03363","-0.007634","-0.007634","-0.007634","9.360962","2.850757","0.15791","0.002393","-0.053833","0.049048","-0.037085","-0.061011","-0.011963"
"N","1617446203.0676906","7","49","30","13","67","49","0.710205","0.176514","-0.680664","-0.033569","-0.015267","-0.007634","-0.007634","9.352588","2.875879","0.171069","-0.005981","-0.028711","0.062207","-0.055029","-0.037085","-0.013159"
"N","1617446203.057823","7","48","29","12","67","52","0.710205","0.176697","-0.680603","-0.033386","-0.022901","-0.007634","-0.007634","9.338232","2.912964","0.162695","-0.019141","0.007178","0.053833","-0.055029","0","-0.015552"
"N","1617446203.0479712","7","49","31","14","73","46","0.710144","0.176758","-0.680664","-0.033081","-0.015267","0","-0.015267","9.327466","2.916553","0.13877","-0.031104","0.014355","0.0323","-0.035889","0.015552","-0.023926"
"N","1617446203.037737","7","48","27","10","64","49","0.710083","0.176697","-0.680786","-0.032898","0","0.007634","-0.015267","9.337036","2.87229","0.101685","-0.023926","-0.025122","-0.001196","0.003589","-0.015552","-0.029907"
"N","1617446203.02784","7","50","29","14","68","44","0.7099","0.176453","-0.68103","-0.032837","0.007634","0.015267","-0.015267","9.357373","2.836401","0.058618","-0.004785","-0.056226","-0.039478","0.049048","-0.043066","-0.021533"
"N","1617446203.017836","7","52","31","12","68","48","0.709717","0.176147","-0.681274","-0.032898","0.007634","0.015267","-0.015267","9.369336","2.826831","0.011963","0.005981","-0.062207","-0.081348","0.090918","-0.043066","-0.013159"
"N","1617446203.0077784","7","50","32","14","68","52","0.709534","0.175964","-0.681519","-0.03302","0.007634","0.015267","-0.007634","9.364551","2.838794","-0.011963","0","-0.049048","-0.100488","0.107666","-0.025122","-0.014355"
"N","1617446202.9979455","7","51","29","12","64","45","0.709412","0.175903","-0.681641","-0.033142","-0.007634","0.007634","-0.007634","9.327466","2.887842","-0.023926","-0.035889","0","-0.108862","0.104077","0.0323","-0.034692"
"N","1617446202.987882","7","45","29","13","68","51","0.709351","0.175903","-0.681702","-0.033142","-0.015267","0","0","9.278418","2.933301","-0.039478","-0.084937","0.044263","-0.123218","0.105273","0.090918","-0.068188"
"N","1617446202.97777","7","50","29","9","68","46","0.709351","0.176086","-0.681702","-0.03302","-0.015267","-0.007634","0","9.243726","2.966797","-0.038281","-0.119629","0.076563","-0.122021","0.095703","0.130396","-0.092114"
"N","1617446202.9679923","7","52","31","14","67","51","0.709412","0.176208","-0.681641","-0.032837","-0.015267","-0.007634","-0.007634","9.223389","2.983545","-0.028711","-0.139966","0.094507","-0.112451","0.081348","0.150732","-0.10647"
"N","1617446202.957839","7","51","31","14","64","52","0.709473","0.176086","-0.681641","-0.032532","0","0","-0.022901","9.220996","2.95603","-0.015552","-0.144751","0.071777","-0.100488","0.07417","0.129199","-0.117236"
"N","1617446202.9477158","7","48","31","13","67","49","0.709473","0.17572","-0.681702","-0.032288","0.015267","0.007634","-0.030534","9.24851","2.873486","-0.005981","-0.119629","-0.001196","-0.092114","0.081348","0.05144","-0.114844"
"N","1617446202.937852","7","48","31","10","70","47","0.709473","0.17511","-0.681824","-0.032166","0.022901","0.007634","-0.030534","9.289185","2.789746","0.003589","-0.081348","-0.07417","-0.082544","0.088525","-0.028711","-0.099292"
"N","1617446202.9279869","7","48","28","10","66","52","0.709534","0.174438","-0.682007","-0.032166","0.022901","0.007634","-0.030534","9.305933","2.732324","0.016748","-0.068188","-0.123218","-0.069385","0.086133","-0.081348","-0.101685"
"N","1617446202.9177656","7","49","31","14","64","47","0.709534","0.17395","-0.682129","-0.032166","0.007634","0","-0.022901","9.310718","2.720361","0.027515","-0.065796","-0.128003","-0.059814","0.077759","-0.088525","-0.100488"
"N","1617446202.90798","7","48","27","6","63","42","0.709595","0.173706","-0.682129","-0.032166","-0.007634","-0.007634","-0.015267","9.295166","2.751465","0.040674","-0.081348","-0.093311","-0.047852","0.058618","-0.053833","-0.105273"
"N","1617446202.8979084","7","49","30","11","25","89","0.709656","0.173706","-0.682068","-0.031982","-0.022901","-0.015267","-0.015267","9.246119","2.802905","0.055029","-0.131592","-0.040674","-0.034692","0.0323","0.005981","-0.137573"
"N","1617446202.8879898","7","50","29","12","68","48","0.709778","0.173889","-0.681885","-0.031616","-0.030534","-0.022901","-0.007634","9.198267","2.848364","0.059814","-0.179443","0.005981","-0.033496","0.019141","0.062207","-0.169873"
"N","1617446202.8778377","7","49","31","10","70","51","0.7099","0.174072","-0.681763","-0.03125","-0.022901","-0.015267","-0.007634","9.188696","2.863916","0.058618","-0.19021","0.023926","-0.037085","0.017944","0.082544","-0.174658"
"N","1617446202.867982","7","48","30","13","67","48","0.7099","0.174133","-0.681702","-0.030884","-0.015267","-0.007634","-0.015267","9.205444","2.828027","0.053833","-0.173462","-0.007178","-0.04187","0.029907","0.050244","-0.16748"
"N","1617446202.8581123","7","48","29","13","70","51","0.7099","0.174011","-0.681763","-0.030579","0","0","-0.022901","9.254492","2.763428","0.050244","-0.126807","-0.065796","-0.045459","0.047852","-0.016748","-0.139966"
"N","1617446202.8478212","7","47","27","10","73","52","0.709839","0.173706","-0.681885","-0.030396","0.007634","0.007634","-0.022901","9.302343","2.694043","0.037085","-0.080151","-0.128003","-0.057422","0.075366","-0.084937","-0.113647"
"N","1617446202.8379846","7","51","30","13","66","48","0.709778","0.173279","-0.682129","-0.030334","0.015267","0.007634","-0.022901","9.348999","2.635425","0.029907","-0.037085","-0.18064","-0.061011","0.092114","-0.145947","-0.087329"
"N","1617446202.8280754","7","45","27","12","94","45","0.709717","0.172852","-0.682312","-0.030457","0.015267","0","-0.022901","9.352588","2.606714","0.019141","-0.034692","-0.204565","-0.070581","0.105273","-0.16748","-0.092114"
"N","1617446202.8180158","7","49","29","10","80","48","0.709717","0.172607","-0.682312","-0.030518","0","-0.007634","-0.015267","9.311914","2.616284","0.010767","-0.075366","-0.192603","-0.080151","0.110059","-0.142358","-0.128003"
"N","1617446202.808048","7","48","32","12","68","50","0.709839","0.172546","-0.682251","-0.030579","-0.007634","-0.015267","-0.007634","9.276026","2.659351","0.029907","-0.112451","-0.149536","-0.063403","0.082544","-0.095703","-0.150732"
"N","1617446202.798133","7","44","33","12","68","48","0.709961","0.172729","-0.682068","-0.030518","-0.022901","-0.015267","0","9.23894","2.709595","0.061011","-0.14834","-0.101685","-0.035889","0.044263","-0.046655","-0.171069"
"N","1617446202.7878084","7","50","32","12","67","47","0.710083","0.173035","-0.681824","-0.030396","-0.022901","-0.022901","0","9.192286","2.764624","0.089722","-0.193799","-0.049048","-0.010767","0.005981","0.00957","-0.19978"
"N","1617446202.7778451","7","50","29","6","68","51","0.710205","0.173401","-0.681641","-0.030212","-0.022901","-0.022901","0.007634","9.159986","2.789746","0.102881","-0.224902","-0.027515","0","-0.00957","0.035889","-0.22251"
"N","1617446202.7680092","7","48","29","9","68","48","0.710327","0.173645","-0.681458","-0.030029","-0.015267","-0.015267","0.007634","9.16836","2.77898","0.095703","-0.216528","-0.039478","-0.010767","0.002393","0.025122","-0.217725"
"N","1617446202.7578695","7","49","29","14","64","48","0.710388","0.173767","-0.681335","-0.029968","0","-0.007634","0.007634","9.200659","2.739502","0.077759","-0.183032","-0.080151","-0.031104","0.0323","-0.016748","-0.198584"
"N","1617446202.7479491","7","49","31","10","73","61","0.710449","0.173828","-0.681274","-0.03009","0.007634","0","0","9.243726","2.696435","0.072974","-0.139966","-0.12561","-0.037085","0.050244","-0.070581","-0.169873"
"N","1617446202.7379296","7","50","31","11","70","52","0.710449","0.173706","-0.681274","-0.030273","0.015267","0","0","9.273633","2.660547","0.075366","-0.108862","-0.161499","-0.034692","0.057422","-0.113647","-0.150732"
"N","1617446202.7278602","7","49","29","14","64","48","0.71051","0.173645","-0.681213","-0.030579","0.015267","-0.007634","0","9.260473","2.653369","0.081348","-0.122021","-0.172266","-0.031104","0.055029","-0.120825","-0.166284"
"N","1617446202.7179558","7","47","29","13","66","47","0.710571","0.173584","-0.681152","-0.030823","0.015267","-0.007634","0.007634","9.250903","2.64978","0.096899","-0.130396","-0.178247","-0.017944","0.04187","-0.126807","-0.175854"
"N","1617446202.7080674","7","44","30","16","67","49","0.710693","0.173523","-0.68103","-0.031128","0.007634","-0.007634","0.007634","9.24851","2.655762","0.122021","-0.131592","-0.175854","0.002393","0.021533","-0.128003","-0.175854"
"N","1617446202.697868","7","49","29","12","67","47","0.710815","0.173645","-0.680908","-0.031433","0","-0.007634","0.015267","9.24851","2.685669","0.156714","-0.130396","-0.151929","0.033496","-0.011963","-0.112451","-0.16748"
"N","1617446202.6880963","7","50","29","12","68","49","0.710876","0.173767","-0.680786","-0.031738","0","-0.007634","0.015267","9.259277","2.735913","0.191406","-0.117236","-0.107666","0.066992","-0.052637","-0.081348","-0.142358"
"N","1617446202.6778295","7","52","29","14","64","48","0.710876","0.174072","-0.680664","-0.032104","0","-0.007634","0.022901","9.272436","2.782568","0.212939","-0.101685","-0.070581","0.087329","-0.078955","-0.055029","-0.11604"
"N","1617446202.6681075","7","48","29","12","66","48","0.710815","0.174316","-0.680603","-0.032593","0.007634","0","0.030534","9.283203","2.83999","0.220117","-0.087329","-0.022729","0.094507","-0.093311","-0.015552","-0.088525"
"N","1617446202.6577802","7","48","31","13","68","52","0.710754","0.174683","-0.680603","-0.033203","0.007634","0.007634","0.045802","9.321485","2.890234","0.214136","-0.045459","0.013159","0.090918","-0.094507","0.005981","-0.038281"
"N","1617446202.6481118","7","48","31","11","66","52","0.71051","0.175171","-0.680664","-0.033997","0.007634","0.022901","0.053435","9.384888","2.954834","0.200977","0.021533","0.061011","0.082544","-0.089722","0.033496","0.039478"
"N","1617446202.6379197","7","35","31","13","66","53","0.710205","0.17572","-0.680786","-0.034912","0.007634","0.022901","0.068702","9.426758","3.015845","0.171069","0.069385","0.102881","0.059814","-0.072974","0.063403","0.096899"
"N","1617446202.6280217","7","51","27","13","65","46","0.709839","0.176453","-0.680969","-0.035889","0","0.022901","0.068702","9.442309","3.075659","0.12561","0.092114","0.141162","0.023926","-0.043066","0.099292","0.129199"
"N","1617446202.6178334","7","47","29","13","64","49","0.709473","0.177185","-0.681091","-0.036804","-0.007634","0.022901","0.068702","9.427954","3.140259","0.07417","0.08374","0.184229","-0.017944","-0.010767","0.150732","0.135181"
"N","1617446202.6081028","7","51","32","9","69","48","0.709106","0.177979","-0.681213","-0.037659","-0.007634","0.015267","0.061069","9.380102","3.179736","0.003589","0.043066","0.202173","-0.078955","0.04187","0.191406","0.101685"
"N","1617446202.5978997","7","49","29","12","68","51","0.708862","0.178772","-0.681274","-0.03833","-0.015267","0.015267","0.053435","9.351392","3.195288","-0.062207","0.019141","0.198584","-0.13877","0.099292","0.206958","0.077759"
"N","1617446202.5879169","7","49","29","14","69","48","0.708618","0.179443","-0.681335","-0.038879","-0.015267","0.015267","0.045802","9.329859","3.198877","-0.110059","0.003589","0.186621","-0.18064","0.141162","0.208154","0.058618"
"N","1617446202.577853","7","52","29","13","71","50","0.708435","0.179932","-0.681335","-0.039246","-0.007634","0.007634","0.030534","9.305933","3.177344","-0.143555","-0.015552","0.154321","-0.209351","0.174658","0.19021","0.031104"
"N","1617446202.5680127","7","49","29","13","68","49","0.708313","0.180115","-0.681396","-0.039551","0.007634","0.007634","0.015267","9.28081","3.11394","-0.171069","-0.038281","0.084937","-0.234473","0.210547","0.137573","-0.010767"
"N","1617446202.5580254","7","50","29","12","68","52","0.708252","0.179993","-0.681458","-0.039795","0.022901","0.022901","0","9.30354","3.018237","-0.175854","-0.015552","-0.010767","-0.238062","0.233276","0.04187","-0.019141"
"N","1617446202.547999","7","51","26","12","64","49","0.70813","0.179626","-0.681641","-0.040161","0.030534","0.022901","-0.007634","9.37771","2.941675","-0.151929","0.057422","-0.087329","-0.211743","0.227295","-0.056226","0.025122"
"N","1617446202.5379145","7","49","29","14","68","49","0.708008","0.179199","-0.681885","-0.040527","0.022901","0.022901","-0.015267","9.423169","2.910571","-0.117236","0.102881","-0.117236","-0.173462","0.198584","-0.105273","0.059814"
"N","1617446202.5279572","7","49","27","13","67","48","0.707825","0.178833","-0.682129","-0.040894","0.015267","0.015267","-0.007634","9.427954","2.916553","-0.069385","0.107666","-0.110059","-0.122021","0.147144","-0.110059","0.066992"
"N","1617446202.518047","7","49","30","12","66","51","0.707764","0.17865","-0.682251","-0.041199","0","0.007634","0","9.398046","2.947656","-0.033496","0.077759","-0.081348","-0.08374","0.101685","-0.082544","0.047852"
"N","1617446202.5079486","7","50","31","13","68","48","0.707703","0.178833","-0.682251","-0.041382","-0.015267","-0.007634","0.007634","9.350195","3.01106","0.002393","0.031104","-0.022729","-0.046655","0.05144","-0.020337","0.021533"
"N","1617446202.498101","7","52","29","13","68","52","0.707703","0.17926","-0.682129","-0.041443","-0.030534","-0.015267","0.015267","9.29038","3.106763","0.028711","-0.025122","0.065796","-0.020337","0.005981","0.071777","-0.002393"
"N","1617446202.487975","7","52","31","13","69","53","0.707764","0.17981","-0.681885","-0.041321","-0.030534","-0.022901","0.015267","9.211426","3.16897","0.026318","-0.101685","0.122021","-0.025122","-0.004785","0.149536","-0.058618"
"N","1617446202.478042","7","53","32","14","68","48","0.707886","0.180359","-0.681702","-0.041138","-0.022901","-0.022901","0.007634","9.161181","3.183325","-0.002393","-0.150732","0.130396","-0.056226","0.020337","0.178247","-0.102881"
"N","1617446202.4680233","7","52","31","13","67","49","0.707947","0.180542","-0.681519","-0.040955","-0.007634","-0.007634","0","9.139648","3.145044","-0.038281","-0.171069","0.092114","-0.094507","0.063403","0.155518","-0.133984"
"N","1617446202.4586964","7","45","32","12","84","48","0.708008","0.180481","-0.681519","-0.040833","0.007634","0.007634","-0.007634","9.17793","3.055322","-0.069385","-0.133984","0.004785","-0.126807","0.113647","0.069385","-0.12561"
"N","1617446202.4480186","7","51","29","13","66","49","0.707947","0.180115","-0.681702","-0.040955","0.015267","0.022901","-0.015267","9.258081","2.98833","-0.062207","-0.056226","-0.057422","-0.117236","0.120825","-0.011963","-0.071777"
"N","1617446202.4380336","7","44","29","13","67","51","0.707825","0.179688","-0.681946","-0.041077","0.015267","0.022901","-0.022901","9.309522","2.952441","-0.049048","-0.005981","-0.088525","-0.100488","0.113647","-0.059814","-0.033496"
"N","1617446202.428188","7","49","29","12","67","51","0.707642","0.17926","-0.682251","-0.041199","0.015267","0.022901","-0.015267","9.333447","2.932105","-0.028711","0.014355","-0.104077","-0.075366","0.093311","-0.086133","-0.017944"
"N","1617446202.417966","7","47","27","13","67","49","0.707458","0.178894","-0.682434","-0.041382","0.007634","0.007634","-0.015267","9.328662","2.929712","-0.005981","0.010767","-0.104077","-0.049048","0.066992","-0.089722","-0.021533"
"N","1617446202.4084172","7","49","31","12","69","51","0.707397","0.178772","-0.682556","-0.041565","-0.007634","-0.007634","0","9.285596","2.963208","0.019141","-0.0323","-0.070581","-0.022729","0.0323","-0.05144","-0.052637"
"N","1617446202.3987503","7","50","31","11","70","49","0.707458","0.179016","-0.682434","-0.041626","-0.022901","-0.015267","0.007634","9.220996","3.027808","0.031104","-0.095703","-0.010767","-0.011963","0.007178","0.020337","-0.093311"
"N","1617446202.3880434","7","49","31","-10","70","51","0.70752","0.179504","-0.682251","-0.041504","-0.038168","-0.022901","0.015267","9.169556","3.106763","0.062207","-0.144751","0.062207","0.016748","-0.037085","0.098096","-0.117236"
"N","1617446202.3782103","7","48","31","12","68","49","0.707642","0.179993","-0.682007","-0.04126","-0.030534","-0.022901","0.007634","9.133667","3.141455","0.066992","-0.179443","0.093311","0.017944","-0.046655","0.137573","-0.141162"
"N","1617446202.3688307","7","50","31","12","66","52","0.707764","0.180298","-0.681824","-0.040894","-0.015267","-0.015267","0","9.125293","3.098389","0.057422","-0.187817","0.050244","0.005981","-0.027515","0.101685","-0.162695"
"N","1617446202.358775","7","49","28","10","68","47","0.707825","0.180237","-0.681763","-0.040649","0.007634","-0.007634","-0.015267","9.169556","2.991919","0.034692","-0.144751","-0.05144","-0.017944","0.016748","0","-0.153125"
"N","1617446202.3486807","7","49","28","44","67","47","0.707886","0.179932","-0.681824","-0.040649","0.015267","0","-0.015267","9.224585","2.891431","0.016748","-0.090918","-0.147144","-0.037085","0.057422","-0.101685","-0.131592"
"N","1617446202.3387196","7","51","29","14","64","52","0.707886","0.179565","-0.681885","-0.040771","0.015267","0","-0.015267","9.255689","2.853149","0.023926","-0.061011","-0.183032","-0.029907","0.058618","-0.145947","-0.114844"
"N","1617446202.3288982","7","49","29","11","68","45","0.707947","0.17926","-0.681946","-0.040894","0.015267","0","-0.015267","9.258081","2.851953","0.025122","-0.059814","-0.181836","-0.029907","0.058618","-0.144751","-0.112451"
"N","1617446202.3187902","7","49","33","13","68","52","0.707947","0.179016","-0.681946","-0.041077","0.007634","0","-0.007634","9.256885","2.871094","0.022729","-0.061011","-0.161499","-0.033496","0.058618","-0.124414","-0.107666"
"N","1617446202.3088107","7","49","32","14","67","48","0.708008","0.179016","-0.681885","-0.04126","-0.007634","-0.007634","0","9.264063","2.905786","0.0323","-0.052637","-0.129199","-0.025122","0.044263","-0.099292","-0.089722"
"N","1617446202.298118","7","49","28","13","68","49","0.708008","0.17926","-0.681824","-0.041321","-0.022901","-0.015267","0.007634","9.266455","2.989526","0.043066","-0.049048","-0.050244","-0.014355","0.019141","-0.028711","-0.062207"
"N","1617446202.2887816","7","49","30","11","68","53","0.708008","0.179749","-0.681702","-0.04126","-0.030534","-0.015267","0.015267","9.273633","3.073267","0.04187","-0.040674","0.027515","-0.015552","0.007178","0.040674","-0.029907"
"N","1617446202.2782235","7","49","31","13","66","47","0.708069","0.180237","-0.681519","-0.041077","-0.030534","-0.015267","0.015267","9.273633","3.122314","0.040674","-0.038281","0.071777","-0.017944","0.001196","0.081348","-0.013159"
"N","1617446202.2687924","7","50","31","13","68","48","0.70813","0.180603","-0.681335","-0.040955","-0.007634","-0.022901","0.007634","9.255689","3.122314","0.022729","-0.055029","0.068188","-0.038281","0.020337","0.087329","-0.031104"
"N","1617446202.2587955","7","52","30","15","70","51","0.708313","0.180603","-0.681213","-0.040894","0.015267","-0.015267","0","9.232959","3.063696","0.001196","-0.078955","0.00957","-0.063403","0.053833","0.045459","-0.071777"
"N","1617446202.248839","7","51","30","12","68","47","0.708496","0.180359","-0.681091","-0.041016","0.022901","-0.007634","-0.007634","9.249707","3.000293","-0.014355","-0.062207","-0.05144","-0.084937","0.088525","-0.011963","-0.075366"
"N","1617446202.2380502","7","51","30","10","67","48","0.708618","0.179932","-0.68103","-0.041321","0.022901","0","-0.007634","9.323877","2.983545","-0.010767","0.010767","-0.066992","-0.084937","0.095703","-0.047852","-0.010767"
"N","1617446202.2279816","7","50","28","13","70","49","0.708679","0.179626","-0.68103","-0.041687","0.015267","0","0","9.393262","3.027808","0.021533","0.080151","-0.022729","-0.055029","0.063403","-0.033496","0.068188"
"N","1617446202.218854","7","52","32","13","67","49","0.70874","0.179504","-0.680969","-0.041931","0.007634","-0.007634","0","9.41958","3.082837","0.055029","0.10647","0.028711","-0.023926","0.025122","0","0.108862"
"N","1617446202.2088716","7","47","31","13","68","51","0.708801","0.179443","-0.680908","-0.042114","0","-0.015267","0","9.425562","3.14624","0.105273","0.113647","0.090918","0.022729","-0.031104","0.045459","0.136377"
"N","1617446202.1987886","7","49","32","14","64","45","0.708984","0.179443","-0.680725","-0.042236","0","-0.022901","0","9.407618","3.196484","0.153125","0.095703","0.13877","0.065796","-0.082544","0.086133","0.133984"
"N","1617446202.1887028","7","47","29","12","64","47","0.709167","0.179565","-0.68042","-0.042297","-0.007634","-0.030534","0","9.369336","3.238354","0.193799","0.059814","0.178247","0.100488","-0.126807","0.128003","0.112451"
"N","1617446202.178747","7","49","27","11","67","47","0.709473","0.179688","-0.680115","-0.042175","-0.015267","-0.030534","0","9.319092","3.276636","0.227295","0.00957","0.215332","0.12561","-0.161499","0.172266","0.076563"
"N","1617446202.1688356","7","48","32","14","68","49","0.709717","0.17981","-0.679871","-0.041931","-0.007634","-0.030534","-0.007634","9.270044","3.277832","0.25481","-0.039478","0.217725","0.147144","-0.186621","0.185425","0.031104"
"N","1617446202.1586685","7","49","28","13","68","47","0.709961","0.179626","-0.679688","-0.041626","0.007634","-0.022901","-0.015267","9.237744","3.213233","0.276343","-0.072974","0.159106","0.162695","-0.193799","0.137573","-0.016748"
"N","1617446201.8691266","7","47","27","9","68","51","0.704651","0.180603","-0.68512","-0.03833","0","-0.015267","-0.007634","9.338232","3.027808","-0.00957","0.010767","0.017944","0.028711","-0.029907","0.007178","0.015552"
"N","1617446201.8590546","7","51","31","13","66","49","0.704773","0.18042","-0.685059","-0.038208","0.015267","-0.007634","-0.015267","9.347803","2.985938","0.016748","0.019141","-0.019141","0.052637","-0.046655","-0.033496","0.011963"
"N","1617446201.848986","7","49","31","13","66","48","0.704834","0.180054","-0.685059","-0.038269","0.022901","-0.007634","-0.015267","9.363355","2.947656","0.034692","0.033496","-0.052637","0.068188","-0.053833","-0.071777","0.014355"
"N","1617446201.8389122","7","49","28","12","68","49","0.704956","0.179688","-0.685059","-0.038452","0.022901","-0.007634","-0.015267","9.366943","2.935693","0.035889","0.035889","-0.062207","0.065796","-0.050244","-0.081348","0.014355"
"N","1617446201.8290637","7","48","28","12","62","48","0.705017","0.179382","-0.685059","-0.038635","0.015267","-0.007634","-0.007634","9.35498","2.941675","0.022729","0.023926","-0.055029","0.05144","-0.038281","-0.068188","0.004785"
"N","1617446201.8190117","7","47","28","12","67","47","0.705017","0.17926","-0.685059","-0.038818","0.007634","-0.007634","0","9.333447","2.967993","-0.001196","0.002393","-0.029907","0.026318","-0.019141","-0.033496","-0.005981"
"N","1617446201.808943","7","47","29","12","68","47","0.705078","0.17926","-0.684998","-0.03894","-0.007634","-0.007634","0","9.298755","3.005078","-0.037085","-0.029907","0.004785","-0.00957","0.005981","0.014355","-0.026318"
"N","1617446201.7992437","7","45","29","13","64","49","0.705139","0.179443","-0.684937","-0.038879","-0.015267","-0.015267","0","9.273633","3.049341","-0.062207","-0.055029","0.046655","-0.035889","0.022729","0.066992","-0.037085"
"N","1617446201.7890766","7","49","30","13","68","52","0.705139","0.179626","-0.684814","-0.038757","-0.022901","-0.007634","0","9.244922","3.080444","-0.086133","-0.082544","0.076563","-0.061011","0.039478","0.107666","-0.053833"
"N","1617446201.7790244","7","49","30","14","69","47","0.7052","0.17981","-0.684753","-0.038513","-0.015267","-0.007634","-0.007634","9.235352","3.093604","-0.100488","-0.093311","0.090918","-0.076563","0.05144","0.128003","-0.059814"
"N","1617446201.7689157","7","51","29","13","67","43","0.7052","0.179749","-0.684814","-0.038269","0","0.007634","-0.015267","9.249707","3.064893","-0.105273","-0.080151","0.065796","-0.080151","0.061011","0.100488","-0.055029"
"N","1617446201.7589812","7","50","29","12","68","45","0.705078","0.179382","-0.684998","-0.038086","0.015267","0.015267","-0.022901","9.279614","2.984741","-0.120825","-0.052637","-0.004785","-0.092114","0.087329","0.028711","-0.050244"
"N","1617446201.748929","7","51","31","13","66","47","0.704956","0.178833","-0.685303","-0.038147","0.022901","0.022901","-0.030534","9.320288","2.912964","-0.12561","-0.014355","-0.069385","-0.093311","0.102881","-0.040674","-0.033496"
"N","1617446201.7390742","7","52","30","13","70","47","0.704773","0.178284","-0.685608","-0.038269","0.022901","0.022901","-0.022901","9.338232","2.875879","-0.136377","0.001196","-0.100488","-0.099292","0.11604","-0.07417","-0.028711"
"N","1617446201.729079","7","53","31","10","66","48","0.70459","0.177795","-0.685852","-0.038391","0.015267","0.015267","-0.015267","9.311914","2.871094","-0.150732","-0.025122","-0.099292","-0.110059","0.124414","-0.063403","-0.052637"
"N","1617446201.7189622","7","49","27","11","67","47","0.704529","0.177551","-0.686035","-0.038513","0","0","-0.007634","9.266455","2.886646","-0.169873","-0.071777","-0.082544","-0.126807","0.135181","-0.029907","-0.092114"
"N","1617446201.7090347","7","48","31","10","62","45","0.704529","0.17749","-0.686035","-0.038574","-0.007634","-0.007634","0","9.199463","2.920142","-0.184229","-0.13877","-0.049048","-0.141162","0.13877","0.022729","-0.145947"
"N","1617446201.698971","7","49","29","12","70","48","0.70459","0.177673","-0.685913","-0.038513","-0.022901","-0.007634","0","9.14563","2.977563","-0.186621","-0.192603","0.005981","-0.145947","0.130396","0.090918","-0.18064"
"N","1617446201.6891897","7","48","30","12","67","49","0.704651","0.17804","-0.685791","-0.03833","-0.030534","-0.007634","0.007634","9.143237","3.036182","-0.173462","-0.193799","0.061011","-0.133984","0.107666","0.141162","-0.165088"
"N","1617446201.67898","7","49","28","-1","67","47","0.70459","0.178406","-0.685791","-0.038147","-0.030534","0","0","9.179126","3.054126","-0.142358","-0.15791","0.076563","-0.100488","0.07417","0.137573","-0.12561"
"N","1617446201.669255","7","51","31","13","68","48","0.704529","0.178589","-0.685791","-0.037903","-0.015267","0","-0.007634","9.1875","3.034985","-0.129199","-0.149536","0.058618","-0.084937","0.063403","0.11604","-0.123218"
"N","1617446201.6596692","7","49","31","12","68","48","0.704468","0.178528","-0.685913","-0.03772","0","0.007634","-0.015267","9.201856","2.969189","-0.114844","-0.136377","-0.002393","-0.068188","0.058618","0.05144","-0.129199"
"N","1617446201.6490526","7","50","29","14","67","49","0.704346","0.178284","-0.686035","-0.03772","0.007634","0.015267","-0.015267","9.236547","2.89502","-0.108862","-0.101685","-0.072974","-0.059814","0.065796","-0.025122","-0.118433"
"N","1617446201.6389458","7","49","33","9","68","49","0.704224","0.177917","-0.686279","-0.037781","0.015267","0.015267","-0.015267","9.262866","2.848364","-0.126807","-0.077759","-0.114844","-0.07417","0.089722","-0.068188","-0.107666"
"N","1617446201.6289835","7","51","29","12","66","51","0.704163","0.177612","-0.686462","-0.037903","0.007634","0.007634","-0.015267","9.272436","2.835205","-0.135181","-0.069385","-0.12561","-0.080151","0.098096","-0.080151","-0.102881"
"N","1617446201.6197636","7","49","29","11","68","48","0.704041","0.177429","-0.686523","-0.038025","0","0.007634","-0.007634","9.284399","2.853149","-0.145947","-0.056226","-0.10647","-0.089722","0.104077","-0.0646","-0.084937"
"N","1617446201.6098127","7","47","29","14","65","51","0.703979","0.177368","-0.686646","-0.038086","0","0","-0.007634","9.30354","2.884253","-0.131592","-0.038281","-0.075366","-0.072974","0.08374","-0.044263","-0.058618"
"N","1617446201.5997236","7","48","29","10","67","52","0.703979","0.177307","-0.686646","-0.038147","-0.007634","0","0","9.299952","2.90459","-0.122021","-0.040674","-0.055029","-0.063403","0.069385","-0.026318","-0.053833"
"N","1617446201.5890174","7","50","28","13","68","50","0.703979","0.177429","-0.686584","-0.038208","-0.015267","-0.007634","0","9.296362","2.944067","-0.098096","-0.043066","-0.017944","-0.040674","0.040674","0.003589","-0.045459"
"N","1617446201.5790927","7","52","31","12","69","51","0.703979","0.177612","-0.686584","-0.038208","-0.015267","0","0.007634","9.302343","2.994312","-0.062207","-0.037085","0.028711","-0.003589","-0.003589","0.038281","-0.026318"
"N","1617446201.5690985","7","51","31","10","66","52","0.703918","0.177856","-0.686584","-0.038147","-0.022901","0","0.007634","9.321485","3.017041","-0.04187","-0.017944","0.049048","0.016748","-0.026318","0.046655","-0.001196"
"N","1617446201.559698","7","49","31","13","68","50","0.703857","0.178101","-0.686584","-0.038025","-0.015267","-0.007634","0","9.328662","3.024219","-0.045459","-0.00957","0.055029","0.015552","-0.025122","0.050244","0.007178"
"N","1617446201.5499458","7","51","32","12","70","52","0.703796","0.178345","-0.686584","-0.037964","-0.015267","-0.007634","0","9.315503","3.007471","-0.072974","-0.022729","0.035889","-0.00957","0.001196","0.04187","-0.00957"
"N","1617446201.5389802","7","49","32","10","68","47","0.703796","0.178467","-0.686584","-0.037842","-0.015267","-0.007634","0","9.317896","2.984741","-0.102881","-0.020337","0.013159","-0.038281","0.033496","0.025122","-0.014355"
"N","1617446201.529771","7","49","29","12","66","49","0.703735","0.178589","-0.686584","-0.037781","-0.015267","0","0","9.350195","2.970386","-0.130396","0.011963","-0.001196","-0.0646","0.063403","0.007178","0.010767"
"N","1617446201.5199127","7","51","31","12","68","51","0.703674","0.178711","-0.686646","-0.03772","-0.015267","-0.007634","0","9.362158","2.962012","-0.155518","0.023926","-0.00957","-0.087329","0.088525","0.001196","0.020337"
"N","1617446201.5098035","7","48","31","13","67","52","0.703735","0.178833","-0.686584","-0.037659","-0.007634","-0.007634","-0.007634","9.337036","2.962012","-0.154321","0","-0.010767","-0.087329","0.087329","0.007178","-0.002393"
"N","1617446201.4996607","7","50","29","10","68","48","0.703796","0.178833","-0.686462","-0.037537","-0.007634","-0.007634","-0.007634","9.315503","2.941675","-0.151929","-0.021533","-0.029907","-0.087329","0.089722","-0.003589","-0.028711"
"N","1617446201.489869","7","49","31","13","67","49","0.703918","0.178772","-0.686401","-0.037476","0","-0.007634","-0.007634","9.323877","2.918945","-0.128003","-0.014355","-0.05144","-0.066992","0.07417","-0.029907","-0.028711"
"N","1617446201.4798188","7","49","29","9","71","52","0.703979","0.178711","-0.68634","-0.037476","-0.007634","-0.007634","-0.007634","9.34541","2.916553","-0.092114","0.005981","-0.052637","-0.0323","0.04187","-0.044263","-0.00957"
"N","1617446201.469715","7","47","29","13","67","51","0.703979","0.178772","-0.68634","-0.037415","-0.007634","-0.007634","0","9.343018","2.93689","-0.055029","0.003589","-0.0323","0.003589","0.002393","-0.031104","-0.005981"
"N","1617446201.459838","7","50","29","12","66","49","0.703979","0.178833","-0.686279","-0.037354","-0.007634","-0.007634","0","9.334643","2.9656","-0.04187","-0.003589","-0.003589","0.015552","-0.014355","-0.004785","-0.003589"
"N","1617446201.4497423","7","49","29","14","68","52","0.703979","0.178955","-0.686279","-0.037292","-0.015267","-0.007634","0","9.323877","2.976367","-0.031104","-0.014355","0.004785","0.027515","-0.027515","0.002393","-0.011963"
"N","1617446201.439825","7","50","31","12","70","51","0.703979","0.179077","-0.686279","-0.037292","-0.015267","-0.007634","0","9.307129","2.971582","-0.044263","-0.031104","0","0.014355","-0.015552","0.005981","-0.028711"
"N","1617446201.4298298","7","50","30","13","69","47","0.703979","0.17926","-0.686218","-0.037231","-0.015267","-0.007634","0","9.282007","2.966797","-0.075366","-0.055029","-0.007178","-0.015552","0.013159","0.011963","-0.053833"
"N","1617446201.4198573","7","50","29","13","68","49","0.703979","0.179443","-0.686157","-0.037109","-0.015267","-0.007634","0","9.259277","2.973975","-0.098096","-0.077759","0","-0.038281","0.0323","0.029907","-0.072974"
"N","1617446201.4099824","7","51","29","14","68","48","0.704041","0.179626","-0.686096","-0.036987","-0.015267","-0.007634","-0.007634","9.258081","2.962012","-0.113647","-0.078955","-0.013159","-0.055029","0.05144","0.021533","-0.077759"
"N","1617446201.399901","7","51","32","13","73","55","0.704041","0.179626","-0.686096","-0.036804","-0.007634","0","-0.015267","9.277222","2.92373","-0.120825","-0.059814","-0.049048","-0.062207","0.066992","-0.014355","-0.070581"
"N","1617446201.389996","7","48","31","10","68","49","0.703979","0.179504","-0.686157","-0.036682","0","0","-0.015267","9.302343","2.869897","-0.122021","-0.035889","-0.099292","-0.062207","0.077759","-0.068188","-0.063403"
"N","1617446201.3797977","7","52","31","12","69","51","0.703979","0.179382","-0.686218","-0.036621","0","0.007634","-0.015267","9.332251","2.842383","-0.111255","-0.007178","-0.124414","-0.050244","0.072974","-0.102881","-0.043066"
"N","1617446201.3698602","7","49","30","12","63","52","0.703918","0.17926","-0.686279","-0.036621","-0.007634","0","-0.015267","9.348999","2.861523","-0.089722","0.008374","-0.104077","-0.027515","0.046655","-0.093311","-0.022729"
"N","1617446201.359882","7","49","31","12","68","48","0.703857","0.179199","-0.68634","-0.036499","-0.007634","0","-0.007634","9.353785","2.877075","-0.081348","0.013159","-0.084937","-0.017944","0.034692","-0.078955","-0.011963"
"N","1617446201.3498209","7","49","32","13","66","47","0.703857","0.17926","-0.686401","-0.036499","-0.007634","-0.007634","-0.007634","9.351392","2.889038","-0.077759","0.00957","-0.07417","-0.013159","0.027515","-0.069385","-0.013159"
"N","1617446201.33999","7","51","28","14","70","51","0.703857","0.179321","-0.68634","-0.036438","-0.007634","-0.007634","-0.007634","9.334643","2.89502","-0.089722","-0.004785","-0.068188","-0.025122","0.037085","-0.056226","-0.023926"
"N","1617446201.3300235","7","49","30","14","64","48","0.703918","0.179382","-0.686279","-0.036438","-0.007634","-0.007634","-0.007634","9.328662","2.903394","-0.089722","-0.010767","-0.061011","-0.027515","0.037085","-0.047852","-0.027515"
"N","1617446201.3198712","7","48","33","14","64","48","0.703979","0.179382","-0.686218","-0.036377","-0.007634","-0.007634","-0.007634","9.338232","2.901001","-0.082544","-0.001196","-0.062207","-0.021533","0.0323","-0.052637","-0.019141"
"N","1617446201.309867","7","51","32","13","68","53","0.704102","0.179382","-0.686096","-0.036316","-0.007634","-0.015267","-0.007634","9.341822","2.897412","-0.07417","0","-0.065796","-0.016748","0.028711","-0.057422","-0.019141"
"N","1617446201.3000169","7","51","29","12","68","49","0.704163","0.179382","-0.686035","-0.036255","0","-0.015267","-0.007634","9.334643","2.889038","-0.055029","-0.005981","-0.07417","0","0.013159","-0.066992","-0.027515"
"N","1617446201.2898753","7","47","29","13","62","43","0.704346","0.17926","-0.685913","-0.036194","0","-0.015267","-0.015267","9.32268","2.874683","-0.035889","-0.019141","-0.086133","0.014355","0.001196","-0.076563","-0.044263"
"N","1617446201.27984","7","49","32","13","70","49","0.704468","0.179077","-0.685852","-0.036133","0.007634","-0.007634","-0.015267","9.320288","2.848364","-0.011963","-0.022729","-0.108862","0.034692","-0.013159","-0.101685","-0.053833"
"N","1617446201.2699904","7","49","31","12","63","52","0.704529","0.178833","-0.685791","-0.036133","0.007634","-0.007634","-0.015267","9.304736","2.836401","-0.005981","-0.038281","-0.118433","0.038281","-0.015552","-0.10647","-0.071777"
"N","1617446201.2599766","7","49","31","14","71","51","0.70459","0.17865","-0.685791","-0.036133","0","-0.007634","-0.007634","9.285596","2.857934","0.004785","-0.058618","-0.094507","0.047852","-0.031104","-0.080151","-0.08374"
"N","1617446201.2497976","7","45","29","12","68","47","0.704651","0.178589","-0.68573","-0.036194","-0.007634","-0.007634","-0.007634","9.26167","2.909375","0.001196","-0.081348","-0.043066","0.043066","-0.038281","-0.023926","-0.089722"
"N","1617446201.2400138","7","49","29","10","66","51","0.70459","0.17865","-0.685791","-0.036133","-0.007634","0","0","9.240137","2.975171","-0.001196","-0.104077","0.021533","0.04187","-0.050244","0.04187","-0.092114"
"N","1617446201.2297978","7","51","29","14","70","49","0.704529","0.178772","-0.685852","-0.036133","-0.015267","0","0","9.212622","3.033789","-0.019141","-0.130396","0.078955","0.026318","-0.047852","0.10647","-0.100488"
"N","1617446201.219819","7","49","29","14","70","51","0.704346","0.178955","-0.685974","-0.036133","-0.007634","0.007634","0.007634","9.189893","3.092407","-0.040674","-0.153125","0.135181","0.00957","-0.044263","0.168677","-0.104077"
"N","1617446201.209795","7","50","31","10","68","51","0.704163","0.179016","-0.686157","-0.036194","-0.007634","0.015267","0.007634","9.182714","3.118726","-0.072974","-0.160303","0.160303","-0.016748","-0.022729","0.19978","-0.104077"
"N","1617446201.199997","7","50","30","10","67","49","0.703918","0.179077","-0.686401","-0.036255","0","0.022901","0","9.181519","3.105567","-0.130396","-0.160303","0.145947","-0.066992","0.027515","0.196191","-0.107666"
"N","1617446201.1898","7","49","31","13","68","49","0.703613","0.178894","-0.686707","-0.036377","0.007634","0.022901","-0.007634","9.191089","3.079248","-0.185425","-0.150732","0.122021","-0.114844","0.080151","0.18064","-0.105273"
"N","1617446201.1797853","7","48","26","-4","70","49","0.703369","0.178589","-0.687073","-0.036438","0.022901","0.022901","-0.015267","9.182714","3.007471","-0.24165","-0.161499","0.053833","-0.163892","0.141162","0.130396","-0.136377"
