timestamp,user_id,flex_1,flex_2,flex_3,flex_4,flex_5,Qw,Qx,Qy,Qz,GYRx,GYRy,GYRz,ACCx,ACCy,ACCz,ACCx_body,ACCy_body,ACCz_body,ACCx_world,ACCy_world,ACCz_world,Alphabet
1616135447.3367703,1,21.0,9.0,-10.0,77.0,59.0,0.873047,0.115601,-0.473633,-0.007385,-0.007634,0.007634,0.007634,8.098877,2.06958,5.089014,0.010767,0.022729,-0.05144,0.045459,0.029907,-0.013159,no
1616135447.3468468,1,20.0,8.0,-11.0,76.0,59.0,0.873108,0.115479,-0.473572,-0.007263,-0.007634,-0.007634,0.007634,8.024707,2.068384,5.085425,-0.062207,0.023926,-0.056226,0.00957,0.040674,-0.075366,no
1616135447.3565395,1,21.0,7.0,-11.0,77.0,60.0,0.873047,0.115417,-0.473755,-0.007141,0.0,-0.015267,0.007634,7.993604,2.077954,5.094995,-0.096899,0.035889,-0.044263,-0.019141,0.055029,-0.095703,no
1616135447.3666787,1,21.0,10.0,-5.0,78.0,59.0,0.872864,0.115356,-0.473999,-0.006958,-0.007634,-0.022901,0.015267,7.984033,2.097095,5.104566,-0.108862,0.058618,-0.029907,-0.040674,0.075366,-0.093311,no
1616135447.376663,1,22.0,10.0,-6.0,79.0,59.0,0.872681,0.115234,-0.474365,-0.006836,-0.007634,-0.030534,0.015267,8.010351,2.103076,5.111743,-0.087329,0.068188,-0.016748,-0.040674,0.080151,-0.065796,no
1616135447.3868334,1,21.0,8.0,-7.0,75.0,58.0,0.872498,0.115051,-0.474792,-0.006714,-0.007634,-0.030534,0.015267,8.06897,2.095898,5.116529,-0.034692,0.065796,-0.004785,-0.020337,0.068188,-0.016748,no
1616135447.396681,1,21.0,10.0,-2.0,79.0,58.0,0.872375,0.114807,-0.475037,-0.006592,-0.007634,-0.015267,0.015267,8.141943,2.076758,5.12251,0.033496,0.05144,0.003589,0.00957,0.044263,0.039478,no
1616135447.4065711,1,22.0,9.0,-7.0,73.0,58.0,0.872375,0.114563,-0.475159,-0.006409,-0.007634,-0.007634,0.015267,8.173047,2.068384,5.09978,0.062207,0.049048,-0.016748,0.043066,0.043066,0.052637,no
1616135447.4167469,1,21.0,10.0,-7.0,70.0,58.0,0.872375,0.11438,-0.47522,-0.006165,-0.007634,0.0,0.015267,8.134766,2.070776,5.065088,0.022729,0.057422,-0.05144,0.049048,0.062207,0.003589,no
1616135447.426664,1,18.0,7.0,-8.0,73.0,58.0,0.872314,0.114197,-0.475342,-0.005981,-0.007634,-0.007634,0.015267,8.074951,2.052832,5.029199,-0.038281,0.044263,-0.086133,0.045459,0.063403,-0.066992,no
1616135447.43661,1,19.0,8.0,-7.0,74.0,61.0,0.872192,0.114075,-0.475647,-0.005798,-0.007634,-0.022901,0.015267,8.04624,2.020532,4.999292,-0.071777,0.015552,-0.111255,0.05144,0.044263,-0.113647,no
1616135447.446762,1,22.0,8.0,-7.0,72.0,58.0,0.871948,0.113953,-0.476013,-0.005554,0.0,-0.030534,0.015267,8.024707,2.001392,4.972974,-0.096899,0.001196,-0.129199,0.053833,0.037085,-0.147144,no
1616135447.4565923,1,20.0,9.0,-6.0,74.0,58.0,0.871704,0.113892,-0.476562,-0.00531,0.0,-0.038168,0.015267,8.017529,2.01814,4.953833,-0.112451,0.021533,-0.139966,0.052637,0.061011,-0.161499,no
1616135447.4665518,1,21.0,10.0,-8.0,76.0,58.0,0.871399,0.113831,-0.477112,-0.005188,-0.007634,-0.038168,0.015267,8.055811,2.028906,4.957422,-0.081348,0.035889,-0.12561,0.056226,0.068188,-0.124414,no
1616135447.4767137,1,19.0,7.0,-6.0,77.0,58.0,0.871155,0.113647,-0.4776,-0.005005,-0.007634,-0.030534,0.015267,8.121607,2.015747,4.962207,-0.021533,0.027515,-0.112451,0.078955,0.050244,-0.069385,no
1616135447.4866323,1,22.0,10.0,-7.0,75.0,58.0,0.871033,0.113403,-0.477905,-0.004761,-0.007634,-0.015267,0.015267,8.173047,1.996606,4.947852,0.023926,0.015552,-0.123218,0.113647,0.035889,-0.040674,no
1616135447.4965584,1,21.0,9.0,-7.0,76.0,58.0,0.871033,0.113159,-0.477966,-0.004456,-0.007634,0.007634,0.022901,8.214917,1.982251,4.943067,0.0646,0.008374,-0.128003,0.139966,0.025122,-0.010767,no
1616135447.5065382,1,21.0,10.0,-5.0,75.0,61.0,0.871155,0.112976,-0.477722,-0.004089,-0.007634,0.022901,0.022901,8.189795,1.987036,4.913159,0.04187,0.019141,-0.162695,0.155518,0.044263,-0.045459,no
1616135447.5164669,1,22.0,10.0,-5.0,73.0,58.0,0.871399,0.112793,-0.477417,-0.003723,-0.007634,0.030534,0.022901,8.10127,1.993018,4.873682,-0.044263,0.031104,-0.209351,0.145947,0.075366,-0.13877,no
1616135447.526744,1,-3.0,7.0,-7.0,77.0,59.0,0.871582,0.112488,-0.477112,-0.003418,-0.015267,0.015267,0.022901,8.00437,1.984644,4.844971,-0.137573,0.029907,-0.244043,0.124414,0.090918,-0.234473,no
1616135447.536538,1,21.0,8.0,-6.0,76.0,58.0,0.871643,0.112183,-0.477051,-0.003113,-0.015267,0.007634,0.022901,7.944556,1.951147,4.824634,-0.198584,0.004785,-0.266772,0.112451,0.077759,-0.302661,no
1616135447.546625,1,21.0,9.0,-7.0,80.0,61.0,0.871643,0.111816,-0.477112,-0.002808,-0.015267,-0.007634,0.022901,7.924219,1.9021,4.824634,-0.220117,-0.033496,-0.266772,0.105273,0.043066,-0.327783,no
1616135447.5564034,1,20.0,9.0,-10.0,74.0,58.0,0.871582,0.11145,-0.477356,-0.002502,-0.015267,-0.015267,0.022901,7.931396,1.866211,4.842578,-0.217725,-0.061011,-0.246436,0.092114,0.010767,-0.320605,no
1616135447.5666463,1,20.0,10.0,-3.0,77.0,58.0,0.871399,0.111145,-0.477783,-0.002319,-0.015267,-0.030534,0.015267,7.967285,1.849463,4.862915,-0.187817,-0.069385,-0.220117,0.087329,-0.004785,-0.283521,no
1616135447.5765986,1,21.0,7.0,-10.0,78.0,58.0,0.871216,0.110779,-0.47821,-0.002136,-0.015267,-0.030534,0.015267,8.06897,1.821948,4.868896,-0.092114,-0.088525,-0.206958,0.131592,-0.035889,-0.200977,no
1616135447.5865846,1,21.0,8.0,-6.0,78.0,58.0,0.871094,0.110413,-0.478577,-0.002014,-0.015267,-0.015267,0.007634,8.181421,1.787256,4.882056,0.014355,-0.11604,-0.19021,0.178247,-0.077759,-0.108862,no
1616135447.596666,1,22.0,7.0,-8.0,77.0,59.0,0.871033,0.110107,-0.478699,-0.001831,-0.015267,0.0,0.007634,8.321386,1.781274,4.9,0.151929,-0.114844,-0.169873,0.235669,-0.095703,0.015552,no
1616135447.6066976,1,21.0,9.0,-6.0,75.0,58.0,0.871094,0.109924,-0.478638,-0.001648,-0.007634,0.015267,0.007634,8.338135,1.796826,4.8677,0.168677,-0.094507,-0.204565,0.271558,-0.070581,0.015552,no
1616135447.6164477,1,22.0,9.0,-8.0,76.0,59.0,0.871155,0.109741,-0.478516,-0.001526,-0.007634,0.015267,0.007634,8.340528,1.820752,4.848559,0.172266,-0.066992,-0.226099,0.288306,-0.040674,0.013159,no
1616135447.626503,1,21.0,7.0,-10.0,79.0,58.0,0.871216,0.109619,-0.478455,-0.001404,-0.007634,0.007634,0.007634,8.351294,1.844678,4.85813,0.184229,-0.039478,-0.218921,0.285913,-0.016748,0.0323,no
1616135447.6364594,1,20.0,9.0,-8.0,75.0,59.0,0.871216,0.109497,-0.478455,-0.001282,-0.007634,0.0,0.007634,8.359668,1.863818,4.879663,0.191406,-0.017944,-0.197388,0.269165,0.0,0.052637,no
1616135447.646574,1,22.0,9.0,-6.0,78.0,60.0,0.871216,0.109314,-0.478577,-0.001099,-0.007634,-0.007634,0.015267,8.330957,1.891333,4.885644,0.160303,0.014355,-0.19021,0.244043,0.0323,0.037085,no
1616135447.656445,1,20.0,5.0,-7.0,76.0,58.0,0.871094,0.109192,-0.478821,-0.000854,-0.007634,-0.022901,0.015267,8.345312,1.924829,4.950244,0.171069,0.05144,-0.122021,0.189014,0.055029,0.088525,no
1616135447.666616,1,22.0,9.0,-6.0,75.0,58.0,0.870911,0.108948,-0.479187,-0.000671,-0.007634,-0.022901,0.022901,8.348902,1.961914,4.999292,0.169873,0.095703,-0.066992,0.137573,0.087329,0.124414,no
1616135447.6765587,1,19.0,7.0,-9.0,78.0,57.0,0.870728,0.108704,-0.479553,-0.000427,-0.015267,-0.030534,0.022901,8.353686,1.989429,5.047143,0.169873,0.129199,-0.013159,0.088525,0.110059,0.159106,no
1616135447.686419,1,20.0,6.0,-6.0,75.0,58.0,0.870483,0.108337,-0.480103,-0.000122,-0.015267,-0.038168,0.030534,8.405127,2.000195,5.115332,0.212939,0.149536,0.062207,0.046655,0.111255,0.238062,no
1616135447.6965806,1,19.0,7.0,-6.0,76.0,61.0,0.8703,0.107849,-0.48053,0.000183,-0.015267,-0.030534,0.038168,8.490064,1.998999,5.160791,0.291895,0.160303,0.114844,0.044263,0.104077,0.332568,no
1616135447.7064545,1,21.0,9.0,-10.0,75.0,59.0,0.870117,0.107422,-0.480896,0.000671,-0.015267,-0.022901,0.038168,8.524755,1.98584,5.160791,0.321802,0.159106,0.119629,0.055029,0.099292,0.360083,no
1616135447.7163637,1,21.0,9.0,-6.0,77.0,58.0,0.869995,0.107056,-0.481201,0.00116,-0.007634,-0.015267,0.038168,8.487671,1.971484,5.128491,0.278735,0.156714,0.092114,0.055029,0.107666,0.308643,no
1616135447.7264895,1,21.0,8.0,-6.0,73.0,61.0,0.869873,0.10675,-0.481567,0.001709,-0.007634,-0.022901,0.038168,8.406323,1.965503,5.093799,0.191406,0.161499,0.062207,0.0323,0.126807,0.221313,no
1616135447.736427,1,22.0,8.0,-10.0,76.0,58.0,0.869629,0.106506,-0.482117,0.002197,-0.007634,-0.038168,0.038168,8.308228,1.977466,5.05791,0.084937,0.181836,0.034692,-0.002393,0.162695,0.122021,no
1616135447.746304,1,20.0,6.0,-8.0,73.0,58.0,0.869263,0.106201,-0.482788,0.002441,-0.015267,-0.053435,0.030534,8.265162,2.040869,5.05791,0.033496,0.253613,0.046655,-0.047852,0.235669,0.098096,no
1616135447.7562912,1,21.0,9.0,-7.0,74.0,60.0,0.868835,0.105652,-0.483643,0.002502,-0.038168,-0.061069,0.030534,8.279516,2.01814,5.03877,0.038281,0.24165,0.04187,-0.039478,0.223706,0.096899,no
1616135447.7664778,1,21.0,8.0,-8.0,74.0,59.0,0.868408,0.104919,-0.484558,0.002686,-0.038168,-0.061069,0.038168,8.299853,1.914062,5.002881,0.046655,0.153125,0.020337,-0.008374,0.141162,0.076563,no
1616135447.7763565,1,22.0,8.0,-6.0,80.0,60.0,0.868042,0.104065,-0.485474,0.003113,-0.022901,-0.061069,0.045802,8.303442,1.804004,4.949048,0.037085,0.062207,-0.019141,0.028711,0.059814,0.0323,no
1616135447.7865489,1,21.0,9.0,-10.0,78.0,58.0,0.867615,0.103455,-0.486328,0.003723,-0.007634,-0.053435,0.045802,8.322583,1.720264,4.90957,0.044263,-0.002393,-0.044263,0.059814,0.001196,0.014355,no
1616135447.796417,1,19.0,9.0,-5.0,68.0,59.0,0.867188,0.103088,-0.487122,0.004456,0.007634,-0.045802,0.045802,8.324976,1.681982,4.866504,0.035889,-0.027515,-0.072974,0.082544,-0.016748,-0.010767,no
1616135447.8065274,1,19.0,8.0,-7.0,76.0,61.0,0.866882,0.102844,-0.487732,0.005249,0.007634,-0.038168,0.045802,8.274732,1.677197,4.807886,-0.022729,-0.019141,-0.122021,0.092114,0.004785,-0.08374,no
1616135447.8164096,1,21.0,9.0,-8.0,80.0,59.0,0.866516,0.102661,-0.488403,0.006042,0.007634,-0.038168,0.045802,8.19458,1.685571,4.737305,-0.112451,0.0,-0.179443,0.092114,0.043066,-0.184229,no
1616135447.826517,1,22.0,8.0,-7.0,76.0,58.0,0.86615,0.102417,-0.489136,0.006714,0.0,-0.053435,0.045802,8.12041,1.695142,4.665527,-0.196191,0.020337,-0.239258,0.096899,0.080151,-0.282324,no
1616135447.8363245,1,21.0,8.0,-7.0,76.0,58.0,0.865662,0.102051,-0.490051,0.007324,-0.007634,-0.061069,0.045802,8.0917,1.678394,4.600928,-0.236865,0.016748,-0.287109,0.117236,0.089722,-0.340942,no
1616135447.8465004,1,21.0,10.0,-7.0,75.0,59.0,0.865112,0.101562,-0.491089,0.007874,-0.015267,-0.068702,0.045802,8.053418,1.644897,4.527954,-0.288306,-0.001196,-0.342139,0.139966,0.086133,-0.415112,no
1616135447.8564262,1,22.0,8.0,-7.0,76.0,58.0,0.864502,0.101135,-0.49231,0.008301,-0.015267,-0.083969,0.038168,7.998389,1.591064,4.423877,-0.358887,-0.04187,-0.424683,0.18064,0.066992,-0.522778,no
1616135447.8663309,1,21.0,9.0,-6.0,74.0,58.0,0.863708,0.100769,-0.493774,0.008545,-0.007634,-0.099237,0.030534,8.00437,1.530054,4.362866,-0.37085,-0.092114,-0.459375,0.210547,0.023926,-0.557471,no
1616135447.876472,1,19.0,10.0,-6.0,75.0,58.0,0.862854,0.100464,-0.4953,0.008789,-0.007634,-0.099237,0.022901,8.103662,1.467847,4.355689,-0.289502,-0.144751,-0.437842,0.24165,-0.037085,-0.485693,no
1616135447.886534,1,19.0,8.0,-6.0,79.0,61.0,0.862061,0.100159,-0.496643,0.009033,-0.007634,-0.083969,0.015267,8.280713,1.454687,4.349707,-0.128003,-0.149536,-0.417505,0.308643,-0.059814,-0.337354,no
1616135447.8964903,1,20.0,10.0,-6.0,75.0,59.0,0.861511,0.099976,-0.497681,0.009216,-0.007634,-0.053435,0.015267,8.53313,1.526465,4.360474,0.111255,-0.071777,-0.387598,0.395972,-0.008374,-0.102881,no
1616135447.9065237,1,21.0,9.0,-6.0,77.0,59.0,0.861267,0.099792,-0.498169,0.009399,-0.015267,0.0,0.015267,8.805883,1.655664,4.383203,0.376831,0.062207,-0.356494,0.48689,0.093311,0.161499,no
1616135447.915738,1,22.0,10.0,-8.0,75.0,60.0,0.861389,0.09967,-0.497986,0.009644,-0.007634,0.038168,0.015267,9.058301,1.680786,4.470532,0.631641,0.092114,-0.27395,0.541919,0.087329,0.424683,no
1616135447.92565,1,20.0,9.0,-8.0,75.0,58.0,0.861572,0.099426,-0.49762,0.010254,0.007634,0.030534,0.030534,9.014038,1.579102,4.463355,0.58977,0.0,-0.288306,0.543115,0.003589,0.366064,no
1616135447.9356215,1,21.0,9.0,-6.0,76.0,59.0,0.861206,0.099609,-0.49823,0.011902,0.083969,-0.053435,0.091603,8.823828,1.404443,4.374829,0.38999,-0.160303,-0.364868,0.527563,-0.120825,0.132788,no
1616135447.9457226,1,20.0,5.0,-6.0,73.0,58.0,0.859741,0.100159,-0.500549,0.014893,0.137405,-0.167939,0.167939,8.61687,1.454687,4.293481,0.151929,-0.086133,-0.398364,0.427075,-0.020337,-0.072974,no
1616135447.9563603,1,20.0,12.0,-3.0,75.0,59.0,0.857788,0.100647,-0.503723,0.018127,0.114504,-0.221374,0.19084,8.380005,1.618579,4.127197,-0.124414,0.105273,-0.500049,0.354102,0.206958,-0.327783,no
1616135447.9655955,1,21.0,10.0,-3.0,76.0,61.0,0.856079,0.100159,-0.506592,0.020569,0.022901,-0.160305,0.160305,7.842871,1.476221,4.069776,-0.697437,0.0,-0.502441,0.094507,0.142358,-0.842188,no
1616135447.9758377,1,22.0,15.0,-1.0,73.0,58.0,0.855774,0.098145,-0.507568,0.020386,-0.167939,-0.038168,0.007634,7.190894,1.641309,2.794531,-1.361377,0.197388,-1.766919,0.842188,0.614893,-1.981055,no
1616135447.9857342,1,22.0,13.0,0.0,76.0,59.0,0.855591,0.096313,-0.508301,0.0177,-0.198473,0.015267,-0.10687,7.997192,1.051538,3.121118,-0.559863,-0.386401,-1.431958,1.019238,-0.078955,-1.210644,no
1616135447.9956937,1,21.0,12.0,-1.0,74.0,60.0,0.856506,0.094116,-0.507263,0.01532,-0.175573,0.145038,-0.122137,8.309423,0.596948,3.040967,-0.234473,-0.830225,-1.542017,1.321899,-0.525171,-1.045557,no
1616135448.005639,1,21.0,15.0,-1.0,76.0,60.0,0.858215,0.092773,-0.5047,0.013306,-0.114504,0.236641,-0.137405,8.405127,0.327783,3.13667,-0.107666,-1.100586,-1.501343,1.372144,-0.813477,-0.964209,no
1616135448.0164006,1,20.0,12.0,-1.0,76.0,59.0,0.860535,0.092651,-0.500732,0.011353,-0.053435,0.305344,-0.167939,8.24602,0.285913,3.30415,-0.220117,-1.165186,-1.412817,1.235767,-0.88645,-1.041968,no
1616135448.0263274,1,20.0,13.0,-1.0,77.0,59.0,0.863098,0.093567,-0.496155,0.009338,-0.007634,0.320611,-0.19084,7.926611,0.339746,3.542212,-0.483301,-1.152026,-1.259692,0.955835,-0.879272,-1.207056,no
1616135448.035666,1,22.0,13.0,-1.0,74.0,60.0,0.865662,0.095032,-0.491455,0.007202,0.015267,0.29771,-0.206107,7.639502,0.460571,3.843677,-0.711792,-1.081445,-1.04436,0.632837,-0.824243,-1.296777,no
1616135448.0457473,1,22.0,13.0,-1.0,77.0,61.0,0.868042,0.096985,-0.486816,0.0047,0.022901,0.282443,-0.244275,7.479199,0.600537,4.182227,-0.811084,-1.003687,-0.787158,0.340942,-0.777588,-1.248926,no
1616135448.055559,1,20.0,13.0,-1.0,72.0,58.0,0.870361,0.099487,-0.482239,0.00177,0.053435,0.274809,-0.290076,7.364356,0.610107,4.443017,-0.864917,-1.069482,-0.604126,0.149536,-0.861328,-1.220215,no
1616135448.0656953,1,22.0,13.0,-1.0,76.0,59.0,0.872437,0.102844,-0.477783,-0.001038,0.114504,0.259542,-0.312977,7.225586,0.517993,4.614087,-0.94148,-1.250122,-0.503638,0.028711,-1.038379,-1.272852,no
1616135448.0758276,1,21.0,13.0,-1.0,73.0,59.0,0.874084,0.107422,-0.473694,-0.003418,0.206107,0.229008,-0.320611,7.013843,0.467749,4.760034,-1.093408,-1.403247,-0.415112,-0.123218,-1.175952,-1.391284,no
1616135448.0856867,1,19.0,12.0,-1.0,74.0,58.0,0.875244,0.113281,-0.470215,-0.005127,0.29771,0.160305,-0.312977,6.742285,0.605322,4.94187,-1.312329,-1.384106,-0.272754,-0.372046,-1.143652,-1.504932,no
1616135448.095814,1,19.0,10.0,-6.0,72.0,62.0,0.875732,0.120117,-0.467468,-0.006409,0.343511,0.10687,-0.290076,6.627441,1.063501,5.239746,-1.380518,-1.056323,0.005981,-0.674707,-0.855347,-1.353003,no
1616135448.1056333,1,19.0,10.0,-7.0,71.0,58.0,0.876221,0.126587,-0.464844,-0.007996,0.259542,0.10687,-0.259542,6.763818,1.971484,5.571118,-1.198682,-0.275146,0.320605,-0.912769,-0.177051,-0.864917,no
1616135448.115556,1,19.0,9.0,-12.0,75.0,58.0,0.877075,0.13092,-0.461975,-0.010559,0.061069,0.145038,-0.21374,7.071265,3.057715,5.836694,-0.842188,0.710596,0.556274,-1.007275,0.680689,-0.209351,no
1616135448.1257548,1,19.0,8.0,-10.0,73.0,58.0,0.878601,0.13208,-0.458618,-0.01416,-0.160305,0.175573,-0.175573,7.387085,3.817358,6.101074,-0.47373,1.41521,0.765625,-1.030005,1.265674,0.382812,no
1616135448.135788,1,20.0,4.0,-14.0,72.0,58.0,0.880737,0.129944,-0.455078,-0.018555,-0.343511,0.19084,-0.145038,7.579688,4.170264,6.285303,-0.228491,1.760937,0.874487,-0.989331,1.549194,0.733325,no
1616135448.145578,1,17.0,5.0,-16.0,76.0,58.0,0.882935,0.125305,-0.451843,-0.023315,-0.458015,0.167939,-0.10687,7.68855,4.050635,6.302051,-0.072974,1.674805,0.811084,-0.814673,1.469043,0.801514,no
1616135448.1555471,1,17.0,1.0,-18.0,72.0,55.0,0.884888,0.119324,-0.449341,-0.027649,-0.480916,0.122137,-0.076336,7.83689,3.561352,6.183618,0.107666,1.24773,0.619678,-0.504834,1.077856,0.730933,no
1616135448.165799,1,15.0,-1.0,-21.0,73.0,57.0,0.886353,0.113464,-0.447693,-0.03125,-0.40458,0.091603,-0.068702,8.10127,2.938086,6.213525,0.392383,0.692651,0.594556,-0.272754,0.508423,0.807495,no
1616135448.1757038,1,22.0,-1.0,-18.0,76.0,58.0,0.887512,0.109314,-0.44635,-0.033752,-0.251908,0.076336,-0.061069,8.34292,2.357886,6.24104,0.650781,0.160303,0.579004,-0.078955,-0.040674,0.880469,no
1616135448.1856546,1,17.0,0.0,-20.0,74.0,58.0,0.888062,0.107605,-0.445557,-0.034912,-0.061069,0.038168,-0.061069,8.590551,1.936792,6.342725,0.907983,-0.240454,0.660352,0.025122,-0.483301,1.040771,no
1616135448.1957536,1,17.0,-1.0,-22.0,73.0,58.0,0.888123,0.108032,-0.445312,-0.034668,0.083969,0.015267,-0.030534,8.866895,1.867407,6.519775,1.187915,-0.314624,0.83501,0.057422,-0.628052,1.344629,no
1616135448.205589,1,15.0,1.0,-22.0,72.0,57.0,0.887939,0.109985,-0.445374,-0.033264,0.167939,0.0,0.022901,9.217407,2.063599,6.743482,1.537231,-0.139966,1.068286,0.076563,-0.553882,1.790845,no
1616135448.2155402,1,17.0,3.0,-16.0,76.0,58.0,0.88739,0.11261,-0.445984,-0.030273,0.251908,-0.038168,0.114504,9.305933,2.255005,6.921729,1.61499,0.031104,1.268066,-0.044263,-0.437842,2.004981,no
1616135448.2256627,1,17.0,7.0,-15.0,74.0,58.0,0.88623,0.115417,-0.447815,-0.025574,0.29771,-0.145038,0.229008,8.964991,2.573218,6.913354,1.244141,0.343335,1.305151,-0.319409,-0.087329,1.804004,no
1616135448.2354798,1,19.0,10.0,-10.0,74.0,62.0,0.884338,0.117493,-0.451294,-0.019531,0.274809,-0.251908,0.358779,8.58816,3.012256,6.964795,0.809888,0.80271,1.427173,-0.723755,0.393579,1.629346,no
1616135448.2455752,1,18.0,13.0,-6.0,73.0,58.0,0.882141,0.118408,-0.455566,-0.012939,0.21374,-0.290076,0.427481,8.017529,3.421387,6.815259,0.169873,1.258496,1.357788,-1.102978,0.931909,1.168774,no
1616135448.2555568,1,26.0,13.0,-2.0,73.0,58.0,0.880127,0.118164,-0.459656,-0.006897,0.114504,-0.282443,0.419847,6.725537,3.371143,6.513794,-1.186719,1.270459,1.129297,-1.722656,1.149634,-0.0646,no
1616135448.2653575,1,16.0,13.0,-2.0,73.0,58.0,0.879211,0.116089,-0.462036,-0.00293,-0.068702,-0.175573,0.282443,5.365356,3.578101,4.752856,-2.589966,1.550391,-0.598145,-1.155615,1.920044,-2.107861,no
1616135448.2753472,1,21.0,12.0,-2.0,80.0,64.0,0.877502,0.114624,-0.465637,-0.002136,-0.091603,-0.19084,0.137405,7.055713,2.964404,5.683569,-0.947461,0.972583,0.38999,-0.954639,0.973779,-0.364868,no
1616135448.2856443,1,21.0,13.0,-1.0,74.0,61.0,0.877502,0.111389,-0.466492,-0.000305,-0.10687,0.053435,0.167939,8.182617,2.60791,5.615381,0.159106,0.689062,0.322998,-0.245239,0.592163,0.439038,no
1616135448.2955558,1,22.0,13.0,-1.0,73.0,60.0,0.878845,0.108521,-0.4646,0.001892,-0.099237,0.229008,0.160305,8.56543,2.314819,5.422778,0.557471,0.461768,0.08374,0.19978,0.379224,0.587378,no
1616135448.3053906,1,19.0,13.0,-1.0,73.0,59.0,0.881287,0.106384,-0.460449,0.003174,-0.10687,0.358779,0.068702,8.546289,2.211938,5.21582,0.586182,0.401953,-0.206958,0.462964,0.378027,0.435449,no
1616135448.3155866,1,22.0,15.0,-2.0,77.0,60.0,0.884277,0.104736,-0.455017,0.003296,-0.114504,0.40458,0.0,8.180224,2.006177,5.031592,0.287109,0.220117,-0.494067,0.543115,0.282324,-0.007178,no
1616135448.3255212,1,21.0,13.0,-1.0,75.0,58.0,0.887146,0.10321,-0.449707,0.002869,-0.114504,0.351145,-0.038168,7.473218,1.623364,4.824634,-0.351709,-0.145947,-0.801514,0.443823,0.035889,-0.766821,no
1616135448.335646,1,22.0,15.0,-1.0,73.0,58.0,0.889282,0.102173,-0.44574,0.002014,-0.068702,0.221374,-0.083969,6.839185,1.125708,4.703809,-0.933105,-0.636426,-0.996509,0.287109,-0.35769,-1.433154,no
1616135448.3456843,1,21.0,15.0,-4.0,72.0,59.0,0.890381,0.102234,-0.443481,0.000732,0.007634,0.10687,-0.145038,6.480298,0.6125,4.63562,-1.259692,-1.165186,-1.102978,0.212939,-0.825439,-1.851856,no
1616135448.355554,1,22.0,13.0,-1.0,72.0,60.0,0.890625,0.103943,-0.442749,-0.000671,0.114504,0.007634,-0.19084,6.269751,0.100488,4.59375,-1.45708,-1.719067,-1.152026,0.178247,-1.332666,-2.14375,no
1616135448.3655422,1,22.0,14.0,-1.0,74.0,60.0,0.889832,0.107483,-0.44342,-0.001648,0.251908,-0.10687,-0.206107,6.079541,-0.246436,4.599731,-1.649683,-2.13418,-1.119727,0.080151,-1.709497,-2.365063,no
1616135448.3756428,1,22.0,13.0,-1.0,75.0,60.0,0.888,0.112915,-0.445679,-0.001892,0.366412,-0.221374,-0.19084,6.029297,-0.230884,4.720557,-1.722656,-2.211938,-0.935498,-0.081348,-1.789648,-2.349512,no
1616135448.3856597,1,22.0,13.0,-1.0,74.0,62.0,0.885437,0.119507,-0.449158,-0.001526,0.419847,-0.29771,-0.152672,6.299658,0.250024,4.981348,-1.490576,-1.836304,-0.583789,-0.23208,-1.496558,-1.906885,no
1616135448.3956923,1,22.0,11.0,-4.0,73.0,58.0,0.88269,0.126038,-0.452698,-0.000793,0.374046,-0.259542,-0.099237,7.005469,1.125708,5.400049,-0.824243,-1.061108,-0.070581,-0.309839,-0.916357,-0.934302,no
1616135448.4055235,1,22.0,11.0,-6.0,75.0,58.0,0.881165,0.130554,-0.454407,-0.000366,0.19084,-0.099237,-0.045802,7.802197,2.253808,5.867798,-0.044263,-0.003589,0.448608,-0.384009,-0.100488,0.211743,no
1616135448.4155214,1,20.0,10.0,-9.0,73.0,58.0,0.881226,0.132019,-0.453857,-0.000977,-0.038168,0.053435,-0.022901,8.261572,3.182129,6.109448,0.424683,0.892432,0.687866,-0.405542,0.649585,0.92832,no
1616135448.425614,1,17.0,9.0,-11.0,72.0,58.0,0.882568,0.130493,-0.45166,-0.002625,-0.229008,0.160305,-0.015267,8.504419,3.655859,6.26018,0.697437,1.374536,0.791943,-0.374438,1.061108,1.317114,no
1616135448.435491,1,20.0,5.0,-11.0,74.0,58.0,0.884644,0.126465,-0.44873,-0.005005,-0.358779,0.198473,-0.007634,8.479297,3.718066,6.28291,0.710596,1.481006,0.742895,-0.320605,1.18313,1.320703,no
1616135448.4454613,1,20.0,4.0,-13.0,73.0,59.0,0.886719,0.121216,-0.445984,-0.007568,-0.396947,0.167939,0.0,8.240039,3.391479,6.172852,0.50603,1.217822,0.559863,-0.253613,1.003687,0.989331,no
1616135448.4555292,1,18.0,0.0,-14.0,75.0,58.0,0.888245,0.115906,-0.444336,-0.009644,-0.343511,0.091603,0.015267,8.051025,2.796924,5.993408,0.336157,0.695044,0.326587,-0.114844,0.57063,0.601733,no
1616135448.4655166,1,20.0,5.0,-16.0,73.0,58.0,0.889038,0.111877,-0.443787,-0.010559,-0.206107,0.030534,0.030534,8.0271,2.138965,5.854639,0.317017,0.096899,0.160303,0.056226,0.026318,0.362476,no
1616135448.4755962,1,20.0,5.0,-12.0,79.0,58.0,0.889221,0.109619,-0.444031,-0.010193,-0.061069,-0.007634,0.045802,8.08811,1.72146,5.803198,0.37085,-0.277539,0.102881,0.163892,-0.332568,0.294287,no
1616135448.485597,1,17.0,3.0,-14.0,73.0,58.0,0.88916,0.109192,-0.444336,-0.009094,0.030534,-0.007634,0.045802,8.123999,1.684375,5.790039,0.399561,-0.29668,0.092114,0.192603,-0.351709,0.307446,no
1616135448.4955115,1,19.0,3.0,-12.0,72.0,55.0,0.888977,0.109741,-0.444458,-0.007935,0.061069,-0.007634,0.045802,8.108447,1.940381,5.816358,0.38042,-0.040674,0.124414,0.133984,-0.105273,0.363672,no
1616135448.5054896,1,17.0,5.0,-12.0,75.0,58.0,0.888916,0.110352,-0.444458,-0.007141,0.030534,0.0,0.045802,7.978052,2.234668,5.813965,0.248828,0.248828,0.124414,0.029907,0.191406,0.318213,no
1616135448.5153909,1,21.0,4.0,-11.0,74.0,58.0,0.888916,0.110352,-0.444519,-0.006775,-0.022901,-0.015267,0.038168,7.760327,2.428467,5.782861,0.029907,0.446216,0.094507,-0.094507,0.413916,0.16748,no
1616135448.5253973,1,21.0,5.0,-14.0,74.0,58.0,0.888794,0.10968,-0.444946,-0.006897,-0.068702,-0.045802,0.030534,7.602417,2.507422,5.757739,-0.132788,0.535937,0.072974,-0.183032,0.522778,0.044263,no
1616135448.535624,1,17.0,4.0,-13.0,73.0,58.0,0.888489,0.108521,-0.445862,-0.007324,-0.099237,-0.083969,0.022901,7.58208,2.463159,5.742188,-0.166284,0.508423,0.068188,-0.196191,0.501245,0.008374,no
1616135448.5454571,1,17.0,4.0,-12.0,76.0,58.0,0.888,0.106873,-0.447083,-0.007812,-0.10687,-0.091603,0.030534,7.641894,2.308838,5.689551,-0.122021,0.379224,0.031104,-0.128003,0.378027,-0.003589,no
1616135448.55548,1,17.0,5.0,-12.0,73.0,58.0,0.887512,0.105103,-0.448486,-0.008179,-0.099237,-0.091603,0.030534,7.728027,2.080347,5.604614,-0.056226,0.179443,-0.034692,-0.019141,0.186621,-0.028711,no
1616135448.5657008,1,16.0,4.0,-13.0,63.0,58.0,0.887085,0.103516,-0.449768,-0.008301,-0.076336,-0.076336,0.030534,7.870386,1.821948,5.531641,0.066992,-0.050244,-0.093311,0.118433,-0.039478,-0.00957,no
1616135448.575555,1,18.0,5.0,-11.0,64.0,58.0,0.886719,0.102417,-0.450745,-0.008179,-0.038168,-0.045802,0.015267,8.021118,1.577905,5.459863,0.203369,-0.27395,-0.151929,0.263184,-0.263184,0.022729,no
1616135448.5854018,1,21.0,3.0,-12.0,74.0,58.0,0.886536,0.102112,-0.451172,-0.007812,0.015267,-0.007634,0.0,8.140747,1.412817,5.398852,0.31582,-0.429468,-0.206958,0.386401,-0.417505,0.052637,no
1616135448.5956104,1,21.0,5.0,-14.0,73.0,58.0,0.886536,0.102478,-0.45105,-0.007324,0.045802,0.030534,-0.007634,8.205347,1.410425,5.397656,0.381616,-0.434253,-0.208154,0.427075,-0.428271,0.102881,no
1616135448.6055806,1,21.0,4.0,-10.0,72.0,59.0,0.88678,0.10321,-0.450378,-0.006836,0.053435,0.053435,-0.007634,8.073755,1.526465,5.372534,0.259595,-0.326587,-0.24165,0.373242,-0.303857,0.005981,no
1616135448.6154327,1,20.0,7.0,-11.0,74.0,58.0,0.887024,0.103943,-0.449768,-0.006653,0.030534,0.030534,-0.015267,7.798608,1.671216,5.346216,-0.007178,-0.193799,-0.276343,0.23208,-0.13877,-0.200977,no
1616135448.6254864,1,20.0,4.0,-14.0,74.0,58.0,0.887024,0.104431,-0.449707,-0.006836,0.007634,-0.022901,-0.015267,7.620361,1.798023,5.370142,-0.183032,-0.077759,-0.251221,0.098096,-0.010767,-0.303857,no
1616135448.635532,1,19.0,8.0,-12.0,76.0,58.0,0.886719,0.10437,-0.450317,-0.007141,-0.022901,-0.061069,-0.007634,7.578491,1.860229,5.412012,-0.23208,-0.015552,-0.19978,0.022729,0.044263,-0.301465,no
1616135448.6455042,1,19.0,5.0,-18.0,75.0,58.0,0.886292,0.103882,-0.451233,-0.007446,-0.045802,-0.076336,0.0,7.672998,1.859033,5.446704,-0.149536,-0.010767,-0.149536,0.031104,0.031104,-0.205762,no
1616135448.6554167,1,19.0,7.0,-12.0,78.0,59.0,0.885864,0.10321,-0.452209,-0.007751,-0.045802,-0.061069,0.0,7.859619,1.790845,5.450293,0.022729,-0.069385,-0.131592,0.124414,-0.046655,-0.069385,no
1616135448.6655712,1,20.0,4.0,-11.0,75.0,58.0,0.88562,0.102661,-0.452759,-0.007812,-0.022901,-0.015267,0.0,8.057007,1.677197,5.403638,0.212939,-0.173462,-0.171069,0.276343,-0.161499,0.039478,no
1616135448.6755302,1,19.0,5.0,-13.0,73.0,58.0,0.885681,0.102417,-0.452759,-0.00769,0.0,0.030534,-0.007634,8.14314,1.568335,5.346216,0.297876,-0.277539,-0.229687,0.381616,-0.263184,0.055029,no
1616135448.6853993,1,20.0,5.0,-10.0,70.0,58.0,0.885925,0.102661,-0.452148,-0.007385,0.030534,0.061069,-0.007634,8.14314,1.533643,5.293579,0.30625,-0.313428,-0.290698,0.439038,-0.287109,0.019141,no
1616135448.6955376,1,18.0,4.0,-12.0,73.0,58.0,0.886353,0.103271,-0.451294,-0.006958,0.045802,0.076336,-0.007634,8.048633,1.593457,5.274438,0.22251,-0.261987,-0.324194,0.41272,-0.22251,-0.056226,no
1616135448.7053242,1,19.0,5.0,-7.0,89.0,59.0,0.886719,0.104004,-0.450317,-0.006592,0.038168,0.061069,-0.007634,7.829712,1.716675,5.244531,0.016748,-0.14834,-0.367261,0.31582,-0.080151,-0.224902,no
1616135448.7154372,1,19.0,5.0,-11.0,74.0,58.0,0.886963,0.104614,-0.449768,-0.006531,0.015267,0.015267,-0.007634,7.62395,1.890137,5.263672,-0.18064,0.013159,-0.356494,0.175854,0.095703,-0.345728,no
1616135448.7253904,1,22.0,6.0,-12.0,73.0,58.0,0.886902,0.104736,-0.44989,-0.006653,-0.015267,-0.030534,0.0,7.524658,2.033691,5.321094,-0.281128,0.154321,-0.29668,0.056226,0.233276,-0.363672,no
1616135448.7355068,1,20.0,6.0,-11.0,72.0,58.0,0.886597,0.104248,-0.4505,-0.006958,-0.053435,-0.053435,0.007634,7.567725,2.065991,5.341431,-0.246436,0.192603,-0.266772,0.050244,0.261987,-0.312231,no
1616135448.7454631,1,20.0,6.0,-12.0,74.0,58.0,0.886292,0.103394,-0.451355,-0.007263,-0.061069,-0.053435,0.007634,7.712476,1.99541,5.345019,-0.112451,0.133984,-0.251221,0.123218,0.186621,-0.206958,no
1616135448.7555168,1,19.0,7.0,-8.0,75.0,58.0,0.886108,0.102539,-0.451965,-0.007446,-0.053435,-0.022901,0.007634,7.885938,1.872192,5.336646,0.050244,0.025122,-0.253613,0.230884,0.063403,-0.099292,no
1616135448.764879,1,21.0,7.0,-11.0,74.0,58.0,0.886108,0.101868,-0.452087,-0.007507,-0.030534,0.015267,0.0,8.009155,1.727441,5.321094,0.172266,-0.107666,-0.269165,0.325391,-0.076563,-0.035889,no
1616135448.7754784,1,20.0,6.0,-12.0,75.0,58.0,0.886353,0.101624,-0.45166,-0.007324,0.0,0.045802,-0.007634,8.025904,1.623364,5.288794,0.193799,-0.205762,-0.309839,0.379224,-0.16748,-0.059814,no
1616135448.7847705,1,18.0,5.0,-11.0,73.0,58.0,0.886658,0.101929,-0.450989,-0.00708,0.022901,0.053435,-0.015267,7.911059,1.616186,5.258887,0.087329,-0.217725,-0.350513,0.349316,-0.160303,-0.171069,no
1616135448.7955234,1,20.0,7.0,-11.0,74.0,58.0,0.886963,0.102539,-0.450195,-0.006958,0.030534,0.045802,-0.015267,7.761523,1.685571,5.251709,-0.050244,-0.15791,-0.368457,0.277539,-0.08374,-0.279932,no
1616135448.8053503,1,19.0,8.0,-11.0,75.0,59.0,0.887146,0.10321,-0.449707,-0.006897,0.030534,0.022901,-0.022901,7.632324,1.769312,5.267261,-0.172266,-0.084937,-0.358887,0.19021,-0.001196,-0.358887,no
1616135448.815592,1,17.0,7.0,-12.0,73.0,58.0,0.887146,0.10376,-0.449585,-0.007019,0.015267,-0.007634,-0.015267,7.543799,1.881763,5.329468,-0.258398,0.015552,-0.29668,0.081348,0.094507,-0.372046,no
1616135448.8247056,1,17.0,7.0,-12.0,76.0,58.0,0.887024,0.103943,-0.449768,-0.007263,-0.007634,-0.030534,-0.007634,7.50791,1.988232,5.407227,-0.29668,0.11604,-0.215332,-0.013159,0.183032,-0.337354,no
1616135451.052462,1,22.0,7.0,-12.0,76.0,60.0,0.883362,0.100098,-0.457397,-0.019958,0.007634,-0.007634,0.0,7.790235,1.853052,5.403638,-0.089722,-0.058618,-0.098096,0.029907,-0.029907,-0.137573,no
1616135451.0625308,1,20.0,7.0,-8.0,76.0,61.0,0.883362,0.10022,-0.457397,-0.019775,0.007634,-0.007634,0.0,7.798608,1.874585,5.46106,-0.081348,-0.037085,-0.040674,-0.011963,-0.019141,-0.094507,no
1616135451.0725083,1,21.0,10.0,-7.0,75.0,60.0,0.883362,0.100281,-0.457458,-0.019714,0.0,-0.007634,0.0,7.83689,1.893726,5.510108,-0.044263,-0.019141,0.008374,-0.031104,-0.014355,-0.033496,no
1616135451.0824835,1,22.0,7.0,-12.0,79.0,58.0,0.883362,0.100281,-0.457397,-0.019653,0.0,0.0,0.0,7.872778,1.904492,5.536426,-0.007178,-0.007178,0.033496,-0.029907,-0.010767,0.010767,no
1616135451.0923927,1,20.0,6.0,-11.0,75.0,60.0,0.883423,0.10022,-0.457214,-0.019531,-0.007634,0.007634,0.0,7.889526,1.903296,5.537622,0.010767,-0.005981,0.0323,-0.019141,-0.011963,0.025122,no
1616135451.1025643,1,19.0,7.0,-14.0,74.0,58.0,0.883545,0.100159,-0.457031,-0.01947,-0.007634,0.007634,0.0,7.901489,1.893726,5.537622,0.023926,-0.014355,0.028711,-0.008374,-0.021533,0.0323,no
1616135451.112381,1,21.0,6.0,-11.0,73.0,58.0,0.883667,0.100159,-0.456848,-0.019409,0.0,0.007634,0.0,7.891919,1.870996,5.523267,0.016748,-0.037085,0.00957,0.003589,-0.039478,0.010767,no
1616135451.1226506,1,18.0,8.0,-10.0,76.0,59.0,0.883728,0.100159,-0.456726,-0.019287,0.0,0.007634,0.0,7.857226,1.843481,5.5125,-0.015552,-0.063403,-0.001196,-0.003589,-0.059814,-0.025122,no
1616135451.1324818,1,20.0,7.0,-12.0,76.0,61.0,0.883728,0.10022,-0.456665,-0.019104,0.007634,-0.007634,0.0,7.832105,1.817163,5.511304,-0.039478,-0.089722,-0.003589,-0.014355,-0.081348,-0.050244,no
1616135451.1425128,1,19.0,8.0,-11.0,77.0,95.0,0.883728,0.100342,-0.456726,-0.018921,0.015267,-0.007634,0.0,7.817749,1.79563,5.529248,-0.055029,-0.111255,0.014355,-0.037085,-0.104077,-0.057422,no
1616135451.1524336,1,22.0,8.0,-10.0,75.0,58.0,0.883606,0.100525,-0.456848,-0.018738,0.015267,-0.015267,0.0,7.797412,1.813574,5.550781,-0.076563,-0.094507,0.039478,-0.070581,-0.088525,-0.057422,no
1616135451.1624374,1,21.0,7.0,-10.0,74.0,58.0,0.883484,0.100708,-0.457092,-0.018677,0.007634,-0.022901,-0.007634,7.803393,1.835107,5.575903,-0.07417,-0.075366,0.069385,-0.094507,-0.075366,-0.034692,no
1616135451.1724806,1,22.0,8.0,-10.0,74.0,59.0,0.883362,0.100708,-0.457275,-0.018677,0.0,-0.022901,0.0,7.830908,1.844678,5.602221,-0.049048,-0.065796,0.099292,-0.104077,-0.07417,0.002393,no
1616135451.1818736,1,22.0,8.0,-10.0,78.0,61.0,0.883301,0.100708,-0.457458,-0.018677,0.0,-0.015267,0.0,7.85603,1.84707,5.598633,-0.026318,-0.063403,0.098096,-0.090918,-0.07417,0.020337,no
1616135451.1924684,1,21.0,7.0,-12.0,76.0,60.0,0.88324,0.100647,-0.45752,-0.018616,0.0,-0.007634,0.0,7.87876,1.841089,5.587866,-0.004785,-0.068188,0.089722,-0.070581,-0.080151,0.0323,no
1616135451.202414,1,21.0,8.0,-8.0,75.0,57.0,0.88324,0.100647,-0.45752,-0.018555,0.0,0.0,0.0,7.881152,1.838696,5.555566,-0.002393,-0.069385,0.057422,-0.043066,-0.076563,0.016748,no
1616135451.2117453,1,21.0,9.0,-10.0,74.0,58.0,0.883301,0.100647,-0.457458,-0.018494,0.0,0.0,0.0,7.838086,1.833911,5.519678,-0.044263,-0.07417,0.019141,-0.035889,-0.069385,-0.038281,no
1616135451.2224448,1,22.0,8.0,-33.0,76.0,58.0,0.883301,0.100647,-0.457458,-0.018433,0.0,-0.007634,0.0,7.80459,1.835107,5.488574,-0.077759,-0.071777,-0.010767,-0.031104,-0.058618,-0.082544,no
1616135451.2323987,1,20.0,7.0,-10.0,76.0,58.0,0.88324,0.100647,-0.457581,-0.018372,0.0,-0.015267,0.0,7.784253,1.843481,5.479004,-0.100488,-0.063403,-0.017944,-0.039478,-0.046655,-0.102881,no
1616135451.242368,1,19.0,9.0,-9.0,76.0,61.0,0.883179,0.100586,-0.457764,-0.018372,-0.007634,-0.022901,0.0,7.77229,1.860229,5.479004,-0.114844,-0.045459,-0.015552,-0.050244,-0.027515,-0.108862,no
1616135451.2525043,1,21.0,7.0,-10.0,77.0,61.0,0.883057,0.100403,-0.458008,-0.018433,-0.015267,-0.022901,0.0,7.774683,1.868603,5.484985,-0.11604,-0.033496,-0.004785,-0.061011,-0.016748,-0.101685,no
1616135451.262498,1,19.0,9.0,-11.0,76.0,58.0,0.882935,0.100159,-0.458313,-0.018494,-0.015267,-0.022901,0.0,7.816553,1.868603,5.486182,-0.077759,-0.029907,0.0,-0.043066,-0.019141,-0.068188,no
1616135451.272515,1,20.0,8.0,-9.0,75.0,61.0,0.882812,0.099915,-0.458618,-0.018555,-0.015267,-0.022901,0.0,7.864404,1.851856,5.4802,-0.034692,-0.043066,-0.001196,-0.015552,-0.037085,-0.035889,no
1616135451.2818754,1,20.0,8.0,-10.0,77.0,62.0,0.882751,0.099731,-0.45874,-0.018555,-0.015267,-0.015267,0.0,7.911059,1.82793,5.471826,0.00957,-0.063403,-0.008374,0.015552,-0.061011,-0.008374,no
1616135451.2924602,1,21.0,8.0,-11.0,78.0,53.0,0.88269,0.099609,-0.458801,-0.018555,-0.007634,0.0,0.0,7.948144,1.823145,5.457471,0.046655,-0.066992,-0.020337,0.046655,-0.066992,0.013159,no
1616135451.301576,1,21.0,7.0,-12.0,74.0,59.0,0.88269,0.09967,-0.458801,-0.018494,0.0,0.0,0.0,7.954126,1.831519,5.422778,0.052637,-0.058618,-0.055029,0.077759,-0.055029,0.0,no
1616135451.3117464,1,21.0,8.0,-8.0,77.0,60.0,0.88269,0.099731,-0.458801,-0.018433,0.0,0.0,0.0,7.932593,1.854248,5.397656,0.029907,-0.035889,-0.080151,0.08374,-0.025122,-0.027515,no
1616135451.32178,1,21.0,7.0,-11.0,76.0,58.0,0.882629,0.099854,-0.458923,-0.018433,0.0,-0.015267,0.0,7.903882,1.891333,5.395264,0.0,-0.001196,-0.080151,0.0646,0.010767,-0.044263,no
1616135451.331869,1,21.0,5.0,-10.0,79.0,60.0,0.882507,0.099854,-0.459167,-0.018433,-0.007634,-0.022901,0.0,7.881152,1.935596,5.397656,-0.023926,0.04187,-0.07417,0.043066,0.055029,-0.05144,no
1616135451.341741,1,22.0,9.0,-10.0,76.0,59.0,0.882324,0.099731,-0.459595,-0.018494,-0.015267,-0.038168,0.0,7.895508,1.95354,5.409619,-0.015552,0.062207,-0.055029,0.031104,0.070581,-0.031104,no
1616135451.3517623,1,21.0,10.0,-10.0,77.0,64.0,0.88208,0.099487,-0.460083,-0.018555,-0.022901,-0.038168,0.007634,7.944556,1.934399,5.427564,0.026318,0.046655,-0.028711,0.034692,0.046655,0.013159,no
1616135451.3616245,1,19.0,7.0,-11.0,77.0,58.0,0.881897,0.099182,-0.46051,-0.018555,-0.015267,-0.030534,0.0,7.973267,1.88894,5.417993,0.049048,0.005981,-0.0323,0.053833,0.004785,0.022729,no
1616135451.3717036,1,22.0,8.0,-10.0,74.0,58.0,0.881714,0.098999,-0.460938,-0.018555,-0.007634,-0.022901,0.0,7.981641,1.849463,5.403638,0.05144,-0.028711,-0.039478,0.063403,-0.027515,0.013159,no
1616135451.3818994,1,19.0,8.0,-8.0,75.0,59.0,0.881531,0.098999,-0.461243,-0.018433,0.0,-0.022901,0.0,7.981641,1.841089,5.390479,0.047852,-0.035889,-0.046655,0.066992,-0.033496,0.004785,no
1616135451.3917923,1,19.0,5.0,-8.0,75.0,58.0,0.881348,0.09906,-0.461548,-0.018311,0.007634,-0.022901,0.0,7.9625,1.865015,5.36416,0.023926,-0.010767,-0.066992,0.068188,-0.002393,-0.019141,no
1616135451.4016683,1,20.0,5.0,-12.0,76.0,61.0,0.881165,0.099121,-0.461914,-0.018311,0.0,-0.022901,0.0,7.949341,1.904492,5.359375,0.007178,0.026318,-0.065796,0.056226,0.034692,-0.025122,no
1616135451.4116893,1,21.0,9.0,-10.0,73.0,58.0,0.880981,0.099121,-0.462219,-0.018311,-0.007634,-0.030534,0.0,7.936182,1.937988,5.341431,-0.008374,0.059814,-0.077759,0.055029,0.071777,-0.038281,no
1616135451.421693,1,20.0,9.0,-11.0,75.0,84.0,0.880798,0.098999,-0.462646,-0.018372,-0.015267,-0.030534,0.0,7.901489,1.942773,5.311523,-0.049048,0.066992,-0.100488,0.050244,0.087329,-0.081348,no
1616135451.4317882,1,21.0,7.0,-9.0,75.0,58.0,0.880615,0.098755,-0.463074,-0.018433,-0.015267,-0.030534,0.0,7.867993,1.915259,5.285205,-0.088525,0.043066,-0.119629,0.044263,0.071777,-0.129199,no
1616135451.4418042,1,20.0,5.0,-11.0,76.0,61.0,0.880371,0.098572,-0.463501,-0.018433,-0.007634,-0.030534,0.0,7.863208,1.875781,5.264868,-0.098096,0.007178,-0.132788,0.05144,0.039478,-0.150732,no
1616135451.4516203,1,20.0,9.0,-11.0,74.0,58.0,0.880188,0.09845,-0.463928,-0.018372,-0.007634,-0.022901,0.007634,7.866797,1.866211,5.240942,-0.100488,0.0,-0.149536,0.0646,0.034692,-0.163892,no
1616135451.4617608,1,19.0,8.0,-10.0,76.0,59.0,0.880066,0.098389,-0.464172,-0.018188,0.0,-0.015267,0.007634,7.869189,1.876978,5.222998,-0.101685,0.014355,-0.163892,0.075366,0.05144,-0.169873,no
1616135451.4717453,1,21.0,9.0,-11.0,76.0,58.0,0.880005,0.09845,-0.464294,-0.018005,0.0,-0.007634,0.007634,7.882349,1.884155,5.205054,-0.090918,0.021533,-0.179443,0.093311,0.059814,-0.16748,no
1616135451.4817665,1,19.0,7.0,-8.0,77.0,58.0,0.880005,0.098511,-0.464233,-0.017822,0.007634,0.007634,0.0,7.875171,1.878174,5.169165,-0.096899,0.016748,-0.215332,0.119629,0.061011,-0.193799,no
1616135451.491796,1,19.0,8.0,-12.0,71.0,58.0,0.880127,0.098633,-0.463989,-0.017639,0.007634,0.022901,0.0,7.884741,1.856641,5.166772,-0.084937,-0.004785,-0.221313,0.132788,0.039478,-0.191406,no
1616135451.501799,1,20.0,6.0,-10.0,76.0,62.0,0.880371,0.098816,-0.463501,-0.017456,0.007634,0.038168,0.0,7.909863,1.873389,5.20625,-0.053833,0.00957,-0.19021,0.124414,0.045459,-0.145947,no
1616135451.5116062,1,19.0,8.0,-12.0,75.0,59.0,0.880676,0.098999,-0.462891,-0.017334,0.007634,0.045802,-0.007634,7.885938,1.908081,5.232568,-0.069385,0.04187,-0.174658,0.100488,0.076563,-0.143555,no
1616135451.5217285,1,22.0,8.0,-11.0,74.0,59.0,0.880981,0.099304,-0.462219,-0.017334,0.007634,0.038168,-0.015267,7.852441,1.909277,5.239746,-0.094507,0.037085,-0.178247,0.088525,0.075366,-0.16748,no
1616135451.5317068,1,22.0,9.0,-12.0,74.0,60.0,0.881287,0.099548,-0.46167,-0.017456,0.0,0.030534,-0.015267,7.828516,1.917651,5.262475,-0.111255,0.039478,-0.165088,0.068188,0.077759,-0.173462,no
1616135451.5415444,1,47.0,9.0,-12.0,77.0,58.0,0.881531,0.09967,-0.461182,-0.017456,0.0,0.030534,-0.007634,7.803393,1.903296,5.276831,-0.130396,0.022729,-0.159106,0.052637,0.063403,-0.189014,no
1616135451.5516896,1,20.0,8.0,-14.0,75.0,58.0,0.881714,0.099548,-0.460754,-0.017334,-0.007634,0.022901,0.007634,7.789038,1.892529,5.292383,-0.13877,0.015552,-0.150732,0.04187,0.056226,-0.192603,no
1616135451.5616205,1,20.0,8.0,-13.0,77.0,59.0,0.881897,0.099304,-0.460449,-0.017029,-0.015267,0.022901,0.022901,7.774683,1.890137,5.301953,-0.150732,0.019141,-0.14834,0.0323,0.059814,-0.19978,no
1616135451.5717945,1,20.0,7.0,-11.0,55.0,57.0,0.88208,0.098938,-0.460205,-0.016724,-0.015267,0.015267,0.030534,7.763916,1.88894,5.309131,-0.159106,0.027515,-0.147144,0.026318,0.069385,-0.204565,no
1616135451.581557,1,22.0,7.0,-15.0,75.0,58.0,0.882263,0.098572,-0.460022,-0.016357,-0.015267,0.007634,0.030534,7.759131,1.870996,5.331861,-0.163892,0.017944,-0.129199,0.00957,0.057422,-0.200977,no
1616135451.591667,1,22.0,10.0,-12.0,77.0,58.0,0.882324,0.098145,-0.459961,-0.015991,-0.015267,0.0,0.022901,7.743579,1.851856,5.341431,-0.179443,0.00957,-0.122021,-0.003589,0.049048,-0.210547,no
1616135451.601629,1,20.0,5.0,-14.0,74.0,59.0,0.882385,0.097839,-0.459961,-0.015686,-0.015267,-0.007634,0.022901,7.750757,1.832715,5.349805,-0.173462,0.0,-0.114844,-0.005981,0.038281,-0.203369,no
1616135451.6116085,1,20.0,8.0,-13.0,76.0,61.0,0.882324,0.097595,-0.460083,-0.015442,-0.007634,-0.007634,0.015267,7.810571,1.829126,5.368945,-0.11604,0.001196,-0.094507,0.00957,0.028711,-0.145947,no
1616135451.6218069,1,19.0,4.0,-14.0,72.0,58.0,0.882324,0.097351,-0.460205,-0.01532,-0.015267,-0.007634,0.007634,7.902686,1.831519,5.386889,-0.026318,0.00957,-0.075366,0.045459,0.023926,-0.061011,no
1616135451.6316977,1,22.0,7.0,-11.0,76.0,61.0,0.882385,0.097107,-0.460083,-0.015259,-0.015267,0.007634,0.007634,7.9625,1.793237,5.373731,0.033496,-0.022729,-0.090918,0.094507,-0.010767,-0.027515,no
1616135451.6415749,1,16.0,5.0,-15.0,76.0,59.0,0.882507,0.096802,-0.4599,-0.015259,-0.015267,0.022901,0.0,7.990015,1.757349,5.355786,0.063403,-0.053833,-0.113647,0.131592,-0.04187,-0.021533,no
1616135451.65171,1,19.0,6.0,-15.0,75.0,59.0,0.882751,0.096619,-0.459473,-0.015259,-0.015267,0.030534,-0.007634,7.997192,1.728638,5.343823,0.075366,-0.080151,-0.133984,0.156714,-0.065796,-0.028711,no
1616135451.661631,1,17.0,6.0,-16.0,76.0,58.0,0.883057,0.096436,-0.458923,-0.015259,-0.015267,0.038168,-0.007634,7.995996,1.726245,5.339038,0.081348,-0.078955,-0.149536,0.173462,-0.063403,-0.0323,no
1616135451.671659,1,20.0,7.0,-15.0,77.0,58.0,0.883423,0.09613,-0.458374,-0.015259,-0.022901,0.045802,0.0,7.990015,1.74419,5.328271,0.081348,-0.056226,-0.172266,0.19021,-0.037085,-0.040674,no
1616135451.6815948,1,20.0,7.0,-16.0,76.0,60.0,0.883728,0.095703,-0.457764,-0.015259,-0.030534,0.045802,0.007634,7.956519,1.780078,5.310327,0.055029,-0.014355,-0.202173,0.196191,0.010767,-0.071777,no
1616135451.6915998,1,20.0,7.0,-16.0,76.0,59.0,0.884155,0.095154,-0.457153,-0.01532,-0.045802,0.045802,0.007634,7.88833,1.806396,5.299561,-0.004785,0.019141,-0.226099,0.179443,0.053833,-0.126807,no
1616135451.7016983,1,19.0,7.0,-16.0,78.0,58.0,0.884521,0.094543,-0.456482,-0.015564,-0.053435,0.045802,-0.007634,7.845263,1.8052,5.28999,-0.039478,0.026318,-0.248828,0.177051,0.068188,-0.16748,no
1616135451.7115436,1,20.0,7.0,-17.0,79.0,76.0,0.88501,0.093933,-0.455688,-0.015991,-0.053435,0.053435,-0.015267,7.870386,1.770508,5.297168,-0.003589,-0.001196,-0.259595,0.206958,0.038281,-0.149536,no
1616135451.7217662,1,18.0,7.0,-17.0,75.0,58.0,0.885498,0.093323,-0.454773,-0.016541,-0.053435,0.068702,-0.030534,7.938574,1.742993,5.321094,0.075366,-0.023926,-0.253613,0.250024,0.005981,-0.087329,no
1616135451.731561,1,17.0,7.0,-18.0,76.0,60.0,0.886169,0.092896,-0.453613,-0.01709,-0.045802,0.091603,-0.030534,8.025904,1.703516,5.339038,0.177051,-0.061011,-0.258398,0.31582,-0.040674,-0.016748,no
1616135451.74184,1,20.0,5.0,-20.0,75.0,58.0,0.886841,0.092529,-0.452332,-0.017517,-0.038168,0.091603,-0.030534,8.035474,1.658057,5.291186,0.204565,-0.105273,-0.330176,0.391187,-0.077759,-0.044263,no
1616135451.7516234,1,20.0,5.0,-20.0,76.0,59.0,0.887451,0.092285,-0.451233,-0.0177,-0.022901,0.083969,-0.015267,8.003174,1.650879,5.251709,0.185425,-0.110059,-0.38999,0.428271,-0.070581,-0.095703,no
1616135451.7616234,1,21.0,8.0,-18.0,75.0,59.0,0.887939,0.092041,-0.450317,-0.017761,-0.022901,0.068702,0.0,7.976855,1.625757,5.213428,0.171069,-0.132788,-0.44502,0.465356,-0.08374,-0.143555,no
1616135451.7716222,1,17.0,5.0,-18.0,73.0,60.0,0.888184,0.091858,-0.44989,-0.017395,0.0,0.038168,0.022901,7.967285,1.632935,5.136865,0.166284,-0.118433,-0.529956,0.529956,-0.056226,-0.194995,no
1616135451.78186,1,20.0,7.0,-20.0,73.0,59.0,0.888062,0.091797,-0.450134,-0.016541,0.015267,-0.015267,0.053435,7.966089,1.685571,5.077051,0.160303,-0.057422,-0.584985,0.567041,0.011963,-0.220117,no
1616135451.7914896,1,20.0,10.0,-20.0,80.0,59.0,0.887329,0.091858,-0.451599,-0.015137,0.045802,-0.10687,0.099237,7.995996,1.764526,5.032788,0.168677,0.0323,-0.604126,0.583789,0.102881,-0.206958,no
1616135451.8015254,1,19.0,7.0,-18.0,75.0,58.0,0.88562,0.092041,-0.455017,-0.012695,0.091603,-0.251908,0.167939,8.054614,1.862622,5.128491,0.178247,0.150732,-0.447412,0.455786,0.196191,-0.084937,no
1616135451.8115735,1,21.0,11.0,-14.0,79.0,61.0,0.882812,0.092041,-0.460449,-0.009094,0.122137,-0.389313,0.244275,8.230469,1.878174,5.318701,0.278735,0.203369,-0.15791,0.275146,0.194995,0.172266,no
1616135451.8215332,1,22.0,10.0,-12.0,74.0,58.0,0.879395,0.092285,-0.46698,-0.004944,0.152672,-0.442748,0.259542,8.303442,1.892529,5.450293,0.263184,0.256006,0.090918,0.052637,0.211743,0.307446,no
1616135451.8316343,1,22.0,21.0,-18.0,74.0,59.0,0.876099,0.092651,-0.473083,-0.000916,0.160305,-0.396947,0.229008,7.671802,1.67002,5.083032,-0.449805,0.069385,-0.161499,-0.119629,0.133984,-0.447412,no
1616135451.841715,1,22.0,15.0,-4.0,76.0,58.0,0.874207,0.091919,-0.476746,0.003052,0.053435,-0.198473,0.236641,6.340332,1.265674,3.925025,-1.833911,-0.279932,-1.253711,0.069385,0.080151,-2.235864,no
1616135451.8514352,1,22.0,17.0,-3.0,75.0,61.0,0.871948,0.092102,-0.480774,0.00415,0.030534,-0.206107,0.061069,7.461255,1.465454,4.447803,-0.762036,-0.069385,-0.65437,0.144751,0.100488,-0.990527,no
1616135451.861442,1,21.0,13.0,-3.0,76.0,59.0,0.872192,0.090576,-0.480591,0.005371,-0.061069,0.099237,0.099237,8.503222,1.617383,4.876074,0.277539,0.118433,-0.234473,0.333765,0.132788,0.128003,no
1616135451.870938,1,23.0,14.0,-1.0,78.0,59.0,0.873962,0.088623,-0.477783,0.006531,-0.099237,0.251908,0.114504,8.510401,1.666431,4.988525,0.314624,0.209351,-0.183032,0.302661,0.211743,0.197388,no
1616135451.8810284,1,22.0,17.0,-1.0,76.0,61.0,0.876526,0.08667,-0.47345,0.007324,-0.10687,0.328244,0.061069,8.293872,1.764526,5.144043,0.147144,0.343335,-0.114844,0.143555,0.345728,0.110059,no
1616135451.8908448,1,22.0,14.0,2.0,78.0,58.0,0.879333,0.085388,-0.468384,0.00708,-0.099237,0.343511,-0.007634,7.893115,1.757349,5.242139,-0.19021,0.350513,-0.113647,-0.045459,0.375635,-0.168677,no
1616135451.9014735,1,22.0,13.0,-6.0,76.0,60.0,0.881958,0.084412,-0.463684,0.006104,-0.091603,0.274809,-0.061069,7.312915,1.576709,5.303149,-0.711792,0.172266,-0.142358,-0.303857,0.239258,-0.636426,no
1616135451.91162,1,20.0,13.0,-1.0,75.0,61.0,0.883789,0.084106,-0.460144,0.0047,-0.045802,0.175573,-0.10687,6.866699,1.214233,5.376123,-1.111353,-0.19978,-0.133984,-0.514404,-0.099292,-1.008472,no
1616135451.921604,1,22.0,17.0,-1.0,75.0,59.0,0.884827,0.085022,-0.458008,0.003113,0.045802,0.083969,-0.175573,6.607104,0.752466,5.425171,-1.34104,-0.693848,-0.120825,-0.62207,-0.567041,-1.2573,no
1616135451.9315248,1,22.0,15.0,-1.0,75.0,61.0,0.885071,0.08783,-0.457092,0.001526,0.167939,-0.007634,-0.221374,6.450391,0.283521,5.465845,-1.481006,-1.226196,-0.087329,-0.689062,-1.077856,-1.436743,no
1616135451.9416802,1,20.0,17.0,-2.0,75.0,60.0,0.884338,0.092773,-0.457458,0.000488,0.312977,-0.10687,-0.251908,6.257788,-0.035889,5.469434,-1.671216,-1.638916,-0.058618,-0.783569,-1.459473,-1.653271,no
1616135451.9516988,1,22.0,15.0,-2.0,76.0,58.0,0.882629,0.099976,-0.459351,6.1e-05,0.458015,-0.221374,-0.251908,6.140552,0.026318,5.557959,-1.8052,-1.702319,0.088525,-0.958228,-1.518091,-1.714282,no
1616135451.961572,1,21.0,14.0,-2.0,75.0,58.0,0.879944,0.108643,-0.462463,0.000122,0.51145,-0.305344,-0.229008,6.445605,0.594556,5.810376,-1.530054,-1.277637,0.433057,-1.098193,-1.175952,-1.251318,no
1616135451.9715235,1,19.0,10.0,-5.0,73.0,63.0,0.877625,0.116333,-0.465027,0.000488,0.389313,-0.19084,-0.137405,7.35,1.64729,6.306836,-0.649585,-0.349316,1.009668,-1.154419,-0.476123,-0.055029,no
1616135451.9815106,1,17.0,8.0,-11.0,72.0,58.0,0.877441,0.120483,-0.464294,-0.000244,0.083969,0.068702,-0.10687,8.35249,2.990723,6.827222,0.367261,0.916357,1.536035,-1.143652,0.523975,1.321899,no
1616135451.990578,1,16.0,4.0,-17.0,73.0,49.0,0.879456,0.120483,-0.46051,-0.003052,-0.221374,0.267176,-0.114504,8.674292,3.767114,6.955225,0.742895,1.661646,1.59585,-1.040771,1.1927,1.830322,no
1616135452.0007553,1,12.0,-1.0,-19.0,76.0,61.0,0.882568,0.116638,-0.455383,-0.007568,-0.458015,0.312977,-0.122137,8.241236,3.910669,6.743482,0.38042,1.824341,1.274048,-0.972583,1.475024,1.403247,no
1616135452.0109975,1,8.0,-5.0,-20.0,78.0,58.0,0.885742,0.110474,-0.450623,-0.013184,-0.564885,0.259542,-0.145038,7.911059,3.557764,6.488672,0.11604,1.522876,0.907983,-0.773999,1.303955,0.924731,no
1616135452.020787,1,12.0,-5.0,-22.0,75.0,58.0,0.888245,0.103821,-0.447083,-0.018555,-0.519084,0.206107,-0.145038,8.006763,2.76582,6.1896,0.260791,0.795532,0.517993,-0.303857,0.657959,0.665137,no
1616135452.0308204,1,8.0,-6.0,-26.0,72.0,58.0,0.889832,0.098389,-0.444885,-0.022522,-0.366412,0.137405,-0.114504,8.333349,2.007373,5.970679,0.617285,0.094507,0.240454,0.175854,-0.022729,0.6448,no
1616135452.0408015,1,11.0,-6.0,-24.0,76.0,57.0,0.890686,0.094666,-0.44397,-0.024841,-0.221374,0.061069,-0.061069,8.693433,1.589868,6.002978,0.988135,-0.278735,0.24165,0.415112,-0.435449,0.864917,no
1616135452.050665,1,9.0,-3.0,-27.0,78.0,58.0,0.890808,0.092529,-0.444092,-0.025696,-0.099237,-0.007634,-0.015267,9.02959,1.470239,6.081933,1.321899,-0.368457,0.314624,0.56106,-0.575415,1.154419,no
1616135452.0608015,1,10.0,0.0,-26.0,74.0,57.0,0.890381,0.091736,-0.445129,-0.025574,-0.007634,-0.061069,0.022901,9.420776,1.594653,6.328369,1.697534,-0.228491,0.576611,0.57063,-0.520386,1.632935,no
1616135452.0709147,1,11.0,3.0,-26.0,79.0,58.0,0.889709,0.091919,-0.446472,-0.024231,0.068702,-0.068702,0.076336,10.030884,1.629346,6.567627,2.288501,-0.185425,0.839795,0.709399,-0.587378,2.263379,no
1616135452.0807824,1,11.0,6.0,-26.0,76.0,58.0,0.888855,0.092529,-0.448242,-0.020996,0.167939,-0.091603,0.167939,10.268946,1.587476,6.576001,2.497852,-0.208154,0.881665,0.794336,-0.632837,2.454785,no
1616135452.090727,1,13.0,8.0,-19.0,74.0,58.0,0.887146,0.093933,-0.451538,-0.015625,0.267176,-0.221374,0.282443,9.979444,1.550391,6.554468,2.155713,-0.220117,0.923535,0.545508,-0.599341,2.210742,no
1616135452.1008525,1,16.0,9.0,-13.0,75.0,59.0,0.884399,0.095398,-0.456787,-0.008057,0.335878,-0.366412,0.427481,9.204248,1.500147,6.433642,1.300366,-0.224902,0.900806,0.044263,-0.497656,1.516895,no
1616135452.1106665,1,19.0,12.0,-10.0,73.0,59.0,0.881042,0.09729,-0.46283,0.001038,0.396947,-0.419847,0.503817,7.616773,1.704712,5.857031,-0.376831,0.033496,0.441431,-0.577808,-0.00957,-0.057422,no
1616135452.1208975,1,21.0,11.0,-4.0,73.0,63.0,0.877686,0.099854,-0.468628,0.009888,0.374046,-0.40458,0.48855,5.103369,1.893726,5.011255,-2.977563,0.266772,-0.288306,-1.461865,0.540723,-2.56604,no
1616135452.1309671,1,21.0,10.0,-6.0,74.0,59.0,0.874634,0.101929,-0.473694,0.014404,0.160305,-0.427481,0.175573,3.26228,2.853149,2.707202,-4.886841,1.239355,-2.490674,-0.785962,2.039673,-5.179932,no
1616135452.1405582,1,19.0,14.0,-4.0,72.0,58.0,0.870605,0.104614,-0.480469,0.013245,0.015267,-0.473282,-0.015267,5.616577,2.835205,4.462158,-2.609107,1.174756,-0.596948,-1.050342,1.46665,-2.298071,no
1616135452.1508646,1,22.0,13.0,-7.0,73.0,58.0,0.868408,0.102966,-0.484863,0.012695,-0.137405,-0.229008,0.076336,7.387085,2.865112,4.693042,-0.891235,1.232178,-0.290698,-0.378027,1.330273,-0.695044,no
1616135452.1607502,1,22.0,12.0,-4.0,77.0,59.0,0.867981,0.099731,-0.486328,0.012634,-0.19084,0.007634,0.083969,8.359668,2.444019,4.604517,0.061011,0.86731,-0.364868,0.235669,0.912769,0.005981,no
1616135452.170732,1,22.0,14.0,-2.0,74.0,58.0,0.86908,0.097168,-0.484863,0.011841,-0.160305,0.19084,-0.038168,8.6719,1.988232,4.438232,0.38999,0.44502,-0.568237,0.632837,0.509619,0.108862,no
1616135452.1808145,1,22.0,17.0,-3.0,76.0,58.0,0.870972,0.095947,-0.48175,0.009827,-0.114504,0.244275,-0.152672,8.219702,1.367358,4.149927,-0.022729,-0.177051,-0.919946,0.776392,-0.00957,-0.522778,no
1616135452.1906886,1,22.0,14.0,-1.0,76.0,61.0,0.872437,0.09613,-0.479065,0.007141,-0.030534,0.152672,-0.236641,7.446899,0.53833,3.850854,-0.758447,-1.038379,-1.268066,0.756055,-0.736914,-1.464258,no
1616135452.2007372,1,22.0,15.0,-4.0,73.0,60.0,0.872742,0.098511,-0.478088,0.004272,0.122137,0.0,-0.328244,6.749463,-0.248828,3.685767,-1.436743,-1.893726,-1.442725,0.614893,-1.477417,-2.272949,no
1616135452.2108638,1,20.0,15.0,-4.0,73.0,58.0,0.871521,0.10376,-0.479248,0.001709,0.305344,-0.167939,-0.366412,6.321191,-0.750073,3.629541,-1.868603,-2.506226,-1.45708,0.462964,-2.004981,-2.767017,no
1616135452.220677,1,19.0,15.0,-4.0,74.0,58.0,0.868896,0.111511,-0.482239,0.000122,0.442748,-0.274809,-0.343511,6.487475,-0.66394,3.661841,-1.725049,-2.561255,-1.335059,0.471338,-2.052832,-2.622266,no
1616135452.2309003,1,20.0,10.0,-10.0,76.0,59.0,0.866516,0.119019,-0.48468,-0.000183,0.396947,-0.145038,-0.229008,7.619165,0.314624,4.214526,-0.611304,-1.708301,-0.702222,0.461768,-1.443921,-1.217822,no
1616135452.2407184,1,17.0,7.0,-14.0,76.0,58.0,0.866699,0.123718,-0.483215,-0.00116,0.114504,0.167939,-0.152672,9.205444,1.954736,5.175147,0.998901,-0.156714,0.251221,0.339746,-0.326587,0.92832,no
1616135452.2505727,1,17.0,4.0,-16.0,75.0,59.0,0.869751,0.123962,-0.4776,-0.003845,-0.221374,0.427481,-0.122137,9.955518,3.152222,5.802002,1.823145,1.00249,0.773999,0.234473,0.579004,2.129395,no
1616135452.260604,1,15.0,-1.0,-20.0,76.0,58.0,0.87439,0.120117,-0.470032,-0.007874,-0.458015,0.51145,-0.099237,9.662427,3.578101,5.98982,1.624561,1.446314,0.80271,0.101685,1.03479,2.070776,no
1616135452.2706342,1,15.0,-3.0,-22.0,75.0,58.0,0.878906,0.113953,-0.462952,-0.012329,-0.534351,0.435115,-0.083969,8.980542,3.270654,5.86062,1.032398,1.195093,0.515601,0.068188,0.934302,1.370947,no
1616135452.280619,1,12.0,-4.0,-22.0,73.0,58.0,0.882324,0.107483,-0.457947,-0.016052,-0.465649,0.290076,-0.053435,8.369238,2.644995,5.635718,0.483301,0.641211,0.172266,0.094507,0.533545,0.614893,no
1616135452.290575,1,13.0,-3.0,-26.0,75.0,59.0,0.884338,0.102051,-0.455139,-0.018494,-0.335878,0.145038,-0.007634,8.107251,2.07915,5.488574,0.25481,0.144751,-0.046655,0.177051,0.117236,0.205762,no
1616135452.3006177,1,11.0,-2.0,-27.0,76.0,58.0,0.885376,0.098145,-0.453979,-0.019287,-0.206107,0.068702,0.038168,8.210132,1.680786,5.482593,0.368457,-0.193799,-0.088525,0.297876,-0.221313,0.206958,no
1616135452.310789,1,11.0,-5.0,-24.0,74.0,58.0,0.885925,0.095276,-0.453491,-0.01886,-0.114504,0.053435,0.076336,8.535522,1.52168,5.622559,0.69624,-0.300269,0.031104,0.399561,-0.381616,0.517993,no
1616135452.3206549,1,10.0,-5.0,-25.0,73.0,58.0,0.886536,0.093445,-0.452759,-0.017761,-0.053435,0.076336,0.091603,8.704199,1.562353,5.76731,0.868506,-0.218921,0.155518,0.397168,-0.33855,0.742895,no
1616135452.330556,1,11.0,-5.0,-26.0,75.0,58.0,0.887329,0.092285,-0.451538,-0.016479,-0.038168,0.099237,0.091603,8.406323,1.733423,5.726636,0.582593,-0.016748,0.088525,0.27395,-0.094507,0.512012,no
1616135452.340633,1,12.0,-3.0,-23.0,79.0,58.0,0.888123,0.091431,-0.450195,-0.015625,-0.045802,0.083969,0.068702,7.921826,1.932007,5.579492,0.112451,0.202173,-0.08374,0.122021,0.198584,0.076563,no
1616135452.3507257,1,13.0,-3.0,-21.0,72.0,58.0,0.888672,0.090759,-0.449219,-0.015503,-0.061069,0.045802,0.030534,7.452881,2.056421,5.389282,-0.343335,0.33855,-0.293091,0.010767,0.41272,-0.382812,no
1616135452.360828,1,12.0,-3.0,-20.0,72.0,58.0,0.888916,0.090271,-0.448792,-0.016052,-0.061069,0.007634,-0.022901,7.190894,2.003784,5.279223,-0.599341,0.289502,-0.41272,-0.04187,0.410327,-0.665137,no
1616135452.370914,1,14.0,-5.0,-22.0,76.0,58.0,0.888855,0.089844,-0.448914,-0.016968,-0.053435,-0.030534,-0.045802,7.138257,1.896118,5.27085,-0.651978,0.18064,-0.419897,-0.061011,0.309839,-0.729736,no
1616135452.3806064,1,13.0,-5.0,-22.0,76.0,60.0,0.888672,0.089478,-0.449341,-0.018005,-0.045802,-0.038168,-0.045802,7.286597,1.787256,5.36416,-0.508423,0.069385,-0.320605,-0.049048,0.171069,-0.577808,no
1616135452.390703,1,16.0,-4.0,-24.0,72.0,58.0,0.888489,0.089233,-0.449646,-0.018799,-0.030534,-0.022901,-0.045802,7.438525,1.648486,5.42876,-0.358887,-0.070581,-0.251221,-0.008374,0.005981,-0.442627,no
1616135452.4006584,1,11.0,-2.0,-20.0,55.0,58.0,0.888428,0.089294,-0.449768,-0.019226,0.0,-0.007634,-0.038168,7.611987,1.515698,5.479004,-0.185425,-0.208154,-0.198584,0.058618,-0.154321,-0.299072,no
1616135452.410806,1,16.0,-4.0,-23.0,74.0,55.0,0.88855,0.089661,-0.449524,-0.019287,0.030534,0.030534,-0.030534,7.803393,1.449902,5.513696,0.008374,-0.281128,-0.16748,0.151929,-0.252417,-0.139966,no
1616135452.4206028,1,13.0,-4.0,-26.0,74.0,20.0,0.888794,0.090393,-0.448853,-0.018921,0.053435,0.061069,-0.015267,7.925415,1.503735,5.548388,0.13877,-0.236865,-0.141162,0.206958,-0.227295,-0.013159,no
1616135452.4307258,1,12.0,-3.0,-23.0,76.0,58.0,0.889282,0.091187,-0.447815,-0.018494,0.045802,0.083969,-0.007634,7.921826,1.642505,5.543603,0.14834,-0.108862,-0.162695,0.223706,-0.099292,0.002393,no
1616135452.4406152,1,13.0,-3.0,-22.0,73.0,58.0,0.889832,0.091919,-0.446533,-0.01825,0.022901,0.083969,-0.007634,7.742383,1.802808,5.473022,-0.011963,0.039478,-0.252417,0.191406,0.076563,-0.149536,no
1616135452.4506006,1,13.0,-3.0,-24.0,76.0,58.0,0.890259,0.092468,-0.445496,-0.018372,0.0,0.053435,-0.015267,7.53064,1.91167,5.420386,-0.209351,0.137573,-0.320605,0.122021,0.205762,-0.327783,no
1616135452.4606948,1,13.0,-1.0,-20.0,76.0,58.0,0.890503,0.092529,-0.445068,-0.018616,-0.022901,0.007634,-0.007634,7.434937,1.926025,5.452685,-0.299072,0.14834,-0.29668,0.047852,0.223706,-0.382812,no
1616135452.4708033,1,15.0,-2.0,-22.0,75.0,58.0,0.890442,0.092163,-0.44519,-0.018799,-0.030534,-0.022901,0.0,7.351196,1.873389,5.468237,-0.384009,0.100488,-0.279932,-0.013159,0.184229,-0.448608,no
1616135452.4807212,1,13.0,-2.0,-20.0,74.0,57.0,0.890198,0.091736,-0.445862,-0.018982,-0.030534,-0.061069,0.0,7.3823,1.815967,5.55437,-0.362476,0.049048,-0.184229,-0.072974,0.11604,-0.385205,no
1616135452.490774,1,15.0,-4.0,-23.0,75.0,58.0,0.889709,0.091248,-0.446838,-0.019104,-0.022901,-0.083969,0.007634,7.528247,1.723853,5.668017,-0.229687,-0.033496,-0.053833,-0.092114,0.001196,-0.218921,no
1616135452.5007834,1,15.0,-4.0,-21.0,76.0,58.0,0.889282,0.09082,-0.447815,-0.019043,-0.007634,-0.061069,0.007634,7.82373,1.610205,5.774487,0.05144,-0.13877,0.065796,-0.014355,-0.150732,0.053833,no
1616135452.5106082,1,13.0,-3.0,-22.0,74.0,57.0,0.889099,0.090637,-0.448181,-0.018677,0.015267,0.0,0.007634,8.138354,1.518091,5.86062,0.361279,-0.224902,0.159106,0.099292,-0.284717,0.33855,no
1616135452.5205572,1,11.0,1.0,-22.0,76.0,57.0,0.889343,0.09082,-0.447693,-0.018005,0.038168,0.061069,0.007634,8.316602,1.481006,5.872583,0.544312,-0.259595,0.162695,0.208154,-0.339746,0.479712,no
1616135452.5306537,1,16.0,-1.0,-18.0,74.0,58.0,0.889954,0.091309,-0.446411,-0.017212,0.045802,0.10687,0.015267,8.351294,1.539624,5.858228,0.594556,-0.203369,0.128003,0.26438,-0.284717,0.508423,no
1616135452.5406525,1,19.0,0.0,-22.0,77.0,58.0,0.890808,0.091797,-0.444702,-0.016418,0.038168,0.129771,0.015267,8.137158,1.685571,5.775683,0.401953,-0.059814,0.016748,0.23208,-0.105273,0.31582,no
1616135453.4493575,1,17.0,1.0,-15.0,77.0,58.0,0.898254,0.089111,-0.430359,-0.000671,0.007634,0.053435,0.0,7.680176,1.460669,5.895312,0.104077,-0.113647,-0.118433,0.165088,-0.100488,-0.00957,no
1616135453.4595108,1,19.0,5.0,-15.0,73.0,58.0,0.89856,0.089233,-0.429626,-0.00061,0.0,0.045802,0.0,7.54978,1.515698,5.868994,-0.015552,-0.059814,-0.156714,0.114844,-0.0323,-0.117236,no
1616135453.4696052,1,17.0,4.0,-17.0,78.0,58.0,0.898804,0.089233,-0.429138,-0.000671,-0.015267,0.022901,-0.007634,7.432544,1.56355,5.867798,-0.12561,-0.013159,-0.166284,0.049048,0.022729,-0.200977,no
1616135453.4796293,1,17.0,4.0,-16.0,76.0,58.0,0.898926,0.088989,-0.428955,-0.000793,-0.022901,0.0,-0.007634,7.344018,1.574316,5.883349,-0.211743,0.0,-0.154321,-0.014355,0.040674,-0.257202,no
1616135453.4896312,1,16.0,4.0,-18.0,76.0,58.0,0.898865,0.088623,-0.429077,-0.001038,-0.030534,-0.022901,-0.007634,7.302148,1.555176,5.913257,-0.25481,-0.014355,-0.123218,-0.0646,0.025122,-0.27395,no
1616135453.499671,1,17.0,3.0,-18.0,76.0,58.0,0.898743,0.088257,-0.429443,-0.001221,-0.030534,-0.030534,-0.007634,7.364356,1.514502,5.974267,-0.197388,-0.050244,-0.057422,-0.075366,-0.023926,-0.194995,no
1616135453.509751,1,16.0,1.0,-18.0,74.0,58.0,0.898682,0.087952,-0.429688,-0.001343,-0.015267,-0.022901,0.0,7.479199,1.476221,6.032886,-0.086133,-0.08374,0.002393,-0.049048,-0.075366,-0.077759,no
1616135453.5196683,1,17.0,3.0,-16.0,75.0,62.0,0.898682,0.087769,-0.429688,-0.001343,-0.007634,0.007634,0.0,7.592847,1.459473,6.077148,0.026318,-0.096899,0.046655,-0.011963,-0.104077,0.033496,no
1616135453.5295386,1,16.0,0.0,-17.0,77.0,58.0,0.898865,0.087769,-0.429382,-0.00116,0.0,0.022901,0.0,7.613183,1.47981,6.081933,0.050244,-0.075366,0.045459,0.001196,-0.084937,0.053833,no
1616135453.539655,1,17.0,3.0,-17.0,74.0,58.0,0.899109,0.08783,-0.428833,-0.000977,0.007634,0.038168,0.0,7.566528,1.528857,6.0604,0.010767,-0.026318,0.015552,-0.002393,-0.028711,0.013159,no
1616135453.5487623,1,15.0,1.0,-18.0,74.0,58.0,0.899353,0.087952,-0.428284,-0.000916,0.0,0.030534,0.0,7.493555,1.583887,6.0281,-0.053833,0.025122,-0.023926,-0.016748,0.0323,-0.05144,no
1616135453.559733,1,17.0,4.0,-16.0,75.0,58.0,0.899475,0.088013,-0.427979,-0.000854,-0.007634,0.007634,0.0,7.400244,1.611401,5.993408,-0.142358,0.05144,-0.063403,-0.044263,0.070581,-0.139966,no
1616135453.569514,1,19.0,3.0,-17.0,73.0,58.0,0.899475,0.087952,-0.427979,-0.000977,-0.007634,-0.015267,-0.007634,7.334448,1.617383,5.971875,-0.208154,0.058618,-0.084937,-0.070581,0.086133,-0.203369,no
1616135453.579653,1,17.0,4.0,-15.0,76.0,58.0,0.899292,0.08783,-0.428345,-0.001099,-0.015267,-0.038168,0.0,7.333252,1.599438,5.973071,-0.214136,0.04187,-0.077759,-0.077759,0.069385,-0.205762,no
1616135453.5888658,1,16.0,3.0,-18.0,75.0,57.0,0.899048,0.087646,-0.428894,-0.001221,-0.015267,-0.045802,0.0,7.376318,1.556372,5.985034,-0.178247,0.001196,-0.057422,-0.068188,0.023926,-0.172266,no
1616135453.5988212,1,16.0,4.0,-17.0,74.0,58.0,0.898804,0.087524,-0.429443,-0.001343,-0.007634,-0.038168,-0.007634,7.450488,1.502539,5.98982,-0.112451,-0.050244,-0.044263,-0.0323,-0.033496,-0.120825,no
1616135453.6097014,1,15.0,1.0,-16.0,74.0,58.0,0.898621,0.087463,-0.429871,-0.001404,0.0,-0.022901,-0.007634,7.54978,1.461865,6.007764,-0.017944,-0.089722,-0.019141,0.00957,-0.08374,-0.039478,no
1616135453.6195831,1,17.0,5.0,-16.0,77.0,59.0,0.89856,0.087585,-0.429993,-0.001282,0.007634,0.0,-0.007634,7.609595,1.463062,6.010156,0.038281,-0.089722,-0.014355,0.040674,-0.088525,0.005981,no
1616135453.6287158,1,18.0,5.0,-16.0,75.0,57.0,0.898621,0.08783,-0.429871,-0.001221,0.007634,0.007634,-0.007634,7.58208,1.504932,5.96709,0.011963,-0.05144,-0.059814,0.057422,-0.04187,-0.034692,no
1616135453.6388311,1,18.0,5.0,-33.0,74.0,58.0,0.898621,0.088013,-0.429688,-0.00116,0.0,0.007634,-0.007634,7.539014,1.575513,5.932397,-0.026318,0.015552,-0.095703,0.055029,0.0323,-0.076563,no
1616135453.649551,1,17.0,5.0,-18.0,75.0,50.0,0.898682,0.088074,-0.429626,-0.001282,-0.007634,0.0,-0.007634,7.481592,1.619775,5.896509,-0.082544,0.057422,-0.132788,0.045459,0.08374,-0.135181,no
1616135453.659549,1,16.0,5.0,-18.0,74.0,58.0,0.898682,0.087952,-0.429688,-0.001404,-0.015267,-0.015267,-0.007634,7.454077,1.613794,5.868994,-0.111255,0.052637,-0.160303,0.049048,0.084937,-0.175854,no
1616135453.6696205,1,17.0,3.0,-17.0,74.0,57.0,0.89856,0.087708,-0.429932,-0.001526,-0.015267,-0.015267,0.0,7.46604,1.559961,5.85105,-0.102881,0.002393,-0.174658,0.069385,0.037085,-0.185425,no
1616135453.6789336,1,17.0,7.0,-15.0,74.0,58.0,0.898499,0.087524,-0.430176,-0.001587,-0.007634,-0.015267,-0.007634,7.491162,1.500147,5.846265,-0.081348,-0.053833,-0.175854,0.088525,-0.019141,-0.179443,no
1616135453.6887712,1,17.0,5.0,-15.0,74.0,58.0,0.898438,0.087463,-0.430298,-0.001587,0.0,-0.007634,-0.007634,7.515088,1.478613,5.864209,-0.058618,-0.07417,-0.156714,0.088525,-0.043066,-0.153125,no
1616135453.6995184,1,17.0,4.0,-18.0,74.0,57.0,0.898376,0.087524,-0.430359,-0.001648,0.0,-0.007634,-0.007634,7.524658,1.501343,5.896509,-0.050244,-0.052637,-0.122021,0.065796,-0.028711,-0.122021,no
1616135453.7097116,1,17.0,4.0,-15.0,75.0,59.0,0.898376,0.087524,-0.430359,-0.001709,-0.007634,0.0,-0.007634,7.544995,1.546802,5.947949,-0.029907,-0.008374,-0.070581,0.035889,0.004785,-0.066992,no
1616135453.7188363,1,16.0,5.0,-15.0,75.0,57.0,0.898438,0.087524,-0.430298,-0.001831,-0.015267,0.0,-0.007634,7.56294,1.562353,5.98982,-0.010767,0.004785,-0.029907,0.015552,0.00957,-0.025122,no
1616135453.7290587,1,17.0,1.0,-17.0,74.0,58.0,0.898499,0.087341,-0.430115,-0.001953,-0.015267,0.007634,-0.007634,7.552173,1.558765,6.004175,-0.017944,0.003589,-0.019141,0.002393,0.007178,-0.023926,no
1616135453.7390354,1,18.0,3.0,-16.0,77.0,59.0,0.898621,0.087158,-0.429932,-0.002014,-0.015267,0.007634,-0.007634,7.547388,1.526465,6.006567,-0.021533,-0.025122,-0.020337,0.003589,-0.019141,-0.0323,no
1616135453.7490308,1,19.0,4.0,-17.0,75.0,58.0,0.898682,0.087097,-0.42981,-0.002075,-0.007634,0.007634,-0.007634,7.531836,1.483398,6.000586,-0.034692,-0.068188,-0.028711,0.004785,-0.059814,-0.055029,no
1616135453.759081,1,16.0,-5.0,-18.0,74.0,58.0,0.898743,0.087097,-0.429688,-0.002136,0.0,0.0,-0.015267,7.516284,1.44751,5.994605,-0.049048,-0.104077,-0.037085,0.004785,-0.092114,-0.076563,no
1616135453.7688987,1,16.0,4.0,-18.0,78.0,58.0,0.898743,0.08728,-0.429688,-0.002197,0.007634,0.0,-0.015267,7.485181,1.446314,6.001782,-0.080151,-0.108862,-0.029907,-0.019141,-0.095703,-0.096899,no
1616135453.7795584,1,17.0,4.0,-16.0,75.0,58.0,0.898743,0.087402,-0.429688,-0.002258,0.0,-0.015267,-0.015267,7.446899,1.485791,6.022119,-0.117236,-0.071777,-0.008374,-0.062207,-0.059814,-0.10647,no
1616135453.7895043,1,17.0,6.0,-15.0,75.0,58.0,0.898621,0.087463,-0.429871,-0.002441,-0.007634,-0.022901,-0.007634,7.43374,1.532446,6.042456,-0.132788,-0.027515,0.014355,-0.092114,-0.017944,-0.096899,no
1616135453.7996683,1,16.0,5.0,-17.0,76.0,58.0,0.898499,0.087341,-0.430176,-0.002686,-0.015267,-0.030534,-0.007634,7.460059,1.549194,6.061597,-0.110059,-0.010767,0.037085,-0.096899,-0.007178,-0.063403,no
1616135453.8087797,1,19.0,4.0,-15.0,73.0,58.0,0.898315,0.087158,-0.430603,-0.00293,-0.022901,-0.030534,-0.007634,7.506714,1.519287,6.044848,-0.069385,-0.039478,0.027515,-0.061011,-0.037085,-0.04187,no
1616135453.818872,1,19.0,5.0,-17.0,76.0,58.0,0.898132,0.086975,-0.430969,-0.003174,-0.015267,-0.030534,-0.015267,7.537817,1.47981,6.010156,-0.043066,-0.077759,0.0,-0.021533,-0.072974,-0.045459,no
1616135453.8289113,1,17.0,4.0,-17.0,76.0,58.0,0.89801,0.086914,-0.431335,-0.003357,-0.007634,-0.022901,-0.015267,7.564136,1.464258,5.975464,-0.021533,-0.093311,-0.029907,0.015552,-0.084937,-0.049048,no
1616135453.8389463,1,17.0,4.0,-17.0,76.0,58.0,0.897827,0.086914,-0.43158,-0.003479,-0.007634,-0.022901,-0.015267,7.583276,1.469043,5.943164,-0.004785,-0.089722,-0.056226,0.046655,-0.078955,-0.05144,no
1616135453.8488283,1,15.0,1.0,-18.0,73.0,58.0,0.897705,0.087036,-0.431824,-0.003662,0.0,-0.015267,-0.015267,7.580884,1.501343,5.921631,-0.010767,-0.061011,-0.07417,0.053833,-0.046655,-0.063403,no
1616135453.85892,1,17.0,4.0,-18.0,78.0,58.0,0.897583,0.087036,-0.432068,-0.003906,-0.007634,-0.022901,-0.015267,7.58208,1.539624,5.906079,-0.011963,-0.023926,-0.084937,0.059814,-0.00957,-0.0646,no
1616135453.8687522,1,17.0,8.0,-18.0,74.0,58.0,0.897461,0.086975,-0.432373,-0.004089,-0.015267,-0.022901,-0.007634,7.579688,1.556372,5.867798,-0.017944,-0.007178,-0.118433,0.080151,0.011963,-0.087329,no
1616135453.878722,1,19.0,-6.0,-17.0,78.0,58.0,0.897278,0.086853,-0.432739,-0.004333,-0.015267,-0.022901,-0.007634,7.617969,1.545605,5.861816,0.014355,-0.017944,-0.118433,0.101685,0.0,-0.063403,no
1616135453.888721,1,16.0,1.0,-16.0,79.0,58.0,0.897156,0.086792,-0.433044,-0.004517,-0.015267,-0.015267,-0.015267,7.649072,1.528857,5.847461,0.04187,-0.034692,-0.128003,0.128003,-0.017944,-0.050244,no
1616135453.8987854,1,17.0,5.0,-16.0,75.0,58.0,0.897034,0.086792,-0.433228,-0.0047,-0.007634,-0.007634,-0.015267,7.640698,1.522876,5.823535,0.031104,-0.04187,-0.14834,0.137573,-0.020337,-0.071777,no
1616135453.908844,1,16.0,4.0,-18.0,74.0,58.0,0.896973,0.086853,-0.43335,-0.004822,0.0,-0.007634,-0.015267,7.619165,1.54082,5.807983,0.008374,-0.026318,-0.161499,0.131592,-0.001196,-0.095703,no
1616135453.918857,1,16.0,5.0,-16.0,60.0,57.0,0.896973,0.086975,-0.433411,-0.005005,-0.007634,-0.007634,-0.015267,7.600024,1.567139,5.799609,-0.010767,-0.003589,-0.169873,0.12561,0.022729,-0.111255,no
1616135453.9287302,1,17.0,5.0,-18.0,80.0,58.0,0.896912,0.087036,-0.433533,-0.005188,-0.007634,-0.007634,-0.007634,7.580884,1.583887,5.791235,-0.031104,0.00957,-0.175854,0.11604,0.038281,-0.129199,no
1616135453.93866,1,19.0,7.0,-17.0,77.0,58.0,0.896851,0.086975,-0.433655,-0.00531,-0.015267,-0.007634,-0.007634,7.546191,1.606616,5.766113,-0.066992,0.0323,-0.198584,0.110059,0.066992,-0.16748,no
1616135453.9487069,1,16.0,3.0,-18.0,79.0,58.0,0.89679,0.086914,-0.433777,-0.005493,-0.015267,-0.007634,-0.007634,7.518677,1.618579,5.75415,-0.095703,0.043066,-0.209351,0.100488,0.081348,-0.193799,no
1616135453.9588108,1,18.0,4.0,-18.0,76.0,58.0,0.896729,0.086731,-0.433899,-0.005676,-0.022901,-0.007634,-0.007634,7.492358,1.603027,5.749365,-0.123218,0.029907,-0.211743,0.086133,0.071777,-0.218921,no
1616135453.968663,1,16.0,7.0,-15.0,46.0,58.0,0.896729,0.086548,-0.434021,-0.005859,-0.015267,-0.015267,-0.007634,7.473218,1.57312,5.737402,-0.144751,0.001196,-0.223706,0.08374,0.046655,-0.247632,no
1616135453.9787643,1,17.0,1.0,-19.0,74.0,58.0,0.896667,0.086487,-0.434143,-0.006042,-0.015267,-0.015267,-0.015267,7.482788,1.549194,5.740991,-0.136377,-0.021533,-0.217725,0.086133,0.022729,-0.24165,no
1616135453.988748,1,19.0,4.0,-16.0,74.0,58.0,0.896545,0.086426,-0.434326,-0.006226,-0.007634,-0.007634,-0.015267,7.506714,1.539624,5.742188,-0.114844,-0.031104,-0.212939,0.095703,0.010767,-0.223706,no
1616135453.9989357,1,20.0,7.0,-15.0,76.0,58.0,0.896545,0.086426,-0.434387,-0.006348,-0.007634,-0.007634,-0.015267,7.51748,1.537231,5.742188,-0.104077,-0.034692,-0.212939,0.102881,0.005981,-0.215332,no
1616135454.0088491,1,18.0,5.0,-16.0,79.0,58.0,0.896545,0.086365,-0.434387,-0.006531,-0.007634,0.0,-0.015267,7.547388,1.538428,5.750562,-0.07417,-0.034692,-0.204565,0.114844,0.002393,-0.186621,no
1616135454.0187762,1,13.0,3.0,-18.0,72.0,58.0,0.896606,0.086365,-0.434265,-0.006714,-0.007634,0.007634,-0.015267,7.585669,1.542017,5.755347,-0.033496,-0.0323,-0.200977,0.137573,0.0,-0.153125,no
1616135454.028739,1,17.0,5.0,-18.0,77.0,56.0,0.896729,0.086304,-0.434021,-0.006897,-0.015267,0.022901,-0.015267,7.59165,1.539624,5.72544,-0.023926,-0.035889,-0.235669,0.169873,0.001196,-0.16748,no
1616135454.0386658,1,15.0,3.0,-18.0,74.0,58.0,0.896912,0.086243,-0.433655,-0.006897,-0.007634,0.022901,-0.007634,7.610791,1.546802,5.695532,0.0,-0.027515,-0.271558,0.212939,0.013159,-0.168677,no
1616135454.0487375,1,16.0,4.0,-16.0,73.0,58.0,0.897034,0.086426,-0.433411,-0.006836,0.007634,0.022901,0.0,7.726831,1.624561,5.736206,0.117236,0.046655,-0.235669,0.253613,0.070581,-0.044263,no
1616135454.0585952,1,16.0,5.0,-16.0,74.0,58.0,0.897034,0.086914,-0.433289,-0.00647,0.038168,0.015267,0.007634,7.960107,1.691553,5.883349,0.352905,0.107666,-0.088525,0.282324,0.088525,0.236865,no
1616135454.0686774,1,19.0,7.0,-15.0,75.0,58.0,0.896667,0.087952,-0.433777,-0.005249,0.114504,-0.053435,0.053435,8.196973,1.672412,6.148926,0.581396,0.081348,0.189014,0.209351,0.001196,0.579004,no
1616135454.0788538,1,20.0,9.0,-14.0,74.0,59.0,0.895447,0.089539,-0.436035,-0.002258,0.198473,-0.175573,0.152672,8.612085,1.73103,6.523364,0.963013,0.139966,0.606519,0.112451,-0.037085,1.140064,no
1616135454.0886476,1,19.0,10.0,-10.0,74.0,58.0,0.893738,0.091309,-0.439087,0.002197,0.221374,-0.183206,0.236641,9.02002,2.012158,6.614282,1.324292,0.430664,0.757251,0.183032,0.197388,1.561157,no
1616135454.0985134,1,20.0,13.0,-10.0,73.0,58.0,0.8927,0.092651,-0.440857,0.006958,0.175573,-0.038168,0.251908,8.854932,2.199975,6.214722,1.128101,0.638818,0.392383,0.320605,0.482104,1.223804,no
1616135454.10851,1,19.0,10.0,-6.0,71.0,58.0,0.894104,0.091919,-0.438171,0.011108,-0.015267,0.305344,0.229008,7.139453,2.266968,5.316308,-0.558667,0.75127,-0.553882,0.013159,0.868506,-0.65437,no
1616135454.118734,1,21.0,11.0,-3.0,75.0,58.0,0.895996,0.091675,-0.434326,0.009521,-0.114504,0.229008,-0.10687,6.552075,2.45957,4.691846,-1.092212,0.929517,-1.245337,0.196191,1.196289,-1.460669,no
1616135454.1286335,1,22.0,13.0,-3.0,74.0,58.0,0.898315,0.089233,-0.430176,0.006775,-0.259542,0.29771,-0.099237,7.385889,2.199975,5.291186,-0.19978,0.685474,-0.724951,0.372046,0.807495,-0.492871,no
1616135454.1385674,1,22.0,11.0,-1.0,75.0,58.0,0.901245,0.085266,-0.424744,0.00415,-0.320611,0.396947,-0.076336,7.428955,1.875781,5.351001,-0.080151,0.403149,-0.769214,0.504834,0.522778,-0.480908,no
1616135454.1486847,1,22.0,15.0,-2.0,73.0,58.0,0.904297,0.081238,-0.419067,0.001587,-0.282443,0.381679,-0.099237,7.095191,1.291992,5.321094,-0.334961,-0.133984,-0.906787,0.478516,0.023926,-0.849365,no
1616135454.158614,1,20.0,11.0,-1.0,72.0,59.0,0.906799,0.078491,-0.414124,-0.000732,-0.175573,0.29771,-0.129771,6.66333,0.720166,5.348608,-0.695044,-0.680689,-0.967798,0.313428,-0.488086,-1.242944,no
1616135454.1686466,1,21.0,11.0,-1.0,73.0,58.0,0.908508,0.077515,-0.410522,-0.002563,-0.045802,0.19084,-0.137405,6.355884,0.196191,5.49336,-0.949854,-1.204663,-0.884058,0.100488,-1.00249,-1.454687,no
1616135454.178717,1,22.0,12.0,-1.0,75.0,59.0,0.909424,0.078369,-0.408386,-0.003845,0.083969,0.083969,-0.160305,6.164477,-0.161499,5.726636,-1.10896,-1.588672,-0.683081,-0.139966,-1.394873,-1.500147,no
1616135454.1886528,1,21.0,14.0,-2.0,74.0,58.0,0.909546,0.081299,-0.407471,-0.004944,0.206107,0.0,-0.198473,6.093896,-0.34812,5.97666,-1.161597,-1.836304,-0.437842,-0.344531,-1.660449,-1.42478,no
1616135454.1986446,1,22.0,13.0,-1.0,73.0,61.0,0.908997,0.08606,-0.407776,-0.005981,0.305344,-0.083969,-0.229008,6.054419,-0.385205,6.165674,-1.199878,-1.965503,-0.229687,-0.513208,-1.804004,-1.354199,no
1616135454.2087169,1,21.0,13.0,-2.0,79.0,58.0,0.907715,0.092468,-0.40918,-0.006836,0.40458,-0.167939,-0.236641,5.988623,-0.281128,6.314013,-1.277637,-1.981055,-0.035889,-0.697437,-1.82793,-1.313525,no
1616135454.2185974,1,22.0,12.0,-3.0,74.0,58.0,0.905762,0.10022,-0.411621,-0.007324,0.473282,-0.244275,-0.229008,5.949145,0.05144,6.416894,-1.343433,-1.78606,0.135181,-0.864917,-1.644897,-1.24773,no
1616135454.2286055,1,22.0,10.0,-8.0,73.0,58.0,0.903381,0.108765,-0.414734,-0.007568,0.496183,-0.267176,-0.21374,6.180029,0.783569,6.559253,-1.146045,-1.203467,0.362476,-0.930713,-1.124512,-0.870898,no
1616135454.238752,1,19.0,10.0,-11.0,73.0,58.0,0.901489,0.116516,-0.416687,-0.008179,0.358779,-0.152672,-0.183206,6.633423,1.930811,7.003076,-0.709399,-0.193799,0.872095,-1.102978,-0.285913,-0.027515,no
1616135454.2486928,1,20.0,5.0,-14.0,72.0,57.0,0.901001,0.121094,-0.416382,-0.010315,0.068702,0.0,-0.175573,7.004272,3.29458,7.15979,-0.324194,1.071875,1.045557,-1.086231,0.858936,0.651978,no
1616135454.258588,1,20.0,1.0,-18.0,74.0,58.0,0.901855,0.121521,-0.414307,-0.014404,-0.236641,0.10687,-0.175573,7.251904,4.100879,7.279419,-0.037085,1.835107,1.132886,-1.010864,1.549194,1.106567,no
1616135454.2686002,1,16.0,-1.0,-21.0,73.0,57.0,0.903381,0.117676,-0.411804,-0.019836,-0.465649,0.10687,-0.167939,6.998291,4.155908,7.06648,-0.246436,1.91167,0.861328,-0.923535,1.720264,0.800317,no
1616135454.27868,1,17.0,-1.0,-23.0,74.0,58.0,0.904724,0.111267,-0.4104,-0.025818,-0.564885,0.022901,-0.160305,6.912158,3.60083,6.827222,-0.308643,1.419995,0.57063,-0.693848,1.321899,0.452197,no
1616135454.2884767,1,13.0,-5.0,-26.0,76.0,58.0,0.905334,0.104004,-0.410522,-0.031189,-0.51145,-0.061069,-0.129771,7.163379,2.752661,6.670508,-0.057422,0.655566,0.385205,-0.345728,0.584985,0.344531,no
1616135454.2984953,1,16.0,-3.0,-24.0,74.0,55.0,0.905212,0.098389,-0.411865,-0.035034,-0.335878,-0.10687,-0.10687,7.553369,1.890137,6.48269,0.313428,-0.137573,0.197388,0.059814,-0.208154,0.328979,no
1616135454.3086324,1,13.0,-3.0,-26.0,73.0,56.0,0.904541,0.095093,-0.41394,-0.037048,-0.152672,-0.129771,-0.068702,7.932593,1.387695,6.342725,0.662744,-0.598145,0.077759,0.381616,-0.692651,0.419897,no
1616135454.3184452,1,11.0,-3.0,-27.0,76.0,55.0,0.903503,0.094238,-0.416321,-0.037781,-0.007634,-0.145038,-0.038168,8.293872,1.39248,6.369043,0.990527,-0.583789,0.139966,0.543115,-0.735718,0.708203,no
1616135454.3285563,1,13.0,-1.0,-29.0,74.0,57.0,0.902222,0.09491,-0.419006,-0.037903,0.061069,-0.167939,-0.015267,8.78435,1.704712,6.596338,1.445117,-0.284717,0.41272,0.620874,-0.549097,1.283618,no
1616135454.338493,1,13.0,0.0,-28.0,75.0,55.0,0.900757,0.096313,-0.421814,-0.037109,0.114504,-0.160305,0.030534,9.441113,2.038476,6.916944,2.063599,0.031104,0.785962,0.71897,-0.386401,2.050439,no
1616135454.348489,1,17.0,5.0,-25.0,77.0,58.0,0.899414,0.097839,-0.4245,-0.034729,0.167939,-0.137405,0.122137,9.821533,2.164087,6.971972,2.404541,0.149536,0.891235,0.842188,-0.333765,2.403345,no
1616135454.358078,1,19.0,6.0,-20.0,73.0,58.0,0.897827,0.099609,-0.427856,-0.030273,0.236641,-0.198473,0.244275,9.764112,2.409326,6.939673,2.293286,0.401953,0.921143,0.723755,-0.066992,2.394971,no
1616135454.367883,1,19.0,9.0,-17.0,75.0,58.0,0.895813,0.100647,-0.432251,-0.023743,0.236641,-0.267176,0.419847,9.506909,2.528955,6.828418,1.964307,0.559863,0.888843,0.509619,0.150732,2.162891,no
1616135454.3777614,1,19.0,11.0,-11.0,73.0,58.0,0.893738,0.100525,-0.43689,-0.015015,0.229008,-0.244275,0.557252,8.680273,2.673706,6.206347,1.056323,0.783569,0.345728,0.332568,0.588574,1.179541,no
1616135454.3877306,1,21.0,13.0,-8.0,31.0,58.0,0.892151,0.100708,-0.440308,-0.005798,0.244275,-0.152672,0.549618,7.187304,2.667725,5.187109,-0.500049,0.856543,-0.613696,0.108862,0.995313,-0.596948,no
1616135454.3978686,1,19.0,12.0,-3.0,77.0,89.0,0.892212,0.100586,-0.440186,0.001404,0.10687,0.083969,0.381679,4.944263,2.939282,3.838892,-2.755054,1.191504,-1.964307,-0.252417,1.758545,-3.115137,no
1616135454.4084935,1,22.0,12.0,-3.0,75.0,58.0,0.891479,0.102966,-0.441162,0.001953,0.068702,-0.091603,-0.007634,5.400049,3.44292,4.367651,-2.31123,1.660449,-1.409229,-0.459375,2.087524,-2.347119,no
1616135454.4177248,1,22.0,14.0,-3.0,74.0,60.0,0.891846,0.101685,-0.440735,0.001221,-0.175573,0.053435,0.038168,6.919336,3.497949,5.127295,-0.787158,1.729834,-0.661548,-0.119629,1.882959,-0.697437,no
1616135454.428528,1,22.0,15.0,-3.0,74.0,58.0,0.893494,0.097534,-0.438293,0.000732,-0.312977,0.259542,0.099237,7.649072,3.287402,5.146436,-0.027515,1.585083,-0.701025,0.393579,1.67959,-0.163892,no
1616135454.4378214,1,20.0,13.0,-3.0,79.0,58.0,0.89624,0.092346,-0.433838,0.000488,-0.312977,0.389313,0.076336,7.859619,2.576807,5.030396,0.236865,0.958228,-0.912769,0.778784,1.074268,-0.210547,no
1616135454.4477875,1,22.0,11.0,-2.0,76.0,58.0,0.899475,0.088257,-0.427979,0.000122,-0.206107,0.442748,0.0,7.54021,1.629346,4.840186,-0.004785,0.07417,-1.216626,0.927124,0.265576,-0.742895,no
1616135454.457943,1,22.0,13.0,-1.0,73.0,58.0,0.902222,0.086121,-0.422607,6.1e-05,-0.053435,0.351145,-0.038168,6.785352,0.625659,4.617676,-0.687866,-0.896021,-1.536035,0.794336,-0.593359,-1.628149,no
1616135454.467764,1,22.0,12.0,-2.0,73.0,58.0,0.903625,0.086731,-0.419373,0.000549,0.137405,0.152672,-0.083969,6.026904,-0.193799,4.557861,-1.400854,-1.725049,-1.646094,0.466553,-1.338647,-2.373437,no
1616135454.477744,1,22.0,13.0,-3.0,72.0,58.0,0.903381,0.090271,-0.419128,0.001221,0.320611,-0.076336,-0.129771,5.458667,-0.66394,4.666724,-1.964307,-2.251416,-1.528857,0.058618,-1.818359,-2.818457,no
1616135454.4885983,1,22.0,13.0,-4.0,60.0,58.0,0.901428,0.096619,-0.421936,0.002014,0.465649,-0.29771,-0.160305,5.118921,-0.77041,4.815063,-2.338745,-2.460767,-1.311133,-0.299072,-2.001392,-3.023022,no
1616135454.4985511,1,22.0,12.0,-6.0,72.0,58.0,0.897827,0.104858,-0.427551,0.002991,0.557252,-0.480916,-0.152672,5.163184,-0.479712,4.966992,-2.36626,-2.299268,-1.033594,-0.489282,-1.850659,-2.877075,no
1616135454.50803,1,22.0,11.0,-8.0,74.0,58.0,0.893494,0.113708,-0.434448,0.004272,0.557252,-0.503817,-0.122137,5.985034,0.311035,5.407227,-1.631738,-1.643701,-0.439038,-0.500049,-1.361377,-1.857837,no
1616135454.5177362,1,22.0,4.0,-10.0,74.0,58.0,0.89032,0.120728,-0.438965,0.005127,0.335878,-0.259542,-0.076336,7.503125,1.757349,6.20874,-0.168677,-0.305054,0.471338,-0.435449,-0.382812,0.078955,no
1616135454.527781,1,20.0,8.0,-12.0,72.0,58.0,0.889954,0.123352,-0.439026,0.004333,-0.022901,0.061069,-0.045802,8.673096,3.218018,6.815259,1.003687,1.102978,1.091016,-0.362476,0.723755,1.660449,no
1616135454.537768,1,19.0,5.0,-16.0,75.0,58.0,0.892029,0.121094,-0.435425,0.001648,-0.343511,0.282443,-0.053435,9.077441,3.893921,7.074853,1.459473,1.789648,1.277637,-0.279932,1.30874,2.272949,no
1616135454.547819,1,17.0,0.0,-19.0,72.0,58.0,0.895264,0.115234,-0.430298,-0.002258,-0.519084,0.335878,-0.061069,8.738892,3.736011,7.027002,1.1927,1.693945,1.116138,-0.270361,1.296777,1.94397,no
1616135454.5580094,1,17.0,1.0,-22.0,76.0,58.0,0.898193,0.107849,-0.426025,-0.006287,-0.541985,0.236641,-0.045802,8.186206,3.013452,6.784155,0.698633,1.062305,0.769214,-0.229687,0.819458,1.216626,no
1616135454.56785,1,14.0,-1.0,-21.0,73.0,58.0,0.899963,0.100708,-0.424072,-0.009155,-0.427481,0.083969,-0.007634,7.879956,2.063599,6.519775,0.417505,0.210547,0.442627,-0.084937,0.086133,0.631641,no
1616135454.5777087,1,16.0,0.0,-22.0,73.0,58.0,0.900452,0.095459,-0.424133,-0.010132,-0.244275,-0.022901,0.038168,7.810571,1.23457,6.31521,0.343335,-0.533545,0.220117,0.08374,-0.593359,0.301465,no
1616135454.5879705,1,17.0,-1.0,-20.0,74.0,58.0,0.900146,0.092773,-0.425476,-0.009644,-0.061069,-0.083969,0.053435,8.009155,0.856543,6.311621,0.519189,-0.860132,0.228491,0.208154,-0.930713,0.387598,no
1616135454.5976968,1,13.0,-1.0,-20.0,78.0,55.0,0.899536,0.092102,-0.426819,-0.008484,0.038168,-0.076336,0.053435,8.200562,0.947461,6.433642,0.690259,-0.746484,0.37085,0.19978,-0.856543,0.629248,no
1616135454.6077576,1,15.0,-3.0,-22.0,73.0,58.0,0.899048,0.092712,-0.427734,-0.007446,0.061069,-0.053435,0.038168,8.206543,1.302759,6.481494,0.681885,-0.392383,0.436646,0.120825,-0.517993,0.723755,no
1616135454.6176488,1,13.0,-3.0,-18.0,73.0,58.0,0.898804,0.093445,-0.428162,-0.006775,0.030534,-0.022901,0.030534,7.945752,1.71189,6.386987,0.415112,0.008374,0.351709,-0.008374,-0.086133,0.535937,no
1616135454.6276484,1,16.0,-1.0,-23.0,74.0,59.0,0.898682,0.093689,-0.428345,-0.006714,-0.022901,-0.022901,0.015267,7.629931,2.051636,6.21831,0.096899,0.344531,0.186621,-0.105273,0.299072,0.248828,no
1616135454.6377585,1,14.0,0.0,-20.0,73.0,56.0,0.89856,0.093384,-0.42865,-0.007141,-0.061069,-0.038168,0.007634,7.422974,2.189209,6.07356,-0.112451,0.484497,0.045459,-0.137573,0.478516,0.025122,no
1616135454.6477556,1,13.0,-2.0,-23.0,72.0,56.0,0.898376,0.092468,-0.429321,-0.007812,-0.083969,-0.053435,0.0,7.263867,2.156909,5.906079,-0.281128,0.462964,-0.113647,-0.119629,0.498853,-0.205762,no
1616135454.6577227,1,17.0,-3.0,-20.0,73.0,54.0,0.89801,0.09137,-0.430237,-0.008484,-0.083969,-0.076336,0.0,7.195679,2.049243,5.782861,-0.361279,0.368457,-0.224902,-0.076563,0.430664,-0.352905,no
1616135454.6678855,1,15.0,-1.0,-20.0,71.0,56.0,0.897583,0.09021,-0.431396,-0.009094,-0.076336,-0.083969,0.0,7.190894,1.92124,5.694336,-0.381616,0.257202,-0.297876,-0.023926,0.333765,-0.433057,no
1616135454.6779594,1,15.0,-1.0,-22.0,73.0,56.0,0.897095,0.089294,-0.432556,-0.009644,-0.068702,-0.083969,-0.007634,7.242334,1.802808,5.646484,-0.345728,0.150732,-0.328979,0.029907,0.230884,-0.442627,no
1616135454.6877794,1,15.0,-1.0,-22.0,73.0,55.0,0.896667,0.088501,-0.433655,-0.010132,-0.053435,-0.068702,-0.007634,7.378711,1.677197,5.63811,-0.224902,0.034692,-0.321802,0.107666,0.102881,-0.363672,no
1616135454.6976197,1,16.0,-1.0,-18.0,74.0,58.0,0.896301,0.087952,-0.434448,-0.010376,-0.030534,-0.038168,-0.007634,7.534228,1.567139,5.62854,-0.078955,-0.065796,-0.319409,0.203369,-0.00957,-0.265576,no
1616135454.7078736,1,13.0,0.0,-20.0,73.0,72.0,0.896179,0.087646,-0.434753,-0.010376,-0.007634,0.0,-0.007634,7.639502,1.502539,5.605811,0.020337,-0.124414,-0.337354,0.282324,-0.07417,-0.209351,no
1616135454.717767,1,15.0,3.0,-22.0,74.0,57.0,0.896301,0.087708,-0.43457,-0.010315,0.0,0.030534,-0.007634,7.644287,1.497754,5.55437,0.027515,-0.130396,-0.392383,0.330176,-0.071777,-0.238062,no
1616135454.7278,1,16.0,-1.0,-19.0,73.0,57.0,0.896484,0.087891,-0.434143,-0.010254,0.007634,0.038168,-0.007634,7.597632,1.528857,5.53523,-0.011963,-0.101685,-0.418701,0.324194,-0.035889,-0.279932,no
1616135454.7377777,1,16.0,3.0,-20.0,71.0,58.0,0.896667,0.088074,-0.433716,-0.010193,0.007634,0.030534,-0.007634,7.515088,1.538428,5.547193,-0.089722,-0.095703,-0.41272,0.270361,-0.023926,-0.336157,no
1616135454.7477922,1,16.0,0.0,-21.0,73.0,56.0,0.896729,0.088196,-0.433533,-0.010193,0.0,-0.007634,-0.007634,7.316504,1.557568,5.536426,-0.284717,-0.078955,-0.425879,0.15791,0.011963,-0.492871,no
1616135454.7577116,1,19.0,0.0,-19.0,75.0,56.0,0.896484,0.088257,-0.434021,-0.010193,-0.007634,-0.053435,0.0,7.271045,1.599438,5.658447,-0.337354,-0.037085,-0.295483,0.021533,0.039478,-0.447412,no
1616135454.7678137,1,18.0,1.0,-19.0,74.0,55.0,0.895996,0.088074,-0.435059,-0.010193,-0.015267,-0.091603,0.015267,7.355981,1.61499,5.804395,-0.265576,-0.017944,-0.132788,-0.059814,0.026318,-0.289502,no
1616135454.7778893,1,17.0,1.0,-17.0,74.0,56.0,0.895447,0.087646,-0.43634,-0.010071,-0.015267,-0.099237,0.022901,7.497144,1.641309,5.931201,-0.143555,0.016748,0.013159,-0.099292,0.027515,-0.100488,no
1616135454.7879095,1,16.0,-1.0,-20.0,76.0,57.0,0.894897,0.087158,-0.4375,-0.009888,-0.022901,-0.076336,0.022901,7.759131,1.644897,6.058008,0.101685,0.031104,0.15791,-0.062207,-0.001196,0.179443,no
1616135454.7976062,1,15.0,-1.0,-34.0,69.0,57.0,0.894653,0.086792,-0.43811,-0.009705,-0.015267,-0.022901,0.015267,7.991211,1.586279,6.107056,0.324194,-0.017944,0.216528,0.029907,-0.078955,0.38042,no
1616135454.8078434,1,16.0,1.0,-20.0,74.0,58.0,0.894714,0.08667,-0.437988,-0.009338,0.007634,0.030534,0.007634,8.079737,1.504932,6.079541,0.413916,-0.094507,0.186621,0.113647,-0.15791,0.419897,no
1616135454.8175778,1,17.0,-1.0,-19.0,74.0,58.0,0.89502,0.086853,-0.437317,-0.00885,0.022901,0.053435,0.007634,8.053418,1.477417,6.014941,0.395972,-0.122021,0.111255,0.163892,-0.172266,0.355298,no
1616135454.827712,1,16.0,1.0,-18.0,72.0,58.0,0.895447,0.087219,-0.436462,-0.008301,0.030534,0.061069,0.007634,7.975659,1.532446,5.963501,0.328979,-0.068188,0.045459,0.171069,-0.102881,0.272754,no
1616135454.8376477,1,15.0,0.0,-20.0,76.0,58.0,0.895813,0.087646,-0.435547,-0.007874,0.022901,0.061069,0.007634,7.81416,1.632935,5.903687,0.179443,0.026318,-0.026318,0.129199,0.013159,0.128003,no
1616135454.8475957,1,16.0,3.0,-18.0,74.0,55.0,0.896179,0.087952,-0.434753,-0.00769,0.007634,0.045802,0.0,7.547388,1.727441,5.811572,-0.075366,0.11604,-0.131592,0.047852,0.139966,-0.118433,no
1616135454.8577716,1,15.0,3.0,-20.0,75.0,56.0,0.896362,0.088074,-0.434387,-0.007874,-0.015267,0.0,-0.007634,7.341626,1.765723,5.778076,-0.276343,0.150732,-0.171069,-0.047852,0.198584,-0.293091,no
1616135454.8676383,1,17.0,1.0,-17.0,75.0,56.0,0.896301,0.087891,-0.43457,-0.008179,-0.030534,-0.030534,-0.007634,7.303345,1.746582,5.819946,-0.31582,0.132788,-0.126807,-0.105273,0.178247,-0.300269,no
1616135454.877792,1,18.0,3.0,-18.0,72.0,56.0,0.896118,0.087402,-0.435059,-0.008484,-0.038168,-0.045802,0.0,7.354785,1.681982,5.859424,-0.271558,0.07417,-0.080151,-0.110059,0.108862,-0.247632,no
1616135454.8876913,1,13.0,4.0,-19.0,77.0,57.0,0.895874,0.086731,-0.435608,-0.008606,-0.038168,-0.038168,0.0,7.503125,1.591064,5.90249,-0.130396,-0.004785,-0.029907,-0.056226,0.010767,-0.119629,no
1616135454.8977125,1,19.0,1.0,-21.0,68.0,58.0,0.895813,0.086365,-0.435852,-0.008606,-0.015267,-0.007634,0.0,7.611987,1.476221,5.89292,-0.025122,-0.113647,-0.037085,0.019141,-0.104077,-0.059814,no
1616135454.9076817,1,13.0,1.0,-20.0,74.0,58.0,0.895874,0.086304,-0.43573,-0.008362,0.007634,0.015267,0.0,7.650269,1.390088,5.849854,0.013159,-0.196191,-0.082544,0.08374,-0.181836,-0.070581,no
1616135454.9177752,1,15.0,-5.0,-19.0,70.0,57.0,0.895996,0.086609,-0.435364,-0.007935,0.030534,0.030534,0.007634,7.625146,1.374536,5.805591,-0.005981,-0.214136,-0.130396,0.111255,-0.19021,-0.117236,no
1616135454.9277508,1,16.0,0.0,-18.0,73.0,56.0,0.896179,0.087158,-0.434998,-0.007507,0.038168,0.030534,0.0,7.578491,1.439136,5.782861,-0.049048,-0.155518,-0.159106,0.102881,-0.124414,-0.159106,no
1616135454.9376514,1,16.0,3.0,-18.0,72.0,54.0,0.896301,0.087769,-0.434631,-0.007141,0.038168,0.015267,0.0,7.51748,1.539624,5.770898,-0.105273,-0.062207,-0.174658,0.07417,-0.025122,-0.197388,no
1616135456.275744,1,18.0,4.0,-18.0,75.0,58.0,0.893005,0.090637,-0.440796,-0.004456,-0.007634,0.007634,-0.007634,7.694531,1.583887,5.731421,-0.011963,-0.040674,-0.098096,0.071777,-0.022729,-0.07417,no
1616135456.2857697,1,20.0,4.0,-20.0,73.0,59.0,0.893066,0.090637,-0.440674,-0.004517,-0.007634,0.007634,0.0,7.684961,1.610205,5.706299,-0.020337,-0.014355,-0.12561,0.087329,0.007178,-0.092114,no
1616135456.2958388,1,15.0,4.0,-19.0,74.0,58.0,0.893127,0.090576,-0.440491,-0.004517,-0.007634,0.015267,0.0,7.676587,1.620972,5.677588,-0.025122,-0.002393,-0.15791,0.108862,0.023926,-0.113647,no
1616135456.305946,1,20.0,5.0,-15.0,76.0,58.0,0.89325,0.090515,-0.440308,-0.004456,-0.007634,0.015267,0.0,7.655054,1.613794,5.642896,-0.045459,-0.008374,-0.196191,0.126807,0.026318,-0.153125,no
1616135456.3157735,1,19.0,5.0,-16.0,76.0,27.0,0.893311,0.090515,-0.440186,-0.004395,0.0,0.007634,0.0,7.621558,1.620972,5.633325,-0.077759,-0.001196,-0.206958,0.114844,0.038281,-0.184229,no
1616135456.3259685,1,17.0,4.0,-18.0,73.0,57.0,0.893372,0.090515,-0.440063,-0.004395,-0.007634,0.0,0.0,7.589258,1.64729,5.66084,-0.107666,0.023926,-0.181836,0.075366,0.061011,-0.189014,no
1616135456.335701,1,19.0,5.0,-19.0,74.0,58.0,0.893372,0.090454,-0.440063,-0.004395,-0.015267,-0.007634,0.0,7.552173,1.665234,5.694336,-0.144751,0.043066,-0.14834,0.023926,0.077759,-0.194995,no
1616135456.3456798,1,19.0,5.0,-16.0,78.0,59.0,0.893372,0.090271,-0.440125,-0.004456,-0.015267,-0.015267,0.0,7.546191,1.664038,5.739795,-0.151929,0.044263,-0.102881,-0.014355,0.072974,-0.172266,no
1616135456.355932,1,17.0,5.0,-17.0,74.0,58.0,0.893311,0.090027,-0.440308,-0.004578,-0.022901,-0.015267,0.0,7.574903,1.623364,5.781665,-0.12561,0.007178,-0.058618,-0.031104,0.026318,-0.131592,no
1616135456.365912,1,17.0,4.0,-18.0,77.0,58.0,0.89325,0.089783,-0.44043,-0.0047,-0.015267,-0.015267,0.0,7.649072,1.571924,5.829516,-0.052637,-0.039478,-0.00957,-0.021533,-0.0323,-0.052637,no
1616135456.3757918,1,18.0,5.0,-17.0,76.0,58.0,0.89325,0.0896,-0.440491,-0.004639,-0.007634,0.0,0.0,7.719653,1.526465,5.863013,0.015552,-0.081348,0.022729,-0.002393,-0.084937,0.011963,no
1616135456.3858972,1,22.0,4.0,-20.0,76.0,58.0,0.893372,0.0896,-0.440247,-0.004517,0.0,0.015267,0.0,7.73999,1.515698,5.874976,0.038281,-0.092114,0.031104,0.004785,-0.098096,0.033496,no
1616135456.3957274,1,20.0,1.0,-20.0,77.0,58.0,0.893494,0.089722,-0.439941,-0.004395,0.007634,0.022901,0.0,7.699317,1.533643,5.85105,0.002393,-0.075366,0.002393,0.004785,-0.07417,-0.008374,no
1616135456.4056592,1,15.0,5.0,-17.0,75.0,59.0,0.893616,0.089966,-0.439636,-0.004272,0.007634,0.015267,0.0,7.644287,1.579102,5.833106,-0.047852,-0.0323,-0.019141,-0.011963,-0.023926,-0.053833,no
1616135456.4158118,1,19.0,6.0,-18.0,73.0,60.0,0.893677,0.090088,-0.439514,-0.004272,0.0,0.0,0.0,7.576098,1.635327,5.823535,-0.114844,0.020337,-0.029907,-0.047852,0.033496,-0.104077,no
1616135456.4256816,1,20.0,5.0,-19.0,74.0,58.0,0.893616,0.090088,-0.439575,-0.004333,-0.007634,-0.015267,0.0,7.537817,1.666431,5.825928,-0.153125,0.050244,-0.026318,-0.076563,0.065796,-0.126807,no
1616135456.4360816,1,19.0,5.0,-16.0,76.0,58.0,0.893494,0.089966,-0.43988,-0.004395,-0.015267,-0.030534,0.0,7.528247,1.653271,5.822339,-0.166284,0.039478,-0.025122,-0.084937,0.056226,-0.13877,no
1616135456.4457982,1,17.0,3.0,-18.0,75.0,59.0,0.893311,0.089722,-0.440308,-0.004517,-0.015267,-0.030534,0.0,7.55935,1.609009,5.821143,-0.141162,0.0,-0.020337,-0.069385,0.014355,-0.122021,no
1616135456.4557805,1,19.0,4.0,-18.0,74.0,58.0,0.893127,0.0896,-0.440674,-0.004517,-0.007634,-0.030534,0.0,7.626343,1.568335,5.822339,-0.078955,-0.038281,-0.013159,-0.034692,-0.028711,-0.075366,no
1616135456.4657028,1,20.0,7.0,-18.0,76.0,59.0,0.893005,0.089478,-0.440979,-0.004517,-0.007634,-0.022901,0.0,7.684961,1.552783,5.823535,-0.025122,-0.05144,-0.007178,-0.005981,-0.046655,-0.0323,no
1616135456.4758549,1,17.0,3.0,-18.0,73.0,57.0,0.892944,0.089478,-0.441162,-0.004456,0.0,-0.007634,0.0,7.72085,1.547998,5.807983,0.007178,-0.056226,-0.020337,0.023926,-0.052637,-0.015552,no
1616135456.4857492,1,16.0,5.0,-18.0,74.0,58.0,0.892944,0.089417,-0.441101,-0.004395,0.0,0.0,0.0,7.735205,1.545605,5.780469,0.022729,-0.056226,-0.047852,0.055029,-0.049048,-0.019141,no
1616135456.495849,1,15.0,4.0,-17.0,78.0,58.0,0.893005,0.089417,-0.44104,-0.004272,0.0,0.007634,0.0,7.70769,1.528857,5.732617,-0.003589,-0.072974,-0.096899,0.078955,-0.056226,-0.071777,no
1616135456.505798,1,19.0,4.0,-19.0,78.0,58.0,0.893066,0.089478,-0.440918,-0.00415,0.007634,0.007634,0.0,7.66582,1.534839,5.699121,-0.044263,-0.066992,-0.132788,0.081348,-0.040674,-0.124414,no
1616135456.515725,1,17.0,6.0,-18.0,76.0,58.0,0.893066,0.0896,-0.440918,-0.004089,0.0,0.0,0.0,7.628736,1.570728,5.697925,-0.081348,-0.0323,-0.133984,0.057422,-0.003589,-0.14834,no
1616135456.5258834,1,18.0,4.0,-18.0,76.0,58.0,0.893005,0.0896,-0.440918,-0.004089,-0.007634,-0.007634,0.0,7.59165,1.616186,5.70271,-0.118433,0.011963,-0.128003,0.027515,0.04187,-0.166284,no
1616135456.5358222,1,18.0,5.0,-21.0,75.0,58.0,0.892944,0.089478,-0.441101,-0.004211,-0.022901,-0.015267,0.0,7.57251,1.634131,5.724243,-0.139966,0.031104,-0.104077,-0.004785,0.058618,-0.166284,no
1616135456.5457802,1,20.0,3.0,-18.0,76.0,58.0,0.892883,0.089172,-0.441345,-0.004395,-0.022901,-0.022901,0.0,7.594043,1.61499,5.739795,-0.122021,0.015552,-0.086133,-0.007178,0.038281,-0.143555,no
1616135456.5556228,1,16.0,10.0,-18.0,75.0,56.0,0.892822,0.088867,-0.441528,-0.004517,-0.022901,-0.015267,0.0,7.641894,1.57312,5.755347,-0.076563,-0.020337,-0.068188,0.008374,-0.002393,-0.104077,no
1616135456.5655663,1,20.0,5.0,-18.0,73.0,58.0,0.892822,0.088623,-0.441589,-0.004517,-0.015267,-0.007634,0.0,7.667017,1.545605,5.755347,-0.052637,-0.044263,-0.068188,0.023926,-0.027515,-0.088525,no
1616135456.5755703,1,19.0,3.0,-20.0,75.0,58.0,0.892822,0.088501,-0.441589,-0.004517,-0.007634,0.0,0.0,7.668213,1.561157,5.757739,-0.05144,-0.026318,-0.065796,0.021533,-0.010767,-0.08374,no
1616135456.5856917,1,19.0,6.0,-18.0,74.0,59.0,0.892883,0.088379,-0.441528,-0.004456,-0.007634,0.0,0.0,7.662231,1.575513,5.745776,-0.056226,-0.00957,-0.080151,0.028711,0.007178,-0.093311,no
1616135456.595916,1,19.0,4.0,-20.0,76.0,58.0,0.892883,0.088257,-0.441467,-0.004456,-0.007634,0.0,0.0,7.639502,1.558765,5.723047,-0.077759,-0.023926,-0.102881,0.034692,0.0,-0.12561,no
1616135456.605806,1,19.0,5.0,-19.0,78.0,58.0,0.892883,0.088196,-0.441467,-0.004456,-0.007634,-0.007634,0.0,7.62395,1.55398,5.720654,-0.093311,-0.027515,-0.105273,0.027515,-0.002393,-0.139966,no
1616135456.6158028,1,19.0,5.0,-19.0,75.0,57.0,0.892883,0.088135,-0.441528,-0.004456,-0.007634,-0.007634,0.0,7.610791,1.568335,5.72185,-0.107666,-0.011963,-0.104077,0.016748,0.013159,-0.14834,no
1616135456.625749,1,19.0,3.0,-21.0,74.0,58.0,0.892822,0.088013,-0.44165,-0.004456,-0.007634,-0.015267,0.0,7.607202,1.570728,5.72185,-0.113647,-0.007178,-0.101685,0.010767,0.017944,-0.150732,no
1616135456.635877,1,19.0,6.0,-18.0,79.0,58.0,0.892761,0.087891,-0.441833,-0.004517,-0.015267,-0.022901,0.0,7.601221,1.562353,5.719458,-0.122021,-0.014355,-0.101685,0.005981,0.010767,-0.15791,no
1616135456.6457062,1,17.0,6.0,-16.0,76.0,58.0,0.892639,0.087769,-0.442139,-0.004578,-0.015267,-0.022901,0.0,7.610791,1.559961,5.72185,-0.11604,-0.014355,-0.095703,0.004785,0.00957,-0.149536,no
1616135456.6557872,1,20.0,5.0,-19.0,75.0,60.0,0.892517,0.087585,-0.442383,-0.004639,-0.015267,-0.022901,0.0,7.64668,1.555176,5.729028,-0.08374,-0.016748,-0.08374,0.015552,0.002393,-0.117236,no
1616135456.6658275,1,18.0,4.0,-19.0,74.0,58.0,0.892395,0.087341,-0.442688,-0.004761,-0.015267,-0.022901,0.0,7.693335,1.550391,5.737402,-0.040674,-0.017944,-0.071777,0.0323,-0.002393,-0.076563,no
1616135456.675675,1,19.0,4.0,-20.0,73.0,58.0,0.892334,0.087158,-0.442871,-0.004822,-0.015267,-0.015267,0.0,7.736402,1.54082,5.72544,0.0,-0.025122,-0.081348,0.065796,-0.011963,-0.05144,no
1616135456.6856816,1,18.0,4.0,-18.0,78.0,58.0,0.892273,0.086975,-0.442993,-0.004822,-0.015267,0.0,0.0,7.775879,1.53125,5.697925,0.035889,-0.031104,-0.10647,0.107666,-0.016748,-0.039478,no
1616135456.6957068,1,19.0,5.0,-19.0,76.0,59.0,0.892273,0.086914,-0.442932,-0.004822,-0.007634,0.007634,0.0,7.769897,1.534839,5.664429,0.031104,-0.026318,-0.141162,0.131592,-0.007178,-0.062207,no
1616135456.7056332,1,19.0,4.0,-18.0,78.0,58.0,0.892334,0.086914,-0.442871,-0.004761,-0.007634,0.0,0.0,7.717261,1.561157,5.629736,-0.019141,0.0,-0.177051,0.128003,0.027515,-0.119629,no
1616135456.715572,1,18.0,5.0,-18.0,77.0,59.0,0.892334,0.086914,-0.442871,-0.004822,-0.007634,-0.007634,0.0,7.667017,1.570728,5.609399,-0.069385,0.008374,-0.197388,0.112451,0.043066,-0.169873,no
1616135456.7257216,1,18.0,4.0,-17.0,76.0,58.0,0.892273,0.086853,-0.443054,-0.004883,-0.007634,-0.015267,0.0,7.644287,1.561157,5.599829,-0.095703,0.0,-0.204565,0.102881,0.038281,-0.196191,no
1616135456.7355976,1,20.0,4.0,-19.0,73.0,58.0,0.892151,0.086731,-0.443237,-0.004822,-0.007634,-0.015267,0.0,7.639502,1.550391,5.595044,-0.101685,-0.007178,-0.205762,0.100488,0.0323,-0.202173,no
1616135456.7457514,1,18.0,4.0,-20.0,75.0,58.0,0.89209,0.08667,-0.443481,-0.004822,-0.007634,-0.015267,0.0,7.64668,1.558765,5.617774,-0.099292,0.001196,-0.179443,0.081348,0.035889,-0.184229,no
1616135456.7556891,1,20.0,5.0,-21.0,76.0,59.0,0.891968,0.086548,-0.443604,-0.004822,-0.015267,-0.015267,0.0,7.641894,1.580298,5.633325,-0.104077,0.025122,-0.161499,0.062207,0.057422,-0.173462,no
1616135456.7656505,1,19.0,4.0,-19.0,74.0,55.0,0.891968,0.086365,-0.443787,-0.004883,-0.022901,-0.015267,0.0,7.657446,1.580298,5.658447,-0.092114,0.027515,-0.135181,0.049048,0.055029,-0.14834,no
1616135456.775647,1,21.0,6.0,-17.0,78.0,58.0,0.891907,0.08606,-0.443848,-0.004944,-0.022901,-0.007634,0.0,7.696924,1.558765,5.69314,-0.052637,0.010767,-0.099292,0.045459,0.028711,-0.098096,no
1616135456.7855475,1,17.0,7.0,-19.0,79.0,58.0,0.891968,0.085754,-0.443848,-0.004944,-0.015267,0.0,0.0,7.725635,1.516895,5.701514,-0.025122,-0.025122,-0.092114,0.058618,-0.008374,-0.077759,no
1616135456.7957182,1,17.0,5.0,-19.0,78.0,58.0,0.892029,0.085571,-0.443726,-0.004883,-0.007634,0.007634,0.0,7.718457,1.486987,5.683569,-0.031104,-0.05144,-0.112451,0.072974,-0.031104,-0.098096,no
1616135456.8049235,1,20.0,7.0,-19.0,76.0,58.0,0.89209,0.08551,-0.443604,-0.004822,-0.007634,0.007634,0.0,7.684961,1.47981,5.67041,-0.062207,-0.056226,-0.128003,0.066992,-0.031104,-0.132788,no
1616135456.815754,1,19.0,4.0,-19.0,76.0,58.0,0.892151,0.08551,-0.443542,-0.004883,-0.007634,0.0,-0.007634,7.641894,1.497754,5.664429,-0.105273,-0.039478,-0.135181,0.045459,-0.00957,-0.168677,no
1616135456.82572,1,21.0,7.0,-22.0,75.0,74.0,0.892151,0.085449,-0.443542,-0.004944,-0.015267,-0.007634,-0.007634,7.574903,1.507324,5.642896,-0.172266,-0.028711,-0.15791,0.021533,0.00957,-0.233276,no
1616135456.8350155,1,21.0,4.0,-20.0,77.0,59.0,0.89209,0.085327,-0.443665,-0.005127,-0.015267,-0.015267,-0.007634,7.547388,1.512109,5.63811,-0.200977,-0.023926,-0.160303,0.005981,0.016748,-0.257202,no
1616135456.8448806,1,20.0,5.0,-20.0,76.0,59.0,0.891968,0.085083,-0.443909,-0.00531,-0.022901,-0.022901,-0.007634,7.589258,1.49895,5.663232,-0.161499,-0.034692,-0.131592,0.008374,0.0,-0.210547,no
1616135456.8548677,1,19.0,6.0,-19.0,74.0,59.0,0.891907,0.084778,-0.444092,-0.005432,-0.022901,-0.015267,0.0,7.62395,1.477417,5.659644,-0.129199,-0.05144,-0.132788,0.029907,-0.019141,-0.187817,no
1616135456.8649218,1,19.0,4.0,-20.0,76.0,58.0,0.891907,0.084534,-0.444214,-0.005554,-0.015267,-0.007634,-0.007634,7.650269,1.478613,5.647681,-0.105273,-0.046655,-0.143555,0.052637,-0.015552,-0.174658,no
1616135456.8756654,1,21.0,7.0,-18.0,73.0,58.0,0.891907,0.08429,-0.444214,-0.005676,-0.022901,0.0,-0.007634,7.718457,1.477417,5.66084,-0.037085,-0.045459,-0.131592,0.08374,-0.021533,-0.113647,no
1616135456.8848746,1,18.0,5.0,-19.0,76.0,58.0,0.891968,0.084106,-0.444153,-0.005676,-0.015267,0.015267,0.0,7.820142,1.477417,5.650073,0.063403,-0.04187,-0.143555,0.154321,-0.025122,-0.040674,no
1616135456.8948464,1,19.0,4.0,-22.0,79.0,58.0,0.892029,0.084045,-0.44397,-0.005615,0.0,0.022901,0.0,7.942163,1.525269,5.663232,0.189014,0.005981,-0.133984,0.220117,0.008374,0.070581,no
1616135456.9047277,1,19.0,7.0,-18.0,76.0,58.0,0.892151,0.084412,-0.443787,-0.005249,0.030534,0.022901,0.007634,8.196973,1.592261,5.780469,0.44502,0.069385,-0.019141,0.279932,0.033496,0.350513,no
1616135456.9149044,1,20.0,7.0,-18.0,76.0,60.0,0.891846,0.085083,-0.444275,-0.003906,0.10687,-0.045802,0.061069,8.369238,1.386499,5.959912,0.608911,-0.133984,0.169873,0.242847,-0.206958,0.56106,no
1616135456.9247744,1,21.0,10.0,-15.0,73.0,58.0,0.890259,0.08667,-0.447144,0.0,0.259542,-0.236641,0.198473,8.419482,1.288403,6.226685,0.616089,-0.223706,0.491675,-0.003589,-0.343335,0.742895,no
1616135456.9347436,1,20.0,11.0,-11.0,76.0,59.0,0.887268,0.089111,-0.452515,0.006653,0.351145,-0.412214,0.374046,8.345312,1.594653,6.534131,0.46416,0.102881,0.903198,-0.459375,-0.078955,0.906787,no
1616135456.9449131,1,21.0,13.0,-8.0,74.0,60.0,0.883789,0.091064,-0.458679,0.014893,0.328244,-0.427481,0.48855,7.783057,2.019336,6.318799,-0.187817,0.575415,0.803906,-0.820654,0.435449,0.384009,no
1616135456.954981,1,21.0,13.0,-4.0,74.0,59.0,0.881226,0.091736,-0.463074,0.022949,0.221374,-0.244275,0.473282,6.396558,2.28252,5.827124,-1.642505,0.905591,0.394775,-1.369751,0.890039,-1.001294,no
1616135456.9646628,1,22.0,16.0,-3.0,78.0,59.0,0.879395,0.092407,-0.466309,0.024902,0.022901,-0.259542,0.099237,6.421679,3.049341,4.885644,-1.660449,1.683179,-0.483301,-0.759644,1.812378,-1.399658,no
1616135456.9749117,1,22.0,14.0,-1.0,75.0,60.0,0.879089,0.090393,-0.467346,0.024597,-0.19084,-0.007634,0.091603,8.119214,2.845972,5.507715,0.022729,1.513306,0.14834,-0.301465,1.458276,0.305054,no
1616135456.9848385,1,22.0,15.0,-1.0,77.0,59.0,0.880188,0.085693,-0.466125,0.02478,-0.282443,0.183206,0.160305,8.534327,2.403345,5.310327,0.451001,1.15083,-0.086133,0.181836,1.130493,0.471338,no
1616135456.994854,1,23.0,15.0,-1.0,77.0,59.0,0.88208,0.080505,-0.463379,0.025269,-0.259542,0.251908,0.114504,8.413501,1.701123,5.012451,0.361279,0.53833,-0.451001,0.507227,0.593359,0.108862,no
1616135457.004772,1,23.0,15.0,-2.0,74.0,58.0,0.884216,0.077332,-0.4599,0.024902,-0.145038,0.282443,-0.015267,8.230469,0.980957,4.801904,0.221313,-0.133984,-0.734522,0.736914,-0.020337,-0.248828,no
1616135457.0150294,1,22.0,17.0,-2.0,76.0,60.0,0.88623,0.07605,-0.456238,0.024292,-0.045802,0.274809,-0.076336,7.966089,0.417505,4.655957,0.004785,-0.685474,-0.949854,0.843384,-0.527563,-0.616089,no
1616135457.024943,1,23.0,13.0,-1.0,75.0,58.0,0.887878,0.07605,-0.453064,0.023621,0.007634,0.206107,-0.099237,7.619165,0.143555,4.649976,-0.300269,-0.968994,-1.012061,0.740503,-0.789551,-0.936694,no
1616135457.0349486,1,22.0,15.0,-1.0,73.0,58.0,0.889038,0.076965,-0.450745,0.022522,0.045802,0.129771,-0.145038,7.367944,-0.0323,4.726538,-0.519189,-1.17356,-0.974976,0.598145,-0.989331,-1.120923,no
1616135457.0448515,1,22.0,16.0,-1.0,74.0,59.0,0.889587,0.078613,-0.449402,0.021057,0.076336,0.061069,-0.183206,7.25669,-0.215332,4.877271,-0.611304,-1.399658,-0.842188,0.456982,-1.226196,-1.15083,no
1616135457.0548306,1,22.0,17.0,-2.0,73.0,58.0,0.889709,0.080933,-0.448853,0.01947,0.122137,-0.007634,-0.19084,7.101172,-0.399561,5.023218,-0.756055,-1.638916,-0.698633,0.279932,-1.473828,-1.221411,no
1616135457.0648296,1,22.0,13.0,-3.0,76.0,58.0,0.88916,0.083801,-0.449402,0.018433,0.175573,-0.091603,-0.175573,6.916944,-0.575415,5.139258,-0.945068,-1.873389,-0.563452,0.087329,-1.71189,-1.333862,no
1616135457.074892,1,22.0,14.0,-2.0,78.0,58.0,0.888,0.087524,-0.450989,0.018188,0.244275,-0.160305,-0.145038,6.901392,-0.539526,5.299561,-0.978564,-1.900903,-0.362476,-0.078955,-1.762134,-1.259692,no
1616135457.0849202,1,22.0,13.0,1.0,74.0,58.0,0.886414,0.092102,-0.453186,0.018616,0.29771,-0.19084,-0.10687,7.004272,-0.151929,5.459863,-0.902002,-1.586279,-0.147144,-0.227295,-1.485791,-1.043164,no
1616135457.094986,1,22.0,13.0,-5.0,74.0,58.0,0.885193,0.096497,-0.454651,0.019226,0.236641,-0.122137,-0.068702,7.165771,0.618481,5.853442,-0.758447,-0.884058,0.287109,-0.565845,-0.879272,-0.584985,no
1616135457.1048546,1,22.0,10.0,-11.0,73.0,59.0,0.885132,0.099182,-0.454285,0.018494,0.038168,0.0,-0.076336,7.288989,1.758545,6.102271,-0.628052,0.202173,0.539526,-0.824243,0.129199,-0.168677,no
1616135457.1146932,1,20.0,8.0,-12.0,74.0,58.0,0.885986,0.099365,-0.452637,0.015564,-0.175573,0.091603,-0.122137,7.579688,2.564844,6.28291,-0.309839,0.977368,0.691455,-0.849365,0.84458,0.302661,no
1616135457.124681,1,19.0,5.0,-18.0,75.0,57.0,0.887573,0.096619,-0.450195,0.011108,-0.374046,0.137405,-0.137405,7.699317,2.98833,6.413306,-0.153125,1.404443,0.769214,-0.852954,1.24773,0.546704,no
1616135457.1348743,1,19.0,4.0,-19.0,75.0,57.0,0.889404,0.091736,-0.447754,0.005615,-0.480916,0.129771,-0.145038,7.810571,2.853149,6.433642,-0.004785,1.302759,0.727344,-0.701025,1.158008,0.624463,no
1616135457.1447392,1,18.0,-3.0,-20.0,74.0,57.0,0.890869,0.085815,-0.446106,0.00061,-0.458015,0.076336,-0.122137,7.844068,2.25022,6.317603,0.052637,0.756055,0.562256,-0.47373,0.65437,0.48689,no
1616135457.1547549,1,16.0,0.0,-20.0,73.0,58.0,0.891479,0.080994,-0.445679,-0.003113,-0.320611,0.0,-0.099237,7.890723,1.564746,6.168067,0.107666,0.122021,0.38999,-0.252417,0.056226,0.332568,no
1616135457.164895,1,15.0,0.0,-22.0,74.0,57.0,0.891418,0.078186,-0.44635,-0.005188,-0.145038,-0.061069,-0.068702,8.049829,0.980957,6.049634,0.258398,-0.429468,0.27395,-0.035889,-0.480908,0.303857,no
1616135457.1751163,1,17.0,-3.0,-23.0,75.0,59.0,0.890747,0.077698,-0.447693,-0.005798,0.022901,-0.091603,-0.053435,8.412305,0.81228,6.03169,0.604126,-0.594556,0.278735,0.173462,-0.672314,0.558667,no
1616135457.184997,1,16.0,1.0,-21.0,78.0,58.0,0.889771,0.079651,-0.44928,-0.005493,0.145038,-0.091603,-0.045802,8.998487,1.130493,6.254199,1.171167,-0.30625,0.534741,0.288306,-0.470142,1.202271,no
1616135457.194838,1,16.0,7.0,-20.0,73.0,58.0,0.889038,0.082764,-0.450195,-0.004456,0.206107,-0.045802,-0.015267,9.424365,1.421191,6.370239,1.586279,-0.059814,0.6771,0.404346,-0.285913,1.652075,no
1616135457.2047284,1,19.0,10.0,-19.0,74.0,58.0,0.888306,0.085999,-0.451111,-0.002319,0.244275,-0.053435,0.053435,9.584668,1.593457,6.421679,1.733423,0.075366,0.754858,0.416309,-0.18064,1.836304,no
1616135457.2146409,1,21.0,10.0,-14.0,73.0,58.0,0.887085,0.089294,-0.45282,0.001343,0.290076,-0.122137,0.145038,9.429151,1.769312,6.409717,1.552783,0.228491,0.784766,0.265576,-0.021533,1.733423,no
1616135457.2248044,1,21.0,12.0,-12.0,74.0,58.0,0.885437,0.092407,-0.455444,0.006348,0.312977,-0.183206,0.236641,9.072657,2.004981,6.296069,1.156811,0.456982,0.72854,0.045459,0.240454,1.419995,no
1616135457.2345996,1,22.0,14.0,-6.0,75.0,59.0,0.883789,0.09491,-0.457947,0.01239,0.29771,-0.152672,0.312977,8.490064,2.160498,6.020923,0.533545,0.626855,0.507227,-0.16748,0.489282,0.815869,no
1616135457.2447038,1,22.0,17.0,-2.0,75.0,58.0,0.88269,0.096497,-0.459473,0.019287,0.267176,-0.068702,0.381679,7.022217,2.006177,5.678784,-0.963013,0.509619,0.198584,-0.777588,0.514404,-0.595752,no
1616135457.25467,1,22.0,15.0,-1.0,73.0,58.0,0.882812,0.096741,-0.458984,0.024414,0.083969,-0.007634,0.259542,5.061499,2.621069,3.588867,-2.926123,1.166382,-1.897314,-0.314624,1.642505,-3.274243,no
1616135457.2647517,1,25.0,17.0,-1.0,73.0,59.0,0.881226,0.097595,-0.461731,0.026306,0.015267,-0.19084,0.160305,6.08313,2.613892,4.750464,-1.941577,1.165186,-0.683081,-0.716577,1.360181,-1.79563,no
1616135457.2747886,1,22.0,15.0,-3.0,73.0,58.0,0.88031,0.095215,-0.463867,0.028259,-0.10687,-0.122137,0.21374,6.835596,2.656958,4.994507,-1.220215,1.270459,-0.409131,-0.535937,1.370947,-1.047949,no
1616135457.2846243,1,25.0,14.0,-1.0,71.0,58.0,0.879822,0.09198,-0.465332,0.029907,-0.152672,-0.061069,0.19084,7.321289,2.300464,5.01604,-0.756055,0.986938,-0.373242,-0.259595,1.063501,-0.69624,no
1616135457.294911,1,22.0,-5.0,1.0,76.0,59.0,0.879822,0.08905,-0.46582,0.031067,-0.114504,0.022901,0.114504,7.765112,1.771704,4.922729,-0.321802,0.519189,-0.467749,0.126807,0.605322,-0.455786,no
1616135457.304697,1,22.0,16.0,-1.0,76.0,58.0,0.880371,0.087341,-0.465027,0.031799,-0.038168,0.114504,0.030534,8.028296,1.190308,4.781568,-0.050244,-0.026318,-0.629248,0.48689,0.089722,-0.391187,no
1616135457.314648,1,23.0,13.0,-1.0,73.0,58.0,0.881226,0.087097,-0.46344,0.032288,0.038168,0.145038,-0.038168,7.851245,0.611304,4.599731,-0.208154,-0.599341,-0.840991,0.645996,-0.429468,-0.711792,no
1616135457.324757,1,24.0,17.0,-1.0,73.0,58.0,0.881775,0.088379,-0.462158,0.032471,0.122137,0.061069,-0.099237,7.316504,0.07417,4.450195,-0.726147,-1.158008,-1.009668,0.563452,-0.931909,-1.303955,no
1616135457.3347323,1,13.0,15.0,-1.0,75.0,58.0,0.881348,0.09137,-0.462402,0.032166,0.221374,-0.091603,-0.167939,6.726733,-0.400757,4.358081,-1.31831,-1.686768,-1.086231,0.364868,-1.410425,-1.906885,no
1616135457.34482,1,22.0,17.0,-1.0,73.0,59.0,0.879517,0.096375,-0.464905,0.031799,0.328244,-0.259542,-0.21374,6.329566,-0.636426,4.342529,-1.74419,-2.007373,-1.038379,0.147144,-1.699927,-2.287305,no
1616135457.3547266,1,23.0,17.0,-2.0,72.0,58.0,0.876526,0.103149,-0.469116,0.03125,0.396947,-0.389313,-0.229008,6.255395,-0.376831,4.505225,-1.866211,-1.861426,-0.771606,-0.129199,-1.576709,-2.244238,no
1616135457.3646853,1,21.0,13.0,-5.0,73.0,58.0,0.873352,0.10968,-0.473572,0.030701,0.328244,-0.351145,-0.183206,6.898999,0.289502,4.883252,-1.272852,-1.302759,-0.284717,-0.259595,-1.14126,-1.422388,no
1616135457.374628,1,21.0,12.0,-7.0,74.0,59.0,0.871582,0.113953,-0.475891,0.029358,0.114504,-0.129771,-0.145038,8.295069,1.516895,5.445508,0.099292,-0.155518,0.33855,-0.198584,-0.233276,0.23208,no
1616135457.3846886,1,22.0,10.0,-14.0,74.0,58.0,0.872253,0.114624,-0.474609,0.02655,-0.152672,0.145038,-0.137405,9.561938,2.409326,6.004175,1.387695,0.69624,0.87688,-0.068188,0.392383,1.737012,no
1616135457.394563,1,22.0,7.0,-14.0,73.0,58.0,0.875061,0.112183,-0.470276,0.022766,-0.328244,0.343511,-0.137405,9.911255,2.702417,6.17644,1.794434,0.988135,0.957031,0.071777,0.635229,2.167676,no
1616135457.403885,1,19.0,7.0,-19.0,76.0,59.0,0.878601,0.108093,-0.464722,0.018799,-0.374046,0.381679,-0.129771,9.490161,2.441626,6.062793,1.44751,0.75127,0.724951,0.131592,0.484497,1.71189,no
1616135457.414781,1,1.0,1.0,-19.0,80.0,26.0,0.881714,0.10376,-0.4599,0.015442,-0.328244,0.29771,-0.099237,8.856128,1.971484,5.830713,0.87688,0.317017,0.387598,0.153125,0.173462,0.982153,no
1616135457.4246385,1,17.0,1.0,-20.0,73.0,58.0,0.883606,0.100159,-0.457092,0.013367,-0.221374,0.160305,-0.045802,8.518774,1.490576,5.654859,0.575415,-0.123218,0.147144,0.229687,-0.186621,0.527563,no
1616135457.434763,1,21.0,-1.0,-18.0,75.0,55.0,0.884583,0.097778,-0.455811,0.013,-0.099237,0.083969,0.015267,8.525952,1.106567,5.584277,0.598145,-0.472534,0.043066,0.367261,-0.510815,0.43186,no
1616135457.444754,1,18.0,0.0,-21.0,79.0,58.0,0.885132,0.096741,-0.454956,0.013977,0.0,0.083969,0.053435,8.469727,1.024023,5.492163,0.550293,-0.52876,-0.066992,0.435449,-0.540723,0.321802,no
1616135457.4544847,1,17.0,-1.0,-33.0,74.0,58.0,0.885681,0.096741,-0.453857,0.015259,0.030534,0.091603,0.053435,8.243628,1.324292,5.419189,0.334961,-0.218921,-0.159106,0.349316,-0.204565,0.144751,no
1616135457.4645755,1,19.0,1.0,-22.0,79.0,58.0,0.88623,0.097046,-0.452637,0.015869,-0.007634,0.076336,0.038168,7.896704,1.754956,5.356982,0.003589,0.209351,-0.24165,0.169873,0.250024,-0.101685,no
1616135457.474578,1,17.0,1.0,-20.0,74.0,57.0,0.886719,0.09668,-0.451843,0.015564,-0.076336,0.038168,0.015267,7.59165,2.070776,5.333056,-0.290698,0.527563,-0.282324,-0.005981,0.586182,-0.312231,no
1616135457.484161,1,17.0,1.0,-20.0,75.0,58.0,0.887024,0.095459,-0.451538,0.014465,-0.129771,0.0,-0.007634,7.357178,2.13418,5.273242,-0.519189,0.601733,-0.351709,-0.093311,0.685474,-0.525171,no
1616135457.494605,1,17.0,0.0,-22.0,76.0,58.0,0.887085,0.093689,-0.451843,0.013,-0.152672,-0.030534,-0.022901,7.278223,1.99541,5.205054,-0.601733,0.480908,-0.421094,-0.070581,0.583789,-0.650781,no
1616135457.5047286,1,17.0,1.0,-21.0,74.0,58.0,0.886963,0.09198,-0.452393,0.011536,-0.129771,-0.045802,-0.038168,7.360766,1.741797,5.200269,-0.523975,0.244043,-0.421094,0.002393,0.345728,-0.625659,no
1616135457.5146005,1,19.0,1.0,-20.0,77.0,57.0,0.886841,0.090637,-0.452881,0.010437,-0.091603,-0.030534,-0.038168,7.497144,1.458276,5.224195,-0.392383,-0.023926,-0.393579,0.086133,0.068188,-0.544312,no
1616135457.5246062,1,17.0,-1.0,-19.0,74.0,58.0,0.886841,0.089905,-0.453125,0.009766,-0.038168,-0.007634,-0.038168,7.570117,1.227393,5.220605,-0.322998,-0.247632,-0.395972,0.150732,-0.155518,-0.523975,no
1616135457.5347698,1,17.0,1.0,-18.0,74.0,59.0,0.88678,0.089844,-0.453247,0.00946,0.0,-0.007634,-0.030534,7.611987,1.136475,5.246924,-0.282324,-0.340942,-0.367261,0.161499,-0.25481,-0.488086,no
1616135457.5446625,1,17.0,-1.0,-19.0,81.0,58.0,0.88678,0.090332,-0.453186,0.009338,0.030534,0.0,-0.030534,7.689746,1.195093,5.336646,-0.203369,-0.291895,-0.277539,0.130396,-0.226099,-0.366064,no
1616135457.554623,1,18.0,3.0,-15.0,74.0,58.0,0.88678,0.091064,-0.453003,0.009216,0.030534,0.007634,-0.030534,7.728027,1.351807,5.43833,-0.161499,-0.14834,-0.175854,0.059814,-0.105273,-0.252417,no
1616135457.5645986,1,17.0,1.0,-18.0,72.0,58.0,0.886841,0.091675,-0.45282,0.009094,0.015267,0.0,-0.022901,7.732812,1.550391,5.538818,-0.154321,0.037085,-0.076563,-0.0323,0.059814,-0.161499,no
1616135457.5745254,1,19.0,2.0,-18.0,75.0,57.0,0.886841,0.09198,-0.452698,0.008728,-0.015267,-0.007634,-0.015267,7.690942,1.714282,5.583081,-0.192603,0.192603,-0.033496,-0.105273,0.206958,-0.143555,no
1616135457.5848184,1,17.0,4.0,-21.0,74.0,58.0,0.88678,0.091858,-0.452942,0.008179,-0.038168,-0.030534,-0.015267,7.712476,1.774097,5.632129,-0.174658,0.250024,0.017944,-0.141162,0.253613,-0.090918,no
1616135457.594582,1,19.0,1.0,-17.0,75.0,58.0,0.886536,0.09137,-0.45343,0.00769,-0.045802,-0.045802,-0.007634,7.833301,1.709497,5.673999,-0.058618,0.189014,0.066992,-0.10647,0.178247,0.020337,no
1616135457.6039586,1,17.0,4.0,-19.0,75.0,57.0,0.886353,0.090759,-0.453918,0.007324,-0.038168,-0.030534,-0.007634,7.970874,1.585083,5.67041,0.071777,0.072974,0.070581,-0.020337,0.053833,0.108862,no
1616135457.6145515,1,19.0,-2.0,-18.0,74.0,58.0,0.88623,0.090332,-0.454224,0.007202,-0.022901,-0.015267,0.0,8.123999,1.472632,5.658447,0.221313,-0.0323,0.062207,0.082544,-0.057422,0.208154,no
1616135457.623893,1,19.0,3.0,-18.0,73.0,59.0,0.886292,0.090088,-0.454224,0.007263,-0.007634,0.015267,0.0,8.22688,1.397266,5.627344,0.322998,-0.102881,0.029907,0.174658,-0.128003,0.260791,no
1616135457.6340475,1,17.0,2.0,-18.0,76.0,65.0,0.886475,0.090088,-0.453857,0.007446,0.007634,0.038168,-0.007634,8.220899,1.355396,5.584277,0.321802,-0.143555,-0.019141,0.217725,-0.159106,0.226099,no
1616135457.644565,1,21.0,3.0,-17.0,74.0,58.0,0.88678,0.090271,-0.453247,0.007629,0.015267,0.045802,-0.007634,8.147924,1.355396,5.536426,0.256006,-0.144751,-0.076563,0.224902,-0.145947,0.139966,no
1616135457.6540504,1,19.0,3.0,-18.0,74.0,58.0,0.887024,0.090637,-0.452576,0.00769,0.015267,0.038168,-0.015267,7.984033,1.388892,5.487378,0.101685,-0.118433,-0.135181,0.179443,-0.100488,-0.013159,no
1616135457.6638288,1,17.0,1.0,-19.0,74.0,59.0,0.887268,0.090942,-0.452148,0.007629,0.007634,0.015267,-0.015267,7.820142,1.436743,5.488574,-0.056226,-0.076563,-0.142358,0.087329,-0.046655,-0.13877,no
1616135457.6738577,1,19.0,0.0,-18.0,44.0,58.0,0.887268,0.091187,-0.452087,0.007507,0.0,-0.015267,-0.007634,7.687354,1.509717,5.5125,-0.187817,-0.008374,-0.118433,-0.014355,0.023926,-0.220117,no
1616135457.684624,1,20.0,4.0,-18.0,74.0,58.0,0.887085,0.091248,-0.452454,0.007324,-0.015267,-0.038168,-0.007634,7.633521,1.574316,5.557959,-0.245239,0.052637,-0.065796,-0.096899,0.078955,-0.226099,no
1616135457.6945896,1,19.0,3.0,-20.0,79.0,58.0,0.88678,0.091064,-0.453064,0.00708,-0.022901,-0.053435,0.0,7.653857,1.576709,5.589063,-0.233276,0.056226,-0.023926,-0.123218,0.075366,-0.192603,no
1616135457.7040503,1,5.0,1.0,-16.0,73.0,59.0,0.886475,0.090759,-0.453674,0.006897,-0.022901,-0.053435,0.0,7.732812,1.556372,5.614184,-0.161499,0.040674,0.00957,-0.10647,0.049048,-0.117236,no
1616135457.7139945,1,18.0,5.0,-16.0,76.0,58.0,0.886292,0.090454,-0.454163,0.006775,-0.022901,-0.022901,0.0,7.844068,1.528857,5.617774,-0.056226,0.016748,0.020337,-0.050244,0.016748,-0.031104,no
1616135457.7239275,1,20.0,3.0,-16.0,75.0,61.0,0.886292,0.09021,-0.454163,0.006775,-0.015267,0.007634,0.0,7.891919,1.470239,5.578296,-0.008374,-0.035889,-0.017944,0.011963,-0.031104,-0.021533,no
1616135457.7339413,1,17.0,0.0,-18.0,75.0,58.0,0.886414,0.09021,-0.453918,0.006836,0.007634,0.022901,-0.007634,7.872778,1.40564,5.506518,-0.025122,-0.100488,-0.094507,0.070581,-0.081348,-0.088525,no
1616135457.7439497,1,21.0,8.0,-15.0,74.0,59.0,0.886536,0.090454,-0.453613,0.006958,0.015267,0.022901,-0.007634,7.830908,1.393677,5.46106,-0.063403,-0.11604,-0.144751,0.089722,-0.084937,-0.150732,no
1616135457.7540483,1,19.0,4.0,-17.0,76.0,58.0,0.886719,0.09082,-0.453247,0.007263,0.022901,0.022901,0.0,7.811768,1.429565,5.446704,-0.077759,-0.08374,-0.165088,0.094507,-0.049048,-0.169873,no
1616135457.763909,1,19.0,1.0,-18.0,76.0,58.0,0.886841,0.091248,-0.452881,0.007507,0.022901,0.022901,0.007634,7.785449,1.522876,5.431152,-0.099292,0.002393,-0.184229,0.088525,0.039478,-0.184229,no
1616135458.9128468,1,21.0,4.0,-19.0,74.0,58.0,0.888062,0.094543,-0.449768,0.010315,0.0,0.007634,-0.007634,7.734009,1.491772,5.607007,-0.113647,-0.062207,-0.052637,-0.019141,-0.043066,-0.130396,no
1616135458.922723,1,20.0,7.0,-18.0,75.0,58.0,0.888123,0.094727,-0.449585,0.010315,0.007634,0.0,-0.007634,7.708887,1.510913,5.623755,-0.135181,-0.046655,-0.038281,-0.044263,-0.029907,-0.137573,no
1616135458.9327142,1,21.0,5.0,-17.0,78.0,58.0,0.888123,0.09491,-0.449585,0.010315,0.007634,-0.007634,-0.007634,7.69812,1.558765,5.648877,-0.145947,-0.002393,-0.011963,-0.076563,0.008374,-0.123218,no
1616135458.942726,1,21.0,3.0,-19.0,75.0,59.0,0.888062,0.095093,-0.449646,0.010315,0.0,-0.015267,-0.007634,7.702905,1.604224,5.665625,-0.142358,0.039478,0.004785,-0.092114,0.046655,-0.104077,no
1616135458.9526663,1,20.0,5.0,-17.0,77.0,60.0,0.888,0.095154,-0.449768,0.010315,-0.007634,-0.015267,0.0,7.726831,1.622168,5.673999,-0.119629,0.056226,0.015552,-0.088525,0.059814,-0.077759,no
1616135458.9628537,1,20.0,3.0,-18.0,79.0,56.0,0.887939,0.095093,-0.44989,0.010254,-0.007634,-0.015267,0.0,7.75315,1.606616,5.678784,-0.094507,0.04187,0.022729,-0.077759,0.043066,-0.055029,no
1616135458.9726455,1,20.0,7.0,-16.0,76.0,58.0,0.887939,0.094971,-0.449951,0.010315,-0.007634,-0.007634,0.0,7.766309,1.562353,5.675195,-0.082544,0.0,0.019141,-0.063403,0.001196,-0.055029,no
1616135458.9829783,1,19.0,6.0,-18.0,75.0,59.0,0.887878,0.09491,-0.450012,0.010376,0.0,-0.007634,0.0,7.784253,1.532446,5.663232,-0.065796,-0.027515,0.008374,-0.04187,-0.023926,-0.05144,no
1616135458.9926891,1,19.0,1.0,-18.0,76.0,58.0,0.887878,0.09491,-0.450012,0.010498,0.0,-0.007634,0.0,7.778272,1.50852,5.641699,-0.071777,-0.050244,-0.011963,-0.027515,-0.04187,-0.071777,no
1616135459.002658,1,21.0,5.0,-14.0,75.0,58.0,0.887817,0.094971,-0.450073,0.01062,0.007634,-0.007634,0.0,7.756738,1.503735,5.617774,-0.094507,-0.055029,-0.033496,-0.022729,-0.040674,-0.102881,no
1616135459.0127604,1,20.0,7.0,-17.0,77.0,58.0,0.887756,0.095032,-0.450195,0.010681,0.0,-0.015267,0.0,7.726831,1.512109,5.603418,-0.12561,-0.046655,-0.045459,-0.033496,-0.028711,-0.133984,no
1616135459.0229945,1,19.0,3.0,-18.0,76.0,58.0,0.887695,0.095032,-0.450378,0.01062,-0.007634,-0.015267,-0.007634,7.74956,1.52168,5.605811,-0.105273,-0.037085,-0.040674,-0.025122,-0.021533,-0.113647,no
