"Alphabet","timestamp","user_id","flex_1","flex_2","flex_3","flex_4","flex_5","Qw","Qx","Qy","Qz","GYRx","GYRy","GYRz","ACCx","ACCy","ACCz","ACCx_body","ACCy_body","ACCz_body","ACCx_world","ACCy_world","ACCz_world"
"O","1617446268.7389455","7","51","43","36","42","28","0.848328","-0.000427","-0.525513","-0.065063","0","0","-0.007634","8.518774","0.635229","4.173852","-0.218921","-0.027515","-0.212939","0.089722","-0.016748","-0.291895"
"O","1617446268.7289362","7","49","43","36","44","27","0.848267","-0.000427","-0.525513","-0.065063","-0.007634","0","-0.007634","8.539111","0.642407","4.159497","-0.198584","-0.020337","-0.226099","0.111255","-0.013159","-0.278735"
"O","1617446268.7188563","7","50","41","40","55","26","0.848206","-0.000366","-0.525635","-0.065002","-0.007634","0.007634","-0.007634","8.56543","0.651978","4.159497","-0.173462","-0.010767","-0.223706","0.122021","-0.005981","-0.25481"
"O","1617446268.708888","7","53","43","35","46","26","0.848145","-0.000305","-0.525757","-0.064941","-0.007634","0.007634","-0.007634","8.598926","0.66394","4.167871","-0.141162","0","-0.214136","0.128003","0","-0.221313"
"O","1617446268.699228","7","54","45","37","43","26","0.848083","-0.000305","-0.525879","-0.06488","-0.007634","0.007634","-0.007634","8.614477","0.667529","4.1906","-0.126807","0.003589","-0.189014","0.112451","0.003589","-0.196191"
"O","1617446268.688907","7","54","44","40","46","29","0.848022","-0.000305","-0.52594","-0.064819","-0.007634","0","-0.007634","8.608496","0.667529","4.201367","-0.132788","0.003589","-0.175854","0.098096","0.005981","-0.196191"
"O","1617446268.6789749","7","53","42","35","46","28","0.848022","-0.000305","-0.52594","-0.064819","0","0","-0.007634","8.604907","0.66394","4.220508","-0.136377","0","-0.156714","0.078955","0.003589","-0.191406"
"O","1617446268.669026","7","52","43","36","42","9","0.848083","-0.000366","-0.525879","-0.064819","0","-0.007634","-0.007634","8.592944","0.657959","4.225293","-0.14834","-0.003589","-0.153125","0.070581","0.001196","-0.200977"
"O","1617446268.658995","7","51","43","36","42","26","0.848083","-0.000427","-0.525818","-0.064819","0","-0.007634","0","8.600122","0.65437","4.232471","-0.139966","-0.005981","-0.147144","0.068188","0","-0.19021"
"O","1617446268.649099","7","51","42","38","41","27","0.848145","-0.000427","-0.525757","-0.064819","-0.007634","-0.007634","0","8.614477","0.660352","4.248023","-0.12561","0","-0.132788","0.062207","0.003589","-0.171069"
"O","1617446268.639114","7","48","42","33","40","27","0.848206","-0.000366","-0.525635","-0.064819","-0.007634","-0.007634","-0.007634","8.622851","0.673511","4.267163","-0.11604","0.010767","-0.11604","0.052637","0.014355","-0.154321"
"O","1617446268.6290486","7","53","44","37","45","26","0.848267","-0.000366","-0.525574","-0.064819","-0.007634","-0.007634","-0.007634","8.625244","0.692651","4.301856","-0.112451","0.029907","-0.08374","0.027515","0.035889","-0.135181"
"O","1617446268.619109","7","53","43","36","46","26","0.848328","-0.000305","-0.525452","-0.064697","-0.007634","-0.007634","-0.007634","8.615674","0.712988","4.318604","-0.120825","0.05144","-0.068188","0.013159","0.058618","-0.133984"
"O","1617446268.6090128","7","52","44","34","41","26","0.848389","-0.000244","-0.525391","-0.064575","-0.007634","-0.007634","-0.007634","8.604907","0.727344","4.332959","-0.131592","0.065796","-0.056226","0","0.075366","-0.137573"
"O","1617446268.5991688","7","53","43","37","44","26","0.84845","-0.000244","-0.525391","-0.064453","-0.007634","-0.007634","-0.007634","8.606104","0.741699","4.353296","-0.130396","0.081348","-0.035889","-0.015552","0.092114","-0.126807"
"O","1617446268.5889995","7","53","43","36","47","26","0.84845","-0.000244","-0.52533","-0.064331","-0.007634","-0.007634","-0.007634","8.58457","0.736914","4.356885","-0.150732","0.077759","-0.033496","-0.027515","0.090918","-0.143555"
"O","1617446268.5791736","7","53","42","37","45","26","0.84845","-0.000366","-0.525391","-0.064209","0","0","-0.015267","8.563037","0.722559","4.341333","-0.173462","0.066992","-0.047852","-0.025122","0.081348","-0.171069"
"O","1617446268.5690763","7","54","43","37","43","27","0.848389","-0.000488","-0.525391","-0.064026","0","0","-0.015267","8.536718","0.705811","4.307837","-0.19978","0.053833","-0.080151","-0.00957","0.069385","-0.209351"
"O","1617446268.559098","7","53","42","34","42","27","0.848389","-0.000671","-0.525452","-0.063904","0","0","-0.015267","8.52356","0.668726","4.268359","-0.214136","0.021533","-0.118433","0.013159","0.035889","-0.24165"
"O","1617446268.549023","7","51","63","37","46","29","0.848389","-0.000854","-0.525574","-0.063782","0","0","-0.015267","8.516382","0.625659","4.225293","-0.223706","-0.016748","-0.160303","0.04187","-0.002393","-0.271558"
"O","1617446268.538972","7","50","42","37","44","30","0.848328","-0.001038","-0.525635","-0.06366","0","0","-0.015267","8.512793","0.575415","4.191797","-0.227295","-0.062207","-0.192603","0.0646","-0.050244","-0.291895"
"O","1617446268.5290334","7","52","43","34","44","26","0.848267","-0.001221","-0.525696","-0.063538","0","0.007634","-0.015267","8.524755","0.529956","4.172656","-0.216528","-0.104077","-0.209351","0.080151","-0.094507","-0.293091"
"O","1617446268.518941","7","51","42","36","43","26","0.848206","-0.001404","-0.525818","-0.063354","0","0.007634","-0.015267","8.547485","0.502441","4.176245","-0.194995","-0.126807","-0.203369","0.081348","-0.118433","-0.272754"
"O","1617446268.509097","7","52","42","36","45","28","0.848145","-0.001526","-0.52594","-0.063232","0","0.007634","-0.015267","8.548681","0.492871","4.185815","-0.196191","-0.132788","-0.191406","0.069385","-0.123218","-0.267969"
"O","1617446268.4988966","7","53","41","37","45","26","0.848145","-0.001587","-0.526001","-0.06311","-0.007634","0","-0.015267","8.537915","0.50603","4.215723","-0.206958","-0.117236","-0.160303","0.038281","-0.105273","-0.263184"
"O","1617446268.4891243","7","53","43","36","44","26","0.848145","-0.001526","-0.526001","-0.062988","-0.007634","-0.007634","-0.007634","8.515185","0.556274","4.243237","-0.229687","-0.066992","-0.132788","0.00957","-0.050244","-0.267969"
"O","1617446268.4792545","7","51","41","36","43","25","0.848145","-0.001404","-0.52594","-0.062927","-0.015267","-0.007634","-0.007634","8.492456","0.606519","4.269556","-0.251221","-0.017944","-0.107666","-0.015552","0.001196","-0.272754"
"O","1617446268.469118","7","50","40","36","44","26","0.848206","-0.001221","-0.525879","-0.062866","-0.015267","-0.015267","0","8.469727","0.650781","4.275537","-0.27395","0.022729","-0.102881","-0.025122","0.044263","-0.288306"
"O","1617446268.4591107","7","53","42","34","43","26","0.848267","-0.00116","-0.525757","-0.062866","-0.007634","-0.007634","0","8.467334","0.659155","4.271948","-0.275146","0.029907","-0.108862","-0.020337","0.050244","-0.291895"
"O","1617446268.4489286","7","51","43","38","44","26","0.848328","-0.001099","-0.525696","-0.062866","0","-0.007634","0","8.490064","0.6448","4.2552","-0.251221","0.014355","-0.126807","0.003589","0.031104","-0.278735"
"O","1617446268.4389849","7","51","44","37","7","27","0.848328","-0.00116","-0.525696","-0.062927","0","-0.007634","0","8.515185","0.637622","4.249219","-0.226099","0.008374","-0.132788","0.019141","0.022729","-0.259595"
"O","1617446268.4290109","7","52","42","34","43","26","0.848328","-0.00116","-0.525635","-0.062988","0","0","0","8.531934","0.632837","4.252808","-0.208154","0.002393","-0.130396","0.023926","0.014355","-0.242847"
"O","1617446268.4190533","7","52","40","37","42","26","0.848328","-0.001221","-0.525696","-0.062988","0","0","0","8.539111","0.629248","4.239648","-0.202173","0","-0.143555","0.038281","0.010767","-0.244043"
"O","1617446268.4090726","7","52","40","34","42","26","0.848328","-0.001282","-0.525696","-0.063049","0","0","-0.007634","8.548681","0.620874","4.232471","-0.192603","-0.007178","-0.150732","0.047852","0.002393","-0.239258"
"O","1617446268.3990202","7","54","43","38","44","26","0.848328","-0.001343","-0.525757","-0.063049","0","0","0","8.554663","0.623267","4.221704","-0.187817","-0.003589","-0.160303","0.059814","0.004785","-0.239258"
"O","1617446268.3890631","7","52","44","36","43","26","0.848267","-0.001343","-0.525757","-0.06311","-0.007634","0","0","8.549878","0.637622","4.224097","-0.192603","0.00957","-0.156714","0.055029","0.017944","-0.240454"
"O","1617446268.3792355","7","53","41","36","41","29","0.848267","-0.001282","-0.525757","-0.06311","-0.007634","0","0","8.55586","0.659155","4.2229","-0.186621","0.029907","-0.15791","0.061011","0.038281","-0.234473"
"O","1617446268.3692544","7","51","43","34","39","29","0.848267","-0.001221","-0.525757","-0.063171","-0.007634","-0.007634","0","8.567822","0.678296","4.225293","-0.174658","0.046655","-0.155518","0.066992","0.053833","-0.221313"
"O","1617446268.359038","7","52","43","34","42","26","0.848267","-0.00116","-0.525696","-0.063171","-0.007634","0","0","8.579785","0.691455","4.231275","-0.161499","0.059814","-0.150732","0.069385","0.065796","-0.206958"
"O","1617446268.3489106","7","54","44","34","45","26","0.848328","-0.001221","-0.525696","-0.063232","0","0","0","8.608496","0.685474","4.256396","-0.132788","0.053833","-0.126807","0.059814","0.058618","-0.171069"
"O","1617446268.339118","7","54","42","36","44","26","0.848328","-0.001221","-0.525696","-0.063293","0","0","0","8.634814","0.684277","4.286304","-0.10647","0.05144","-0.096899","0.044263","0.055029","-0.133984"
"O","1617446268.3292613","7","51","41","36","42","26","0.848328","-0.001221","-0.525696","-0.063293","-0.007634","-0.007634","-0.007634","8.63003","0.683081","4.313818","-0.111255","0.050244","-0.069385","0.017944","0.056226","-0.126807"
"O","1617446268.3191106","7","54","42","38","46","27","0.848389","-0.001282","-0.525635","-0.063293","0","-0.007634","-0.007634","8.608496","0.671118","4.325781","-0.132788","0.039478","-0.058618","-0.001196","0.049048","-0.141162"
"O","1617446268.3092017","7","51","43","38","44","26","0.848389","-0.001343","-0.525574","-0.063232","0","-0.007634","-0.007634","8.602514","0.648389","4.32937","-0.137573","0.019141","-0.056226","-0.007178","0.028711","-0.145947"
"O","1617446268.2992516","7","53","43","37","46","27","0.84845","-0.001404","-0.525452","-0.063171","0","-0.007634","-0.007634","8.580981","0.619678","4.310229","-0.15791","-0.007178","-0.077759","0","0.003589","-0.175854"
"O","1617446268.2891777","7","49","41","37","44","27","0.848511","-0.001526","-0.525391","-0.06311","0","-0.007634","-0.007634","8.561841","0.600537","4.298266","-0.177051","-0.023926","-0.090918","0","-0.010767","-0.19978"
"O","1617446268.2791417","7","53","43","37","43","26","0.848572","-0.001648","-0.52533","-0.063049","0","-0.007634","-0.007634","8.558252","0.594556","4.279126","-0.18064","-0.026318","-0.111255","0.016748","-0.014355","-0.211743"
"O","1617446268.26927","7","51","44","36","44","26","0.848633","-0.001648","-0.525269","-0.062988","0","-0.007634","-0.007634","8.554663","0.613696","4.257593","-0.184229","-0.007178","-0.133984","0.037085","0.002393","-0.223706"
"O","1617446268.2591074","7","52","43","37","43","27","0.848633","-0.001709","-0.525208","-0.062927","-0.007634","0","-0.007634","8.551074","0.640015","4.251611","-0.186621","0.020337","-0.141162","0.045459","0.029907","-0.227295"
"O","1617446268.248954","7","53","44","36","44","26","0.848633","-0.00177","-0.525208","-0.062866","0","0","-0.007634","8.552271","0.655566","4.261182","-0.185425","0.037085","-0.131592","0.039478","0.046655","-0.221313"
"O","1617446268.2392492","7","54","42","34","40","26","0.848633","-0.001892","-0.525269","-0.062805","0","0","-0.007634","8.552271","0.656763","4.263574","-0.186621","0.040674","-0.128003","0.035889","0.050244","-0.220117"
"O","1617446268.2293377","7","52","43","32","44","26","0.848572","-0.002075","-0.52533","-0.062744","0.007634","0","-0.007634","8.557055","0.636426","4.244433","-0.181836","0.023926","-0.145947","0.052637","0.0323","-0.224902"
"O","1617446268.219229","7","53","41","36","42","26","0.848572","-0.002319","-0.52533","-0.062744","0.007634","0","-0.015267","8.551074","0.605322","4.219312","-0.189014","-0.001196","-0.171069","0.068188","0.005981","-0.245239"
"O","1617446268.2091477","7","51","37","36","44","26","0.848572","-0.002563","-0.52533","-0.062744","0.007634","0","-0.015267","8.531934","0.569434","4.202563","-0.208154","-0.033496","-0.187817","0.071777","-0.023926","-0.271558"
"O","1617446268.1991265","7","48","44","34","44","25","0.848572","-0.002808","-0.52533","-0.062683","0","0","-0.015267","8.518774","0.545508","4.191797","-0.221313","-0.052637","-0.198584","0.072974","-0.043066","-0.289502"
"O","1617446268.1892116","7","52","44","41","44","28","0.848572","-0.00293","-0.52533","-0.062622","-0.007634","0","-0.015267","8.50083","0.537134","4.177442","-0.239258","-0.058618","-0.212939","0.077759","-0.047852","-0.312231"
"O","1617446268.17989","7","52","43","35","46","26","0.848633","-0.002991","-0.525269","-0.062439","-0.007634","0","-0.015267","8.484082","0.545508","4.177442","-0.256006","-0.046655","-0.214136","0.072974","-0.034692","-0.326587"
"O","1617446268.1698637","7","52","45","36","47","27","0.848633","-0.003052","-0.52533","-0.062256","-0.007634","0","-0.015267","8.475708","0.53833","4.176245","-0.265576","-0.05144","-0.214136","0.068188","-0.038281","-0.334961"
"O","1617446268.159803","7","54","43","44","46","28","0.848572","-0.003113","-0.525391","-0.062195","0","0.007634","-0.007634","8.488867","0.52876","4.179834","-0.252417","-0.059814","-0.209351","0.068188","-0.047852","-0.321802"
"O","1617446268.1498773","7","51","42","32","45","28","0.848511","-0.003174","-0.525513","-0.062134","0","0.007634","-0.007634","8.510401","0.523975","4.195386","-0.23208","-0.062207","-0.191406","0.061011","-0.05144","-0.295483"
"O","1617446268.1398387","7","53","42","37","42","26","0.84845","-0.003174","-0.525635","-0.062134","0","0","-0.007634","8.521167","0.522778","4.204956","-0.223706","-0.063403","-0.179443","0.053833","-0.052637","-0.283521"
"O","1617446268.1298614","7","51","42","36","44","26","0.848389","-0.003174","-0.525635","-0.062134","-0.007634","-0.007634","-0.007634","8.503222","0.526367","4.204956","-0.240454","-0.059814","-0.178247","0.046655","-0.046655","-0.29668"
"O","1617446268.1199229","7","52","44","36","42","26","0.84845","-0.003174","-0.525635","-0.062073","-0.007634","-0.007634","-0.007634","8.503222","0.537134","4.210938","-0.24165","-0.049048","-0.173462","0.04187","-0.035889","-0.295483"
"O","1617446268.1099744","7","49","42","37","42","26","0.84845","-0.003113","-0.525574","-0.062073","-0.007634","-0.007634","-0.007634","8.509204","0.552686","4.216919","-0.234473","-0.034692","-0.16748","0.04187","-0.021533","-0.285913"
"O","1617446268.099815","7","49","45","38","44","26","0.848511","-0.003052","-0.525452","-0.062073","-0.007634","-0.007634","0","8.515185","0.579004","4.232471","-0.226099","-0.008374","-0.154321","0.037085","0.003589","-0.270361"
"O","1617446268.0899332","7","50","43","36","42","26","0.848572","-0.00293","-0.525391","-0.062073","-0.007634","-0.007634","0","8.516382","0.600537","4.257593","-0.224902","0.00957","-0.131592","0.019141","0.022729","-0.258398"
"O","1617446268.0793045","7","51","42","34","42","26","0.848572","-0.00293","-0.525391","-0.062073","-0.007634","0","0","8.527148","0.611304","4.271948","-0.214136","0.020337","-0.117236","0.011963","0.033496","-0.24165"
"O","1617446268.069839","7","52","43","35","42","26","0.848572","-0.00293","-0.525391","-0.062073","0","0","0","8.529541","0.606519","4.280322","-0.211743","0.015552","-0.108862","0.004785","0.028711","-0.235669"
"O","1617446268.0598614","7","53","42","36","45","27","0.848572","-0.00293","-0.525452","-0.062134","-0.007634","-0.007634","0","8.525952","0.611304","4.283911","-0.216528","0.019141","-0.104077","0","0.033496","-0.238062"
"O","1617446268.0499685","7","51","42","37","42","26","0.848572","-0.00293","-0.525391","-0.062134","-0.007634","-0.007634","0","8.511597","0.614893","4.265967","-0.229687","0.022729","-0.123218","0.010767","0.037085","-0.258398"
"O","1617446268.0398216","7","53","44","37","42","26","0.848572","-0.002869","-0.525391","-0.062073","-0.007634","-0.007634","0","8.509204","0.608911","4.243237","-0.23208","0.016748","-0.145947","0.028711","0.029907","-0.270361"
"O","1617446268.0298822","7","52","43","35","42","26","0.848572","-0.002808","-0.525391","-0.062073","-0.007634","0","0","8.524755","0.594556","4.212134","-0.216528","0.001196","-0.177051","0.062207","0.010767","-0.271558"
"O","1617446268.0199587","7","52","41","36","47","27","0.848511","-0.002747","-0.525513","-0.062073","-0.007634","0.007634","0","8.553467","0.574219","4.192993","-0.189014","-0.019141","-0.193799","0.087329","-0.013159","-0.256006"
"O","1617446268.009932","7","51","43","37","41","26","0.84845","-0.002747","-0.525635","-0.062012","-0.007634","0.007634","0","8.582178","0.557471","4.179834","-0.161499","-0.034692","-0.204565","0.10647","-0.031104","-0.236865"
"O","1617446267.9998546","7","52","42","34","40","25","0.848328","-0.002686","-0.525818","-0.062012","-0.007634","0.015267","0","8.610888","0.558667","4.19419","-0.135181","-0.034692","-0.185425","0.101685","-0.033496","-0.204565"
"O","1617446267.9898164","7","52","41","34","41","26","0.848267","-0.002625","-0.52594","-0.062012","0","0","0","8.604907","0.574219","4.210938","-0.142358","-0.020337","-0.16748","0.08374","-0.016748","-0.202173"
"O","1617446267.9799953","7","52","44","37","42","26","0.848206","-0.002625","-0.52594","-0.062012","0","-0.007634","0","8.552271","0.584985","4.21333","-0.193799","-0.00957","-0.163892","0.059814","0","-0.246436"
"O","1617446267.9699602","7","52","40","31","45","26","0.848267","-0.002625","-0.525879","-0.062073","0","-0.007634","0","8.508008","0.594556","4.219312","-0.238062","-0.001196","-0.159106","0.037085","0.011963","-0.283521"
"O","1617446267.959999","7","51","43","36","41","26","0.848328","-0.002625","-0.525818","-0.062134","0","-0.007634","0","8.49126","0.598145","4.226489","-0.25481","0.001196","-0.154321","0.025122","0.015552","-0.295483"
"O","1617446267.9501083","7","52","41","35","44","26","0.848328","-0.002625","-0.525818","-0.062195","-0.007634","-0.007634","0","8.497241","0.593359","4.219312","-0.248828","-0.003589","-0.161499","0.033496","0.00957","-0.294287"
"O","1617446267.9398377","7","52","40","36","46","26","0.848328","-0.002625","-0.525818","-0.062195","-0.007634","0","0","8.512793","0.583789","4.207349","-0.233276","-0.013159","-0.173462","0.050244","-0.001196","-0.285913"
"O","1617446267.929959","7","52","43","34","40","25","0.848328","-0.002502","-0.525818","-0.062134","-0.015267","0","0","8.537915","0.574219","4.192993","-0.206958","-0.023926","-0.187817","0.072974","-0.014355","-0.269165"
"O","1617446267.9201293","7","52","39","34","44","27","0.848267","-0.00238","-0.525879","-0.062073","-0.015267","0","0","8.558252","0.576611","4.189404","-0.187817","-0.022729","-0.189014","0.082544","-0.015552","-0.252417"
"O","1617446267.910194","7","50","42","35","44","26","0.848267","-0.002197","-0.525879","-0.062012","-0.015267","0","0","8.571411","0.586182","4.189404","-0.173462","-0.015552","-0.189014","0.089722","-0.00957","-0.239258"
"O","1617446267.8999214","7","51","43","35","43","26","0.848267","-0.002014","-0.52594","-0.061951","-0.007634","0","0","8.580981","0.593359","4.198975","-0.165088","-0.010767","-0.178247","0.084937","-0.004785","-0.227295"
"O","1617446267.8899462","7","51","41","33","41","26","0.848267","-0.001953","-0.52594","-0.061951","-0.007634","0","0","8.573804","0.599341","4.210938","-0.172266","-0.005981","-0.16748","0.072974","0","-0.228491"
"O","1617446267.879994","7","52","42","34","43","28","0.848267","-0.001892","-0.525879","-0.062012","0","-0.007634","0","8.557055","0.600537","4.231275","-0.187817","-0.005981","-0.147144","0.047852","0.002393","-0.233276"
"O","1617446267.8700533","7","50","43","36","42","26","0.848267","-0.001831","-0.525879","-0.062073","0","-0.007634","0","8.530737","0.618481","4.244433","-0.214136","0.008374","-0.133984","0.026318","0.020337","-0.250024"
"O","1617446267.8600578","7","52","45","36","43","26","0.848328","-0.00177","-0.525757","-0.062134","-0.007634","-0.007634","0","8.512793","0.642407","4.251611","-0.230884","0.031104","-0.129199","0.016748","0.045459","-0.260791"
"O","1617446267.849857","7","50","41","37","43","26","0.848389","-0.001709","-0.525696","-0.062195","-0.007634","-0.007634","0","8.510401","0.656763","4.2552","-0.23208","0.044263","-0.128003","0.016748","0.058618","-0.260791"
"O","1617446267.8399606","7","51","43","34","43","26","0.848389","-0.001587","-0.525757","-0.062195","-0.015267","0","0","8.546289","0.650781","4.251611","-0.197388","0.035889","-0.130396","0.0323","0.046655","-0.23208"
"O","1617446267.8300438","7","52","40","37","42","28","0.848328","-0.001465","-0.525818","-0.062195","-0.015267","0","0","8.585767","0.630444","4.242041","-0.15791","0.013159","-0.13877","0.055029","0.019141","-0.200977"
"O","1617446267.8200977","7","51","41","37","46","39","0.848267","-0.001343","-0.52594","-0.062073","-0.015267","0","0","8.613281","0.614893","4.242041","-0.131592","-0.002393","-0.136377","0.063403","0.001196","-0.178247"
"O","1617446267.810116","7","53","44","37","44","26","0.848206","-0.001221","-0.526001","-0.062012","-0.015267","0","0","8.624048","0.613696","4.243237","-0.122021","-0.004785","-0.132788","0.063403","0","-0.16748"
"O","1617446267.7999997","7","49","42","34","48","27","0.848206","-0.001038","-0.526001","-0.062012","-0.015267","0","0","8.609693","0.618481","4.249219","-0.135181","-0.002393","-0.126807","0.052637","0.002393","-0.177051"
"O","1617446267.789956","7","52","44","38","42","27","0.848206","-0.000916","-0.526001","-0.062012","-0.007634","0","0","8.591748","0.648389","4.2552","-0.153125","0.023926","-0.120825","0.043066","0.031104","-0.189014"
"O","1617446267.7800665","7","51","42","34","48","26","0.848206","-0.000732","-0.526001","-0.062073","-0.007634","0","0","8.575","0.684277","4.269556","-0.169873","0.056226","-0.10647","0.026318","0.065796","-0.194995"
"O","1617446267.7699378","7","53","41","36","47","27","0.848206","-0.000671","-0.526001","-0.062134","-0.007634","0","0","8.559448","0.708203","4.282715","-0.185425","0.077759","-0.093311","0.00957","0.089722","-0.200977"
"O","1617446267.7601082","7","52","42","33","43","26","0.848145","-0.00061","-0.526062","-0.062195","0","0","0","8.552271","0.722559","4.285108","-0.192603","0.090918","-0.089722","0.004785","0.104077","-0.205762"
"O","1617446267.7498865","7","51","44","36","110","27","0.848145","-0.00061","-0.526123","-0.062256","-0.007634","0","0","8.545093","0.716577","4.271948","-0.200977","0.08374","-0.102881","0.011963","0.096899","-0.218921"
"O","1617446267.74008","7","53","43","35","41","27","0.848083","-0.000671","-0.526184","-0.062256","-0.007634","0","0","8.554663","0.704614","4.256396","-0.192603","0.072974","-0.11604","0.026318","0.08374","-0.218921"
"O","1617446267.729957","7","52","43","34","43","26","0.848022","-0.000671","-0.526306","-0.062195","-0.007634","0","-0.007634","8.570215","0.674707","4.238452","-0.178247","0.044263","-0.131592","0.043066","0.052637","-0.214136"
"O","1617446267.719935","7","54","40","35","44","26","0.847961","-0.000671","-0.526367","-0.062134","-0.007634","0","-0.007634","8.589355","0.651978","4.220508","-0.159106","0.021533","-0.14834","0.0646","0.027515","-0.205762"
"O","1617446267.7100384","7","52","42","36","42","26","0.847961","-0.000671","-0.526367","-0.062012","-0.007634","-0.007634","-0.007634","8.589355","0.638818","4.196582","-0.159106","0.00957","-0.172266","0.084937","0.014355","-0.217725"
"O","1617446267.700204","7","53","42","36","44","26","0.848022","-0.000671","-0.526367","-0.061951","-0.007634","-0.007634","-0.007634","8.578588","0.624463","4.1906","-0.171069","-0.002393","-0.178247","0.08374","0.003589","-0.23208"
"O","1617446267.6900847","7","51","41","35","43","26","0.848022","-0.000671","-0.526306","-0.061951","0","0","-0.007634","8.571411","0.614893","4.196582","-0.177051","-0.011963","-0.173462","0.075366","-0.004785","-0.235669"
"O","1617446267.6801667","7","52","41","34","43","26","0.848022","-0.000732","-0.526245","-0.061951","0","0","-0.007634","8.549878","0.600537","4.200171","-0.197388","-0.025122","-0.171069","0.063403","-0.015552","-0.253613"
"O","1617446267.6701117","7","51","40","36","44","29","0.848083","-0.000854","-0.526245","-0.062012","0.007634","0","-0.007634","8.522364","0.58977","4.215723","-0.226099","-0.034692","-0.155518","0.035889","-0.020337","-0.272754"
"O","1617446267.6600206","7","52","43","37","42","26","0.848083","-0.000977","-0.526184","-0.062073","0","0","-0.007634","8.502027","0.5802","4.224097","-0.245239","-0.043066","-0.14834","0.019141","-0.026318","-0.287109"
"O","1617446267.6501968","7","50","43","32","42","26","0.848083","-0.001038","-0.526184","-0.062073","-0.007634","0","-0.007634","8.503222","0.575415","4.242041","-0.244043","-0.046655","-0.130396","0.003589","-0.028711","-0.278735"
"O","1617446267.6400645","7","53","41","35","43","26","0.848022","-0.001038","-0.526245","-0.062012","-0.007634","0","-0.007634","8.512793","0.569434","4.250415","-0.234473","-0.052637","-0.120825","0","-0.035889","-0.265576"
"O","1617446267.63002","7","53","42","37","45","26","0.848022","-0.000977","-0.526306","-0.061951","-0.015267","0","-0.007634","8.524755","0.555078","4.239648","-0.223706","-0.066992","-0.130396","0.010767","-0.05144","-0.261987"
"O","1617446267.620185","7","52","44","38","41","27","0.847961","-0.000854","-0.526367","-0.061829","-0.015267","0","-0.007634","8.536718","0.534741","4.20376","-0.211743","-0.088525","-0.163892","0.043066","-0.076563","-0.266772"
"O","1617446267.610088","7","51","43","35","44","26","0.847961","-0.000732","-0.526428","-0.061768","-0.015267","0","0","8.549878","0.531152","4.167871","-0.19978","-0.093311","-0.19978","0.080151","-0.084937","-0.272754"
"O","1617446267.6000931","7","52","43","34","43","27","0.8479","-0.000549","-0.52655","-0.061768","-0.007634","0","0","8.563037","0.539526","4.136767","-0.187817","-0.088525","-0.228491","0.111255","-0.082544","-0.275146"
"O","1617446267.5900395","7","53","43","36","41","26","0.847839","-0.000427","-0.526611","-0.061829","-0.007634","0","0","8.567822","0.553882","4.117627","-0.183032","-0.076563","-0.246436","0.131592","-0.072974","-0.277539"
"O","1617446267.5802467","7","51","44","35","41","26","0.847839","-0.000305","-0.526611","-0.061951","0","0","0.007634","8.573804","0.5802","4.115234","-0.177051","-0.053833","-0.248828","0.13877","-0.050244","-0.271558"
"O","1617446267.5700204","7","51","42","34","43","27","0.847778","-0.000183","-0.526672","-0.062134","0","0","0.007634","8.583374","0.623267","4.130786","-0.16748","-0.014355","-0.23208","0.131592","-0.010767","-0.253613"
"O","1617446267.5600617","7","51","42","37","40","26","0.847778","-0.000061","-0.526672","-0.062317","0","0","0.007634","8.59773","0.679492","4.16189","-0.153125","0.037085","-0.200977","0.11604","0.039478","-0.223706"
"O","1617446267.5500667","7","54","44","33","44","27","0.847778","0.000122","-0.526672","-0.062561","-0.007634","-0.007634","0.015267","8.591748","0.736914","4.185815","-0.159106","0.088525","-0.177051","0.096899","0.092114","-0.214136"
"O","1617446267.540002","7","53","43","36","45","26","0.847839","0.000244","-0.52655","-0.062744","-0.007634","-0.007634","0.007634","8.589355","0.785962","4.212134","-0.160303","0.133984","-0.153125","0.080151","0.139966","-0.202173"
"O","1617446267.530089","7","53","44","37","44","26","0.8479","0.000488","-0.526428","-0.062805","-0.015267","-0.007634","0.007634","8.594141","0.815869","4.237256","-0.153125","0.159106","-0.130396","0.065796","0.165088","-0.183032"
"O","1617446267.5201502","7","52","44","37","45","26","0.847961","0.000671","-0.526306","-0.062805","-0.015267","-0.007634","0","8.600122","0.826636","4.257593","-0.145947","0.16748","-0.112451","0.053833","0.173462","-0.168677"
"O","1617446267.510232","7","51","41","36","42","26","0.848022","0.000854","-0.526245","-0.062683","-0.015267","-0.007634","0","8.604907","0.806299","4.256396","-0.139966","0.144751","-0.114844","0.056226","0.150732","-0.166284"
"O","1617446267.4999936","7","51","43","33","41","26","0.848022","0.000854","-0.526245","-0.062561","-0.015267","0","-0.007634","8.614477","0.747681","4.248023","-0.130396","0.087329","-0.123218","0.061011","0.092114","-0.165088"
"O","1617446267.490208","7","50","42","36","44","26","0.847961","0.000854","-0.526306","-0.062439","-0.007634","0.007634","-0.007634","8.627637","0.675903","4.242041","-0.118433","0.016748","-0.128003","0.063403","0.020337","-0.161499"
"O","1617446267.480355","7","54","44","38","40","26","0.847961","0.000854","-0.526367","-0.062317","-0.015267","0","-0.007634","8.624048","0.632837","4.248023","-0.122021","-0.023926","-0.120825","0.05144","-0.017944","-0.163892"
"O","1617446267.4700172","7","51","42","35","46","28","0.847961","0.000977","-0.526428","-0.062134","-0.015267","0","-0.007634","8.596533","0.624463","4.261182","-0.150732","-0.0323","-0.10647","0.025122","-0.022729","-0.183032"
"O","1617446267.4602213","7","39","43","35","46","26","0.847961","0.001099","-0.526428","-0.061951","-0.022901","-0.007634","-0.015267","8.558252","0.632837","4.267163","-0.189014","-0.023926","-0.100488","0.003589","-0.00957","-0.214136"
"O","1617446267.4500751","7","54","45","35","40","26","0.848022","0.001282","-0.526367","-0.061707","-0.015267","-0.007634","-0.015267","8.541504","0.641211","4.271948","-0.205762","-0.015552","-0.096899","-0.004785","0","-0.227295"
"O","1617446267.440102","7","53","43","37","44","26","0.848083","0.001404","-0.526306","-0.061462","-0.015267","-0.007634","-0.007634","8.540308","0.634033","4.269556","-0.205762","-0.022729","-0.100488","-0.002393","-0.005981","-0.229687"
"O","1617446267.4301755","7","53","43","36","41","27","0.848083","0.001465","-0.526245","-0.06134","-0.007634","-0.007634","-0.007634","8.548681","0.623267","4.281518","-0.196191","-0.033496","-0.089722","-0.008374","-0.017944","-0.216528"
"O","1617446267.4203556","7","52","41","37","48","28","0.848145","0.001465","-0.526245","-0.061279","-0.007634","-0.007634","0","8.548681","0.624463","4.283911","-0.197388","-0.031104","-0.088525","-0.00957","-0.014355","-0.217725"
"O","1617446267.4101217","7","53","43","36","42","28","0.848145","0.001526","-0.526184","-0.06134","-0.007634","-0.007634","0","8.525952","0.645996","4.288696","-0.218921","-0.011963","-0.08374","-0.021533","0.005981","-0.233276"
"O","1617446267.4000752","7","54","44","35","43","28","0.848145","0.001648","-0.526184","-0.06134","-0.007634","0","0","8.506811","0.679492","4.285108","-0.238062","0.019141","-0.087329","-0.023926","0.038281","-0.250024"
"O","1617446267.390102","7","51","42","36","43","26","0.848145","0.001709","-0.526245","-0.06134","-0.007634","0","0","8.492456","0.705811","4.280322","-0.252417","0.044263","-0.092114","-0.023926","0.0646","-0.263184"
"O","1617446267.3802214","7","50","42","37","46","26","0.848022","0.00177","-0.526367","-0.061279","-0.007634","0.007634","0","8.493652","0.715381","4.274341","-0.252417","0.052637","-0.094507","-0.020337","0.072974","-0.263184"
"O","1617446267.3701484","7","53","44","34","44","27","0.847961","0.00177","-0.52655","-0.061279","-0.007634","0.007634","0","8.499634","0.699829","4.265967","-0.248828","0.037085","-0.099292","-0.015552","0.056226","-0.263184"
"O","1617446267.3600512","7","52","43","37","42","27","0.847839","0.00177","-0.526672","-0.061218","-0.007634","0","0","8.492456","0.675903","4.244433","-0.257202","0.014355","-0.118433","-0.004785","0.033496","-0.281128"
"O","1617446267.3500457","7","52","43","34","46","26","0.847778","0.00177","-0.526794","-0.061218","-0.007634","0","0","8.490064","0.653174","4.218115","-0.260791","-0.007178","-0.142358","0.011963","0.010767","-0.29668"
"O","1617446267.3409023","7","52","43","37","42","27","0.847778","0.00177","-0.526794","-0.061218","-0.007634","0","-0.007634","8.504419","0.626855","4.208545","-0.246436","-0.033496","-0.151929","0.023926","-0.015552","-0.289502"
"O","1617446267.3309088","7","53","43","34","42","27","0.847717","0.00177","-0.526855","-0.061218","-0.007634","0","-0.007634","8.525952","0.620874","4.21333","-0.224902","-0.040674","-0.144751","0.026318","-0.025122","-0.267969"
"O","1617446267.3209536","7","51","44","36","44","27","0.847717","0.00177","-0.526917","-0.061157","-0.007634","0","-0.007634","8.563037","0.618481","4.210938","-0.189014","-0.04187","-0.147144","0.044263","-0.029907","-0.236865"
"O","1617446267.3100202","7","53","43","35","47","26","0.847656","0.001831","-0.526978","-0.061157","-0.007634","0","0","8.600122","0.643604","4.231275","-0.151929","-0.017944","-0.124414","0.04187","-0.008374","-0.191406"
"O","1617446267.300265","7","52","44","41","46","26","0.847656","0.001892","-0.527039","-0.061157","-0.007634","0","0","8.615674","0.671118","4.239648","-0.137573","0.007178","-0.11604","0.044263","0.014355","-0.173462"
"O","1617446267.2909677","7","48","42","33","44","26","0.847656","0.002014","-0.527039","-0.061218","-0.007634","-0.007634","0","8.624048","0.692651","4.24563","-0.129199","0.026318","-0.110059","0.044263","0.0323","-0.161499"
"O","1617446267.2801964","7","51","42","36","46","26","0.847656","0.002075","-0.527039","-0.061279","-0.007634","0","0","8.632421","0.691455","4.244433","-0.120825","0.023926","-0.111255","0.049048","0.028711","-0.155518"
"O","1617446267.2702286","7","53","42","38","43","27","0.847595","0.002136","-0.527039","-0.06134","0","0","0","8.652759","0.681885","4.240845","-0.099292","0.011963","-0.113647","0.058618","0.014355","-0.137573"
"O","1617446267.2608728","7","54","42","36","44","26","0.847534","0.002136","-0.5271","-0.061462","0","0","0","8.663526","0.674707","4.23606","-0.089722","0.003589","-0.117236","0.065796","0.004785","-0.131592"
"O","1617446267.249941","7","48","43","36","43","27","0.847534","0.002075","-0.527161","-0.061523","0","0","0","8.650366","0.666333","4.208545","-0.104077","-0.003589","-0.143555","0.081348","-0.001196","-0.156714"
"O","1617446266.6111915","7","53","43","34","41","27","0.847107","0.004211","-0.527832","-0.061157","-0.015267","0","0.015267","8.735303","0.778784","4.184619","-0.022729","0.075366","-0.153125","0.133984","0.068188","-0.082544"
"O","1617446266.6012242","7","51","42","31","45","27","0.847107","0.004517","-0.527893","-0.061279","-0.015267","0","0.015267","8.780762","0.831421","4.182227","0.020337","0.122021","-0.155518","0.159106","0.108862","-0.040674"
"O","1617446266.591286","7","52","42","36","41","26","0.847046","0.004822","-0.527893","-0.061462","-0.015267","0","0.015267","8.81665","0.898413","4.183423","0.057422","0.181836","-0.153125","0.179443","0.165088","-0.002393"
"O","1617446266.581096","7","53","43","36","42","31","0.847046","0.005005","-0.527832","-0.061646","-0.007634","-0.007634","0.015267","8.844165","0.931909","4.17146","0.086133","0.210547","-0.166284","0.206958","0.189014","0.017944"
"O","1617446266.5712347","7","51","42","35","43","27","0.847107","0.005127","-0.527771","-0.061829","0","-0.007634","0.007634","8.862109","0.948657","4.154712","0.105273","0.223706","-0.184229","0.23208","0.19978","0.028711"
"O","1617446266.5611646","7","53","43","35","44","26","0.847229","0.005127","-0.527588","-0.062012","0","-0.007634","0.007634","8.860913","0.980957","4.159497","0.105273","0.253613","-0.184229","0.235669","0.228491","0.031104"
"O","1617446266.5510151","7","52","41","37","44","28","0.84729","0.005127","-0.527405","-0.062134","0","-0.007634","0.007634","8.875269","0.988135","4.169067","0.122021","0.259595","-0.177051","0.236865","0.233276","0.049048"
"O","1617446266.5411923","7","52","44","37","42","26","0.847412","0.005066","-0.527283","-0.062256","0","-0.007634","0","8.877661","0.994116","4.200171","0.12561","0.265576","-0.149536","0.214136","0.240454","0.0646"
"O","1617446266.531411","7","52","43","34","41","26","0.847473","0.005005","-0.5271","-0.062195","-0.007634","-0.007634","-0.007634","8.859716","0.988135","4.231275","0.110059","0.261987","-0.122021","0.183032","0.240454","0.063403"
"O","1617446266.5211344","7","51","40","37","41","26","0.847595","0.004883","-0.526978","-0.062012","-0.007634","-0.007634","-0.015267","8.822632","0.971387","4.261182","0.072974","0.248828","-0.094507","0.141162","0.233276","0.040674"
"O","1617446266.511279","7","50","43","35","39","26","0.847717","0.004639","-0.526794","-0.061707","-0.007634","-0.015267","-0.030534","8.77478","0.934302","4.276733","0.027515","0.218921","-0.082544","0.10647","0.209351","0.003589"
"O","1617446266.501886","7","53","42","36","42","26","0.8479","0.004395","-0.526611","-0.061218","-0.007634","-0.015267","-0.038168","8.694629","0.888843","4.292285","-0.05144","0.183032","-0.071777","0.058618","0.183032","-0.0646"
"O","1617446266.4918823","7","52","43","35","44","26","0.848083","0.004028","-0.526367","-0.060669","-0.007634","-0.022901","-0.045802","8.591748","0.837402","4.294678","-0.151929","0.143555","-0.07417","0.013159","0.154321","-0.15791"
"O","1617446266.4818137","7","49","40","34","43","26","0.848267","0.003601","-0.526184","-0.059998","-0.007634","-0.015267","-0.053435","8.503222","0.76084","4.291089","-0.240454","0.081348","-0.081348","-0.023926","0.100488","-0.244043"
"O","1617446266.472039","7","53","43","34","43","26","0.848389","0.003052","-0.526001","-0.059265","0","-0.015267","-0.053435","8.429052","0.657959","4.294678","-0.313428","-0.003589","-0.081348","-0.0646","0.023926","-0.31582"
"O","1617446266.4619253","7","49","43","37","46","26","0.848511","0.002441","-0.525879","-0.058533","0","-0.007634","-0.061069","8.359668","0.535937","4.286304","-0.382812","-0.107666","-0.092114","-0.095703","-0.072974","-0.388794"
"O","1617446266.4518516","7","52","44","34","41","27","0.848633","0.001892","-0.525818","-0.057739","-0.007634","0","-0.061069","8.321386","0.439038","4.286304","-0.42229","-0.186621","-0.094507","-0.118433","-0.14834","-0.430664"
"O","1617446266.4418385","7","51","44","36","43","26","0.848633","0.001526","-0.52594","-0.056946","-0.015267","0","-0.061069","8.302246","0.381616","4.295874","-0.443823","-0.229687","-0.082544","-0.143555","-0.189014","-0.446216"
"O","1617446266.4317684","7","51","43","37","44","28","0.848572","0.001282","-0.526123","-0.05603","-0.022901","0.007634","-0.061069","8.30105","0.351709","4.291089","-0.447412","-0.246436","-0.082544","-0.145947","-0.205762","-0.451001"
"O","1617446266.421834","7","52","43","34","23","26","0.84845","0.001099","-0.526428","-0.055176","-0.022901","0.015267","-0.053435","8.348902","0.319409","4.267163","-0.403149","-0.267969","-0.100488","-0.111255","-0.233276","-0.419897"
"O","1617446266.411789","7","53","43","34","44","26","0.848267","0.001099","-0.526733","-0.054443","-0.022901","0.015267","-0.045802","8.397949","0.309839","4.23606","-0.35769","-0.270361","-0.12561","-0.069385","-0.24165","-0.391187"
"O","1617446266.401789","7","48","40","32","46","27","0.848083","0.001099","-0.5271","-0.053772","-0.022901","0.015267","-0.038168","8.444605","0.321802","4.209741","-0.31582","-0.251221","-0.143555","-0.0323","-0.227295","-0.360083"
"O","1617446266.3918438","7","49","41","34","44","26","0.8479","0.00116","-0.527466","-0.053162","-0.022901","0.015267","-0.038168","8.484082","0.349316","4.19419","-0.279932","-0.218921","-0.151929","-0.005981","-0.19978","-0.330176"
"O","1617446266.382032","7","51","41","33","43","27","0.847717","0.001221","-0.527771","-0.052673","-0.022901","0.015267","-0.030534","8.52356","0.372046","4.182227","-0.244043","-0.192603","-0.156714","0.015552","-0.177051","-0.297876"
"O","1617446266.3720005","7","52","44","37","38","26","0.847595","0.001282","-0.528076","-0.052246","-0.015267","0.015267","-0.022901","8.548681","0.403149","4.177442","-0.22251","-0.15791","-0.156714","0.028711","-0.144751","-0.276343"
"O","1617446266.361992","7","52","43","38","45","28","0.847412","0.001343","-0.528381","-0.051941","-0.007634","0.015267","-0.022901","8.558252","0.425879","4.177442","-0.215332","-0.133984","-0.149536","0.027515","-0.120825","-0.265576"
"O","1617446266.3520298","7","53","44","34","45","26","0.84729","0.001343","-0.528564","-0.051697","-0.007634","0.007634","-0.015267","8.551074","0.449805","4.163086","-0.224902","-0.107666","-0.160303","0.035889","-0.094507","-0.277539"
"O","1617446266.341842","7","49","43","36","45","26","0.847229","0.001282","-0.528687","-0.051575","-0.007634","0.007634","-0.015267","8.530737","0.478516","4.141553","-0.246436","-0.076563","-0.179443","0.046655","-0.063403","-0.303857"
"O","1617446266.3319857","7","52","45","34","44","27","0.847168","0.001282","-0.52887","-0.051453","-0.007634","0.007634","-0.007634","8.524755","0.508423","4.136767","-0.25481","-0.045459","-0.18064","0.046655","-0.031104","-0.309839"
"O","1617446266.3220448","7","49","43","36","47","28","0.847046","0.001343","-0.528992","-0.051392","-0.007634","0.007634","-0.007634","8.521167","0.532349","4.127197","-0.259595","-0.022729","-0.186621","0.05144","-0.008374","-0.31582"
"O","1617446266.3120615","7","53","43","35","40","26","0.846985","0.001404","-0.529114","-0.05127","-0.007634","0.007634","-0.007634","8.504419","0.543115","4.121216","-0.277539","-0.010767","-0.19021","0.047852","0.003589","-0.332568"
"O","1617446266.301864","7","50","42","36","43","26","0.846924","0.001465","-0.529297","-0.051147","-0.007634","0.007634","-0.007634","8.498438","0.535937","4.121216","-0.285913","-0.017944","-0.187817","0.04187","-0.001196","-0.339746"
"O","1617446266.2921574","7","51","43","36","42","26","0.846802","0.001404","-0.529419","-0.051025","-0.007634","0.007634","-0.007634","8.498438","0.512012","4.112842","-0.285913","-0.040674","-0.192603","0.044263","-0.025122","-0.342139"
"O","1617446266.282133","7","53","41","34","43","27","0.846741","0.001404","-0.52948","-0.051025","-0.007634","0","-0.007634","8.508008","0.503638","4.100879","-0.277539","-0.049048","-0.203369","0.057422","-0.034692","-0.339746"
"O","1617446266.2719357","7","54","43","33","45","26","0.846741","0.001465","-0.529541","-0.050964","-0.007634","0","0","8.519971","0.520386","4.103271","-0.266772","-0.0323","-0.19978","0.059814","-0.017944","-0.327783"
"O","1617446266.2619026","7","52","44","35","46","26","0.84668","0.001587","-0.529602","-0.051025","-0.007634","0","0","8.530737","0.563452","4.124804","-0.256006","0.007178","-0.177051","0.047852","0.020337","-0.30625"
"O","1617446266.251999","7","52","44","37","44","28","0.846619","0.00177","-0.529663","-0.051025","-0.007634","0","0","8.549878","0.614893","4.152319","-0.236865","0.055029","-0.147144","0.033496","0.066992","-0.272754"
"O","1617446266.2419517","7","53","42","36","42","27","0.846558","0.001892","-0.529785","-0.051086","-0.007634","0","0.007634","8.569018","0.66394","4.175049","-0.218921","0.101685","-0.122021","0.022729","0.113647","-0.242847"
"O","1617446266.2320452","7","53","44","36","46","27","0.846558","0.002014","-0.529846","-0.051208","-0.007634","0","0.007634","8.578588","0.690259","4.187012","-0.210547","0.124414","-0.110059","0.017944","0.136377","-0.229687"
"O","1617446266.2220483","7","52","41","35","43","26","0.846497","0.002014","-0.529907","-0.051392","0","0","0.007634","8.583374","0.699829","4.182227","-0.205762","0.131592","-0.113647","0.023926","0.142358","-0.226099"
"O","1617446266.2119803","7","54","42","35","43","26","0.846436","0.002014","-0.529968","-0.051453","0","0","0","8.598926","0.684277","4.184619","-0.19021","0.11604","-0.108862","0.025122","0.126807","-0.210547"
"O","1617446266.2019374","7","51","43","34","43","27","0.846375","0.001953","-0.530029","-0.051514","0","0","0","8.609693","0.655566","4.182227","-0.18064","0.087329","-0.110059","0.027515","0.096899","-0.204565"
"O","1617446266.1920412","7","52","43","34","44","26","0.846375","0.001892","-0.53009","-0.051514","0","0","-0.007634","8.636011","0.624463","4.178638","-0.155518","0.057422","-0.113647","0.039478","0.0646","-0.185425"
"O","1617446266.1820393","7","70","43","37","45","26","0.846313","0.00177","-0.530212","-0.051392","-0.007634","0.007634","-0.007634","8.66831","0.584985","4.170264","-0.124414","0.021533","-0.119629","0.055029","0.025122","-0.162695"
"O","1617446266.1719778","7","52","44","36","43","25","0.846252","0.001709","-0.530334","-0.051331","-0.007634","0.007634","-0.007634","8.716162","0.549097","4.164282","-0.077759","-0.011963","-0.123218","0.075366","-0.010767","-0.123218"
"O","1617446266.1619456","7","53","43","36","50","26","0.846191","0.001709","-0.530396","-0.051208","-0.007634","0","-0.007634","8.738892","0.527563","4.151123","-0.055029","-0.0323","-0.133984","0.093311","-0.033496","-0.108862"
"O","1617446266.1518452","7","49","43","36","46","27","0.84613","0.001709","-0.530457","-0.051147","-0.007634","0","-0.007634","8.754443","0.520386","4.141553","-0.040674","-0.039478","-0.142358","0.10647","-0.04187","-0.100488"
"O","1617446266.141873","7","53","40","34","43","27","0.84613","0.001709","-0.530457","-0.051025","-0.007634","0","-0.007634","8.773584","0.539526","4.154712","-0.021533","-0.019141","-0.129199","0.104077","-0.022729","-0.076563"
"O","1617446266.1396036","7","53","42","35","44","27","0.84613","0.00177","-0.530457","-0.050903","-0.007634","0","-0.007634","8.777173","0.569434","4.165479","-0.017944","0.010767","-0.118433","0.099292","0.005981","-0.066992"
"O","1617446266.1382773","7","52","43","36","45","26","0.846191","0.001831","-0.530396","-0.050842","-0.007634","-0.007634","-0.007634","8.766406","0.600537","4.191797","-0.027515","0.040674","-0.093311","0.07417","0.037085","-0.062207"
"O","1617446266.1119957","7","49","41","34","44","27","0.846313","0.00177","-0.530273","-0.05072","0","-0.015267","-0.007634","8.738892","0.62207","4.219312","-0.055029","0.0646","-0.069385","0.043066","0.0646","-0.075366"
"O","1617446266.1021786","7","51","43","35","40","25","0.846436","0.001648","-0.53009","-0.050659","0.007634","-0.015267","-0.007634","8.720947","0.616089","4.23606","-0.070581","0.062207","-0.056226","0.025122","0.0646","-0.08374"
"O","1617446266.092123","7","53","43","36","48","26","0.846558","0.001465","-0.529907","-0.050659","0.007634","-0.015267","-0.007634","8.711377","0.611304","4.248023","-0.078955","0.059814","-0.047852","0.013159","0.063403","-0.087329"
"O","1617446266.082052","7","53","45","36","40","26","0.84668","0.001221","-0.529663","-0.050598","0.007634","-0.015267","-0.015267","8.69104","0.610107","4.256396","-0.096899","0.063403","-0.044263","0.002393","0.068188","-0.101685"
"O","1617446266.0721505","7","53","41","33","47","27","0.846802","0.001038","-0.529541","-0.050598","0","-0.015267","-0.015267","8.669507","0.611304","4.250415","-0.117236","0.068188","-0.053833","0.002393","0.07417","-0.124414"
"O","1617446266.062158","7","52","41","36","43","26","0.846863","0.000854","-0.529419","-0.050415","0","-0.007634","-0.022901","8.664721","0.626855","4.248023","-0.120825","0.088525","-0.057422","0.005981","0.094507","-0.128003"
"O","1617446266.0522046","7","53","42","34","42","26","0.846863","0.000671","-0.529419","-0.050171","0","0","-0.022901","8.657544","0.625659","4.246826","-0.129199","0.093311","-0.058618","0.003589","0.100488","-0.136377"
"O","1617446266.042119","7","52","42","37","43","26","0.846863","0.000366","-0.52948","-0.049805","0","0","-0.030534","8.636011","0.605322","4.230078","-0.151929","0.081348","-0.07417","0.007178","0.089722","-0.163892"
"O","1617446266.032018","7","51","42","34","44","26","0.846863","0","-0.529541","-0.049438","0.007634","0","-0.030534","8.600122","0.563452","4.191797","-0.189014","0.050244","-0.111255","0.021533","0.059814","-0.215332"
"O","1617446266.0219817","7","51","42","34","46","26","0.846802","-0.000427","-0.529602","-0.049072","0.007634","0.007634","-0.030534","8.579785","0.502441","4.146338","-0.210547","0","-0.155518","0.047852","0.008374","-0.256006"
"O","1617446266.0120356","7","53","42","36","42","26","0.846741","-0.000854","-0.529724","-0.048828","0.007634","0","-0.030534","8.570215","0.446216","4.102075","-0.221313","-0.045459","-0.197388","0.076563","-0.037085","-0.287109"
"O","1617446266.002097","7","51","43","35","43","26","0.846741","-0.001282","-0.529785","-0.048584","0.007634","0","-0.030534","8.548681","0.410327","4.054224","-0.244043","-0.071777","-0.244043","0.10647","-0.0646","-0.328979"
"O","1617446265.9921432","7","53","43","35","43","27","0.846741","-0.001648","-0.529785","-0.04834","0.007634","0","-0.030534","8.521167","0.379224","4.017138","-0.272754","-0.094507","-0.281128","0.12561","-0.087329","-0.372046"
"O","1617446265.982086","7","54","41","34","43","26","0.846741","-0.001953","-0.529785","-0.048096","0.007634","0","-0.022901","8.499634","0.344531","4.001587","-0.294287","-0.122021","-0.29668","0.128003","-0.113647","-0.399561"
"O","1617446265.972187","7","54","42","35","46","26","0.846802","-0.002258","-0.529724","-0.047913","0.007634","0","-0.022901","8.468531","0.318213","4.005176","-0.325391","-0.141162","-0.294287","0.110059","-0.130396","-0.427075"
"O","1617446265.962044","7","52","42","36","41","26","0.846863","-0.002625","-0.529663","-0.047791","0.015267","-0.007634","-0.022901","8.443408","0.29668","4.014746","-0.350513","-0.155518","-0.285913","0.090918","-0.142358","-0.446216"
"O","1617446265.952078","7","51","43","34","43","26","0.846924","-0.00293","-0.529541","-0.047729","0.007634","-0.007634","-0.022901","8.406323","0.283521","4.04585","-0.386401","-0.162695","-0.257202","0.047852","-0.145947","-0.466553"
"O","1617446265.9420784","7","52","41","36","42","26","0.846985","-0.003174","-0.529419","-0.047668","0.007634","-0.015267","-0.015267","8.368042","0.289502","4.090112","-0.423486","-0.151929","-0.215332","-0.003589","-0.130396","-0.480908"
"O","1617446265.9322104","7","49","42","35","43","26","0.847107","-0.003357","-0.529236","-0.047607","0","-0.015267","-0.015267","8.340528","0.303857","4.121216","-0.448608","-0.133984","-0.187817","-0.037085","-0.108862","-0.490479"
"O","1617446265.9220629","7","51","44","36","44","42","0.847229","-0.003418","-0.529053","-0.047546","0","-0.022901","-0.015267","8.317798","0.332568","4.136767","-0.470142","-0.102881","-0.175854","-0.055029","-0.075366","-0.502441"
"O","1617446265.9124424","7","52","39","37","44","26","0.847351","-0.003418","-0.528931","-0.047485","-0.007634","-0.015267","-0.007634","8.313013","0.360083","4.12959","-0.47373","-0.075366","-0.186621","-0.045459","-0.049048","-0.509619"
"O","1617446265.9019687","7","53","43","37","44","26","0.847412","-0.003357","-0.528748","-0.047485","-0.007634","-0.015267","0","8.351294","0.382812","4.136767","-0.433057","-0.052637","-0.181836","-0.029907","-0.028711","-0.470142"
"O","1617446265.8923385","7","54","43","36","42","26","0.847534","-0.003296","-0.528625","-0.047485","-0.007634","-0.015267","0","8.388379","0.409131","4.14873","-0.395972","-0.027515","-0.173462","-0.019141","-0.005981","-0.43186"
"O","1617446265.8822722","7","51","43","36","46","26","0.847595","-0.003174","-0.528503","-0.047546","-0.007634","-0.015267","0","8.407519","0.423486","4.172656","-0.374438","-0.015552","-0.151929","-0.028711","0.004785","-0.403149"
"O","1617446265.872312","7","54","44","36","44","28","0.847656","-0.003113","-0.52832","-0.047607","-0.007634","-0.015267","0","8.418286","0.437842","4.20376","-0.361279","-0.002393","-0.124414","-0.046655","0.017944","-0.378027"
"O","1617446265.8620486","7","52","44","36","47","26","0.847778","-0.002991","-0.528198","-0.047729","0","-0.015267","0.007634","8.426661","0.440234","4.244433","-0.352905","-0.003589","-0.086133","-0.076563","0.017944","-0.354102"
"O","1617446265.8522606","7","52","41","36","46","26","0.847839","-0.003052","-0.528015","-0.047852","0.007634","-0.015267","0.007634","8.445801","0.429468","4.279126","-0.331372","-0.014355","-0.055029","-0.096899","0.008374","-0.320605"
"O","1617446265.8422718","7","53","41","34","46","26","0.847961","-0.003052","-0.527893","-0.048096","0.007634","-0.015267","0.007634","8.452978","0.415112","4.309033","-0.322998","-0.031104","-0.028711","-0.118433","-0.007178","-0.302661"
"O","1617446265.8323696","7","52","43","36","44","26","0.848022","-0.003113","-0.527771","-0.048401","0.007634","-0.015267","0.015267","8.454175","0.418701","4.3198","-0.320605","-0.029907","-0.020337","-0.124414","-0.004785","-0.29668"
"O","1617446265.8220727","7","52","43","36","42","26","0.848022","-0.002991","-0.52771","-0.048767","0","-0.007634","0.015267","8.481689","0.442627","4.322192","-0.291895","-0.011963","-0.019141","-0.111255","0.00957","-0.270361"
"O","1617446265.8120067","7","54","43","37","41","27","0.847961","-0.002747","-0.52771","-0.049072","-0.007634","0","0.022901","8.513989","0.485693","4.306641","-0.258398","0.022729","-0.033496","-0.080151","0.040674","-0.244043"
"O","1617446265.802308","7","51","43","36","49","28","0.8479","-0.00238","-0.527832","-0.049316","-0.015267","0.007634","0.022901","8.570215","0.529956","4.280322","-0.203369","0.058618","-0.058618","-0.031104","0.070581","-0.204565"
"O","1617446265.7922957","7","52","44","36","45","27","0.847717","-0.002014","-0.528137","-0.049561","-0.022901","0.015267","0.022901","8.641993","0.565845","4.242041","-0.133984","0.086133","-0.090918","0.029907","0.090918","-0.155518"
"O","1617446265.7819247","7","53","42","34","40","26","0.847473","-0.001648","-0.528503","-0.049744","-0.015267","0.022901","0.022901","8.704199","0.568237","4.192993","-0.075366","0.080151","-0.131592","0.090918","0.077759","-0.120825"
"O","1617446265.772054","7","38","42","32","42","26","0.847168","-0.001343","-0.528931","-0.049988","-0.015267","0.022901","0.022901","8.730517","0.53833","4.120019","-0.052637","0.04187","-0.194995","0.154321","0.034692","-0.130396"
"O","1617446265.7622378","7","51","41","36","43","24","0.846924","-0.001099","-0.529358","-0.050171","-0.007634","0.022901","0.015267","8.738892","0.485693","4.033887","-0.049048","-0.015552","-0.27395","0.22251","-0.026318","-0.165088"
"O","1617446265.7520287","7","49","41","36","42","24","0.84668","-0.000977","-0.529663","-0.050415","0","0.015267","0.015267","8.719751","0.428271","3.956128","-0.070581","-0.077759","-0.344531","0.271558","-0.089722","-0.217725"
"O","1617446265.742081","7","53","43","34","43","26","0.846558","-0.000854","-0.529846","-0.050659","-0.007634","0.015267","0.007634","8.662329","0.381616","3.904687","-0.129199","-0.129199","-0.392383","0.284717","-0.13877","-0.294287"
"O","1617446265.7330265","7","51","42","33","42","26","0.846497","-0.000793","-0.529907","-0.050781","-0.007634","0.007634","0","8.608496","0.361279","3.885547","-0.183032","-0.151929","-0.409131","0.27395","-0.15791","-0.350513"
"O","1617446265.7227943","7","51","42","34","42","27","0.846497","-0.00061","-0.529968","-0.050842","-0.015267","0.007634","0","8.578588","0.369653","3.893921","-0.214136","-0.147144","-0.400757","0.253613","-0.149536","-0.374438"
"O","1617446265.7123754","7","53","43","35","42","27","0.846436","-0.000427","-0.530029","-0.050903","-0.015267","0","0","8.560644","0.393579","3.908276","-0.23208","-0.128003","-0.385205","0.233276","-0.128003","-0.382812"
"O","1617446265.702252","7","53","43","36","42","26","0.846436","-0.000183","-0.529968","-0.050964","-0.015267","0","0.007634","8.551074","0.421094","3.934595","-0.240454","-0.104077","-0.358887","0.208154","-0.101685","-0.378027"
"O","1617446265.692821","7","51","44","37","45","26","0.846497","0.000122","-0.529968","-0.051025","-0.015267","0","0.007634","8.554663","0.460571","3.978858","-0.238062","-0.070581","-0.31582","0.173462","-0.065796","-0.355298"
"O","1617446265.6822758","7","54","43","37","42","26","0.846497","0.000488","-0.529907","-0.051208","-0.015267","-0.007634","0.015267","8.549878","0.517993","4.020728","-0.240454","-0.021533","-0.275146","0.139966","-0.014355","-0.337354"
"O","1617446265.6721816","7","52","42","35","42","26","0.846558","0.000916","-0.529785","-0.051392","-0.022901","-0.015267","0.015267","8.536718","0.586182","4.073364","-0.252417","0.037085","-0.224902","0.094507","0.046655","-0.321802"
"O","1617446265.662837","7","53","42","34","42","26","0.84668","0.001343","-0.529602","-0.051575","-0.022901","-0.015267","0.022901","8.528345","0.651978","4.112842","-0.258398","0.093311","-0.189014","0.0646","0.105273","-0.308643"
"O","1617446265.6520634","7","53","43","37","43","26","0.846802","0.00177","-0.529358","-0.051819","-0.022901","-0.015267","0.022901","8.541504","0.710596","4.166675","-0.24165","0.143555","-0.139966","0.0323","0.156714","-0.269165"
"O","1617446265.6421185","7","51","42","35","48","26","0.846924","0.002197","-0.529175","-0.052002","-0.015267","-0.015267","0.022901","8.569018","0.735718","4.231275","-0.211743","0.159106","-0.080151","-0.005981","0.172266","-0.215332"
"O","1617446265.632991","7","53","43","37","39","6","0.847046","0.002502","-0.528992","-0.052124","-0.015267","-0.015267","0.015267","8.59773","0.732129","4.288696","-0.181836","0.149536","-0.026318","-0.04187","0.163892","-0.165088"
"O","1617446265.622053","7","53","43","34","47","26","0.847107","0.002747","-0.52887","-0.052185","-0.015267","-0.015267","0.007634","8.620459","0.708203","4.32937","-0.156714","0.120825","0.010767","-0.066992","0.133984","-0.128003"
"O","1617446265.6130416","7","52","41","38","46","29","0.847168","0.002991","-0.528748","-0.052246","-0.022901","-0.015267","0.007634","8.650366","0.684277","4.347314","-0.12561","0.092114","0.026318","-0.069385","0.104077","-0.094507"
"O","1617446265.6021788","7","51","43","36","43","26","0.847168","0.003296","-0.528687","-0.052185","-0.022901","-0.007634","0.007634","8.685059","0.665137","4.346118","-0.089722","0.069385","0.025122","-0.055029","0.077759","-0.0646"
"O","1617446265.592801","7","53","43","36","44","28","0.847168","0.003662","-0.528748","-0.052063","-0.030534","0","0","8.71377","0.665137","4.348511","-0.061011","0.0646","0.027515","-0.045459","0.070581","-0.038281"
"O","1617446265.5825076","7","52","43","34","44","26","0.847107","0.004028","-0.528809","-0.051941","-0.022901","0.007634","0","8.738892","0.6771","4.359277","-0.035889","0.071777","0.040674","-0.045459","0.076563","-0.00957"
"O","1617446265.572305","7","53","43","39","44","26","0.847046","0.004333","-0.528992","-0.051819","-0.022901","0.007634","0","8.764013","0.697437","4.373633","-0.013159","0.087329","0.057422","-0.049048","0.089722","0.017944"
"O","1617446265.5628235","7","53","41","37","45","27","0.846924","0.004639","-0.529114","-0.051758","-0.015267","0.007634","0.007634","8.759229","0.724951","4.387988","-0.019141","0.110059","0.075366","-0.065796","0.113647","0.022729"
"O","1617446265.5522263","7","54","43","34","45","27","0.846863","0.004822","-0.529236","-0.051758","-0.015267","0","0.007634","8.735303","0.763232","4.408325","-0.044263","0.145947","0.098096","-0.094507","0.153125","0.011963"
"O","1617446265.5429711","7","51","39","33","42","26","0.846863","0.004944","-0.529297","-0.051819","-0.007634","-0.007634","0.007634","8.705396","0.783569","4.43584","-0.07417","0.163892","0.126807","-0.131592","0.174658","0"
"O","1617446265.532899","7","52","40","34","46","26","0.846863","0.004944","-0.529297","-0.05188","0","-0.007634","0","8.664721","0.787158","4.451392","-0.114844","0.166284","0.142358","-0.162695","0.181836","-0.028711"
"O","1617446265.5227668","7","52","44","36","42","27","0.846863","0.004822","-0.529297","-0.051941","0.007634","-0.007634","0","8.613281","0.771606","4.456177","-0.166284","0.151929","0.147144","-0.191406","0.173462","-0.07417"
"O","1617446265.5129132","7","51","43","35","44","26","0.846802","0.004639","-0.529297","-0.052002","0.007634","-0.007634","-0.007634","8.575","0.740503","4.440625","-0.204565","0.123218","0.131592","-0.196191","0.147144","-0.117236"
"O","1617446265.502853","7","51","43","36","42","27","0.846741","0.004395","-0.529358","-0.052002","0.007634","0","-0.007634","8.55586","0.699829","4.397559","-0.224902","0.087329","0.090918","-0.171069","0.111255","-0.155518"
"O","1617446265.4930327","7","53","44","36","47","28","0.84668","0.00415","-0.529541","-0.051941","0.007634","0.007634","-0.015267","8.563037","0.662744","4.340137","-0.220117","0.053833","0.035889","-0.122021","0.075366","-0.177051"
"O","1617446265.4829829","7","53","43","35","45","27","0.846497","0.003845","-0.529846","-0.051941","0.007634","0.022901","-0.015267","8.592944","0.636426","4.2875","-0.193799","0.0323","-0.00957","-0.071777","0.049048","-0.175854"
"O","1617446265.472879","7","53","40","36","42","26","0.846252","0.003601","-0.530273","-0.05188","0.007634","0.022901","-0.015267","8.620459","0.626855","4.249219","-0.171069","0.027515","-0.039478","-0.035889","0.040674","-0.168677"
"O","1617446265.462815","7","53","43","36","43","26","0.845947","0.003357","-0.530701","-0.05188","0.007634","0.022901","-0.007634","8.622851","0.62207","4.1906","-0.172266","0.026318","-0.088525","0.007178","0.037085","-0.191406"
"O","1617446265.45302","7","53","42","34","43","26","0.845703","0.003052","-0.531128","-0.05188","0.015267","0.022901","-0.007634","8.613281","0.605322","4.13916","-0.186621","0.014355","-0.131592","0.038281","0.023926","-0.223706"
"O","1617446265.442973","7","53","41","36","43","26","0.845459","0.002686","-0.531494","-0.051941","0.022901","0.022901","-0.007634","8.604907","0.575415","4.079346","-0.198584","-0.00957","-0.183032","0.077759","0","-0.258398"
"O","1617446265.433043","7","53","43","36","43","26","0.845276","0.002258","-0.531799","-0.052063","0.022901","0.015267","-0.007634","8.571411","0.555078","4.017138","-0.235669","-0.023926","-0.239258","0.111255","-0.014355","-0.317017"
"O","1617446265.4229977","7","51","44","37","44","26","0.845093","0.001831","-0.532104","-0.052246","0.022901","0.015267","-0.007634","8.564234","0.52876","3.959717","-0.246436","-0.045459","-0.290698","0.151929","-0.037085","-0.349316"
"O","1617446265.4130547","7","51","42","35","47","26","0.84491","0.001465","-0.532288","-0.052368","0.015267","0.015267","-0.007634","8.571411","0.508423","3.908276","-0.24165","-0.061011","-0.337354","0.193799","-0.056226","-0.366064"
"O","1617446265.4029255","7","51","44","33","44","27","0.844849","0.00116","-0.53241","-0.05249","0.015267","0.007634","-0.007634","8.582178","0.501245","3.885547","-0.23208","-0.0646","-0.35769","0.216528","-0.062207","-0.367261"
"O","1617446265.39312","7","52","43","36","42","26","0.844788","0.000854","-0.532471","-0.052612","0.007634","0.007634","-0.007634","8.601318","0.500049","3.871192","-0.214136","-0.062207","-0.37085","0.235669","-0.062207","-0.356494"
"O","1617446265.3831282","7","49","40","34","44","26","0.844727","0.000671","-0.532532","-0.052673","0.007634","0.007634","-0.007634","8.63003","0.507227","3.871192","-0.185425","-0.052637","-0.369653","0.247632","-0.055029","-0.328979"
"O","1617446265.372939","7","52","40","37","42","26","0.844727","0.000549","-0.532593","-0.052734","0.007634","0.007634","-0.007634","8.656347","0.508423","3.887939","-0.160303","-0.050244","-0.351709","0.242847","-0.053833","-0.299072"
"O","1617446265.3628993","7","52","43","36","42","26","0.844666","0.000427","-0.532654","-0.052734","0.007634","0","-0.007634","8.665918","0.502441","3.90708","-0.151929","-0.055029","-0.331372","0.227295","-0.058618","-0.282324"
"O","1617446265.353034","7","52","40","33","44","26","0.844727","0.000305","-0.532593","-0.052795","0.007634","-0.007634","-0.007634","8.640796","0.494067","3.925025","-0.175854","-0.061011","-0.314624","0.202173","-0.062207","-0.29668"
"O","1617446265.3430886","7","50","42","33","41","45","0.844788","0.000122","-0.532471","-0.052795","0.007634","-0.007634","-0.007634","8.619263","0.477319","3.936987","-0.196191","-0.075366","-0.305054","0.183032","-0.07417","-0.312231"
"O","1617446265.3330617","7","54","42","37","45","26","0.84491","0","-0.532288","-0.052856","0.007634","-0.007634","-0.007634","8.609693","0.447412","3.954932","-0.204565","-0.102881","-0.290698","0.163892","-0.099292","-0.314624"
"O","1617446265.3232186","7","53","43","35","46","26","0.844971","-0.000061","-0.532166","-0.052917","0","-0.007634","0","8.601318","0.427075","3.968091","-0.211743","-0.123218","-0.279932","0.149536","-0.118433","-0.318213"
"O","1617446265.31317","7","76","42","35","40","26","0.845093","-0.000061","-0.531982","-0.052979","0","-0.007634","0","8.602514","0.415112","3.972876","-0.208154","-0.135181","-0.279932","0.149536","-0.131592","-0.31582"
"O","1617446265.3030322","7","51","41","37","43","26","0.845154","0","-0.53186","-0.05304","-0.007634","-0.007634","0","8.624048","0.424683","3.986035","-0.185425","-0.128003","-0.269165","0.150732","-0.12561","-0.290698"
"O","1617446265.29294","7","51","37","34","42","27","0.845215","0.000183","-0.531738","-0.053101","-0.015267","-0.007634","0","8.651563","0.449805","4.011157","-0.156714","-0.10647","-0.246436","0.144751","-0.105273","-0.253613"
"O","1617446265.2832882","7","52","41","35","41","23","0.845276","0.000427","-0.531616","-0.053101","-0.015267","-0.007634","0","8.665918","0.495264","4.05542","-0.139966","-0.0646","-0.204565","0.117236","-0.062207","-0.217725"
"O","1617446265.2730303","7","51","43","36","44","26","0.845337","0.000671","-0.531555","-0.05304","-0.022901","-0.007634","0","8.674292","0.545508","4.099683","-0.131592","-0.017944","-0.161499","0.086133","-0.014355","-0.189014"
"O","1617446265.263044","7","49","42","36","42","27","0.845398","0.000916","-0.531433","-0.052917","-0.022901","-0.007634","-0.007634","8.66831","0.594556","4.140357","-0.136377","0.027515","-0.123218","0.053833","0.0323","-0.173462"
"O","1617446265.2529898","7","53","43","36","42","26","0.845459","0.00116","-0.531372","-0.052734","-0.015267","-0.007634","-0.007634","8.646777","0.623267","4.160693","-0.156714","0.053833","-0.104077","0.029907","0.061011","-0.181836"
"O","1617446265.2430289","7","52","42","33","42","26","0.84552","0.001282","-0.531372","-0.052612","-0.015267","-0.007634","-0.007634","8.637207","0.623267","4.17146","-0.166284","0.053833","-0.094507","0.017944","0.063403","-0.186621"
"O","1617446265.2330613","7","53","44","36","42","26","0.84552","0.001404","-0.531311","-0.052429","-0.015267","-0.007634","-0.007634","8.624048","0.614893","4.176245","-0.179443","0.045459","-0.089722","0.007178","0.056226","-0.197388"
"O","1617446265.2232049","7","51","41","34","41","26","0.845581","0.001465","-0.53125","-0.052307","-0.015267","-0.007634","-0.007634","8.627637","0.601733","4.178638","-0.174658","0.0323","-0.088525","0.007178","0.043066","-0.192603"
"O","1617446265.2131815","7","53","41","33","42","26","0.845581","0.001587","-0.53125","-0.052185","-0.015267","0","-0.007634","8.644384","0.601733","4.210938","-0.15791","0.031104","-0.056226","-0.014355","0.04187","-0.163892"
"O","1617446265.2031353","7","51","42","34","43","27","0.845581","0.001709","-0.53125","-0.052002","-0.015267","0","-0.007634","8.659937","0.611304","4.249219","-0.142358","0.040674","-0.017944","-0.040674","0.05144","-0.132788"
"O","1617446265.1931388","7","52","43","35","46","27","0.845581","0.001892","-0.531311","-0.051758","-0.015267","-0.007634","-0.007634","8.66831","0.620874","4.283911","-0.135181","0.050244","0.016748","-0.068188","0.062207","-0.110059"
"O","1617446265.1829836","7","52","43","38","42","26","0.845581","0.002014","-0.531311","-0.051575","-0.015267","-0.007634","-0.007634","8.662329","0.618481","4.313818","-0.141162","0.047852","0.046655","-0.098096","0.062207","-0.102881"
"O","1617446265.173027","7","54","43","35","44","26","0.845642","0.002075","-0.531311","-0.051453","-0.007634","-0.007634","-0.007634","8.644384","0.619678","4.336548","-0.159106","0.049048","0.068188","-0.124414","0.065796","-0.110059"
"O","1617446265.163442","7","53","43","38","43","26","0.845642","0.002014","-0.53125","-0.051331","0","-0.007634","-0.007634","8.619263","0.607715","4.340137","-0.183032","0.039478","0.071777","-0.13877","0.058618","-0.130396"
"O","1617446265.152843","7","51","43","36","44","26","0.845642","0.001831","-0.53125","-0.051331","0.007634","-0.015267","-0.007634","8.600122","0.599341","4.330566","-0.202173","0.033496","0.062207","-0.139966","0.053833","-0.151929"
"O","1617446265.1431508","7","49","42","35","43","26","0.845703","0.001709","-0.531189","-0.051392","0.007634","-0.015267","-0.007634","8.561841","0.607715","4.294678","-0.240454","0.044263","0.023926","-0.120825","0.065796","-0.202173"
"O","1617446265.133082","7","52","43","36","44","26","0.845703","0.001526","-0.531128","-0.051453","0.007634","-0.007634","-0.007634","8.537915","0.634033","4.258789","-0.26438","0.072974","-0.010767","-0.096899","0.094507","-0.236865"
"O","1617446265.1231203","7","54","42","34","44","29","0.845703","0.001343","-0.531128","-0.051453","0","0","-0.007634","8.529541","0.656763","4.219312","-0.272754","0.098096","-0.050244","-0.063403","0.118433","-0.260791"
"O","1617446264.7238958","7","51","42","35","43","26","0.844299","0.003296","-0.533447","-0.051025","0","0.007634","0","8.647974","0.520386","3.935791","-0.175854","-0.066992","-0.285913","0.177051","-0.0646","-0.284717"
"O","1617446264.7138703","7","50","43","38","43","27","0.844238","0.003235","-0.533447","-0.051086","0","0","0","8.633618","0.520386","3.94895","-0.189014","-0.066992","-0.271558","0.15791","-0.062207","-0.290698"
"O","1617446264.7040868","7","51","42","33","45","26","0.844299","0.003296","-0.533386","-0.051208","0","0","0","8.603711","0.540723","3.975269","-0.218921","-0.049048","-0.247632","0.12561","-0.040674","-0.30625"
"O","1617446264.693786","7","51","37","34","43","26","0.844299","0.003357","-0.533325","-0.05127","-0.007634","0","0","8.589355","0.563452","4.014746","-0.23208","-0.027515","-0.208154","0.086133","-0.015552","-0.300269"
"O","1617446264.683951","7","49","40","35","42","24","0.84436","0.003418","-0.533325","-0.051392","-0.007634","0","0","8.590551","0.590967","4.051831","-0.23208","-0.002393","-0.172266","0.055029","0.00957","-0.282324"
"O","1617446264.6733897","7","51","41","34","44","26","0.844299","0.003479","-0.533325","-0.051453","-0.007634","0","0.007634","8.578588","0.605322","4.069776","-0.242847","0.00957","-0.154321","0.035889","0.023926","-0.283521"
"O","1617446264.6639438","7","50","41","34","44","26","0.844299","0.00354","-0.533386","-0.051575","-0.007634","0","0.007634","8.58457","0.598145","4.057813","-0.238062","0","-0.165088","0.046655","0.013159","-0.284717"
"O","1617446264.653985","7","50","42","34","42","26","0.844238","0.003601","-0.533447","-0.051636","-0.007634","0.007634","0.007634","8.606104","0.581396","4.036279","-0.216528","-0.017944","-0.185425","0.072974","-0.007178","-0.275146"
"O","1617446264.6440692","7","50","43","36","42","26","0.844177","0.003723","-0.533569","-0.051758","-0.007634","0.007634","0.007634","8.632421","0.571826","4.02312","-0.191406","-0.029907","-0.196191","0.092114","-0.021533","-0.258398"
"O","1617446264.6338851","7","51","44","35","40","26","0.844055","0.003906","-0.533691","-0.05188","-0.015267","0.007634","0.007634","8.652759","0.581396","4.007568","-0.172266","-0.025122","-0.208154","0.111255","-0.019141","-0.245239"
"O","1617446264.6240036","7","52","41","34","42","26","0.843933","0.004211","-0.533875","-0.051941","-0.015267","0.015267","0.007634","8.692236","0.607715","3.999194","-0.133984","-0.004785","-0.212939","0.133984","-0.002393","-0.211743"
"O","1617446264.6139274","7","51","41","36","44","26","0.843811","0.004456","-0.534058","-0.051941","-0.015267","0.015267","0.007634","8.747266","0.637622","4.014746","-0.080151","0.019141","-0.193799","0.141162","0.016748","-0.153125"
"O","1617446264.6037955","7","51","43","34","44","26","0.84375","0.004761","-0.534241","-0.051941","-0.015267","0.007634","0.007634","8.773584","0.655566","4.032691","-0.056226","0.0323","-0.172266","0.133984","0.028711","-0.122021"
"O","1617446264.5939314","7","53","43","33","41","26","0.843689","0.004944","-0.534302","-0.052002","-0.007634","0","0.007634","8.772388","0.662744","4.04585","-0.057422","0.035889","-0.15791","0.120825","0.033496","-0.11604"
"O","1617446264.5839162","7","49","43","34","42","26","0.843689","0.005066","-0.534302","-0.052124","-0.007634","0","0.007634","8.764013","0.667529","4.067383","-0.065796","0.037085","-0.136377","0.098096","0.035889","-0.114844"
"O","1617446264.573867","7","54","43","34","44","28","0.843689","0.005188","-0.534241","-0.052246","-0.007634","-0.007634","0.007634","8.741284","0.681885","4.088916","-0.087329","0.047852","-0.11604","0.070581","0.050244","-0.124414"
"O","1617446264.5640852","7","52","42","34","44","26","0.84375","0.00531","-0.534119","-0.052368","-0.007634","-0.007634","0.007634","8.719751","0.717773","4.121216","-0.107666","0.081348","-0.086133","0.038281","0.086133","-0.128003"
"O","1617446264.554058","7","53","43","34","42","10","0.843811","0.005493","-0.533997","-0.052368","-0.015267","-0.015267","0.007634","8.694629","0.756055","4.145142","-0.130396","0.11604","-0.0646","0.011963","0.124414","-0.137573"
"O","1617446264.5439408","7","51","42","15","42","27","0.843933","0.005737","-0.533875","-0.052368","-0.015267","-0.015267","0.007634","8.676684","0.787158","4.149927","-0.147144","0.143555","-0.062207","0.004785","0.153125","-0.149536"
"O","1617446264.533886","7","54","42","35","44","28","0.843994","0.005859","-0.533752","-0.052368","-0.015267","-0.007634","0","8.680273","0.800317","4.155908","-0.142358","0.155518","-0.058618","0.004785","0.165088","-0.142358"
"O","1617446264.5239189","7","51","47","27","43","26","0.843994","0.005981","-0.533691","-0.052307","-0.007634","0","0","8.683863","0.773999","4.153516","-0.137573","0.126807","-0.062207","0.007178","0.135181","-0.141162"
"O","1617446264.513928","7","52","41","25","43","26","0.843994","0.006042","-0.533752","-0.052307","-0.007634","0","0","8.69104","0.744092","4.137964","-0.131592","0.096899","-0.076563","0.020337","0.105273","-0.144751"
"O","1617446264.5039434","7","51","42","35","41","26","0.843933","0.006042","-0.533875","-0.052246","-0.007634","0.007634","-0.007634","8.694629","0.710596","4.12959","-0.129199","0.063403","-0.082544","0.023926","0.070581","-0.147144"
"O","1617446264.4939053","7","54","43","37","34","39","0.843872","0.006042","-0.533997","-0.052124","-0.007634","0.007634","-0.007634","8.687451","0.6771","4.122412","-0.137573","0.031104","-0.087329","0.022729","0.039478","-0.159106"
"O","1617446264.483879","7","54","44","36","47","26","0.84375","0.005981","-0.534119","-0.052002","-0.007634","0.007634","-0.015267","8.66831","0.648389","4.105664","-0.15791","0.004785","-0.100488","0.023926","0.014355","-0.184229"
"O","1617446264.4741137","7","52","41","36","41","26","0.843689","0.005981","-0.534302","-0.051819","-0.007634","0.007634","-0.015267","8.650366","0.625659","4.092505","-0.178247","-0.015552","-0.111255","0.022729","-0.003589","-0.208154"
"O","1617446264.464136","7","53","42","34","42","27","0.843567","0.00592","-0.534424","-0.051636","-0.007634","0.007634","-0.015267","8.645581","0.611304","4.080542","-0.184229","-0.026318","-0.119629","0.027515","-0.014355","-0.218921"
"O","1617446264.4540172","7","51","43","36","44","26","0.843506","0.005859","-0.534607","-0.051514","-0.007634","0.007634","-0.015267","8.6396","0.592163","4.068579","-0.192603","-0.044263","-0.128003","0.029907","-0.031104","-0.230884"
"O","1617446264.444178","7","51","43","34","42","26","0.843384","0.005737","-0.53479","-0.051392","0","0.007634","-0.015267","8.636011","0.575415","4.035083","-0.197388","-0.057422","-0.15791","0.053833","-0.045459","-0.248828"
"O","1617446264.433928","7","52","43","34","42","26","0.843323","0.005615","-0.534912","-0.051331","0","0.007634","-0.007634","8.641993","0.56106","4.01355","-0.193799","-0.069385","-0.177051","0.071777","-0.058618","-0.25481"
"O","1617446264.4241805","7","53","40","34","43","26","0.843262","0.005554","-0.534973","-0.05127","0","0","-0.007634","8.638403","0.559863","4.002783","-0.197388","-0.069385","-0.186621","0.078955","-0.058618","-0.261987"
"O","1617446264.414184","7","49","42","36","41","26","0.843201","0.005554","-0.535095","-0.051208","-0.007634","0","-0.007634","8.632421","0.575415","3.992017","-0.204565","-0.052637","-0.194995","0.084937","-0.04187","-0.270361"
"O","1617446264.404177","7","52","43","36","116","26","0.843201","0.005554","-0.535095","-0.051147","-0.007634","0","-0.007634","8.62644","0.587378","3.996802","-0.210547","-0.040674","-0.189014","0.077759","-0.028711","-0.272754"
"O","1617446264.394188","7","51","42","35","46","30","0.843201","0.005554","-0.535156","-0.051086","-0.007634","0.007634","-0.007634","8.636011","0.594556","4.005176","-0.202173","-0.0323","-0.18064","0.07417","-0.021533","-0.260791"
"O","1617446264.3840666","7","51","43","35","40","26","0.84314","0.005554","-0.535278","-0.050964","-0.007634","0.007634","-0.007634","8.653955","0.604126","4.026709","-0.185425","-0.021533","-0.156714","0.061011","-0.010767","-0.234473"
"O","1617446264.374014","7","56","41","34","42","26","0.843079","0.005615","-0.535339","-0.050903","-0.015267","0","-0.007634","8.65874","0.619678","4.042261","-0.18064","-0.007178","-0.13877","0.047852","0.002393","-0.22251"
"O","1617446264.3640969","7","54","44","36","43","26","0.843079","0.005737","-0.535339","-0.050781","-0.015267","-0.007634","-0.007634","8.637207","0.635229","4.049438","-0.202173","0.007178","-0.131592","0.033496","0.019141","-0.238062"
"O","1617446264.3540456","7","53","42","36","40","28","0.84314","0.00592","-0.535278","-0.050598","-0.015267","-0.007634","-0.007634","8.619263","0.640015","4.056616","-0.220117","0.010767","-0.126807","0.021533","0.025122","-0.251221"
"O","1617446264.344021","7","53","43","37","43","26","0.843201","0.005981","-0.535217","-0.050476","-0.007634","-0.007634","-0.007634","8.602514","0.629248","4.05542","-0.236865","0","-0.129199","0.015552","0.015552","-0.267969"
"O","1617446264.33411","7","52","42","36","41","27","0.843262","0.006042","-0.535156","-0.050354","-0.007634","-0.007634","-0.007634","8.602514","0.588574","4.043457","-0.235669","-0.038281","-0.142358","0.025122","-0.022729","-0.275146"
"O","1617446264.3241732","7","52","43","35","43","26","0.843262","0.00592","-0.535095","-0.050232","0","-0.007634","-0.007634","8.615674","0.539526","4.031494","-0.22251","-0.084937","-0.155518","0.039478","-0.070581","-0.271558"
"O","1617446264.314072","7","49","43","36","42","26","0.843323","0.005859","-0.535034","-0.050232","0","-0.007634","-0.007634","8.606104","0.502441","4.037476","-0.230884","-0.120825","-0.150732","0.028711","-0.105273","-0.279932"
"O","1617446264.3041575","7","53","43","31","43","27","0.843384","0.005798","-0.534912","-0.050171","-0.007634","-0.007634","-0.007634","8.590551","0.494067","4.043457","-0.245239","-0.126807","-0.147144","0.019141","-0.110059","-0.291895"
"O","1617446264.2940445","7","51","43","35","42","27","0.843445","0.00592","-0.534851","-0.050171","-0.007634","-0.007634","-0.007634","8.58457","0.500049","4.066186","-0.251221","-0.123218","-0.12561","-0.002393","-0.104077","-0.287109"
"O","1617446264.2840133","7","51","41","37","47","26","0.843445","0.005981","-0.53479","-0.05011","-0.007634","-0.007634","-0.007634","8.572607","0.50603","4.074561","-0.261987","-0.117236","-0.118433","-0.011963","-0.096899","-0.294287"
"O","1617446264.2740772","7","49","43","38","40","26","0.843506","0.006042","-0.534729","-0.050049","-0.007634","-0.007634","0","8.558252","0.500049","4.057813","-0.276343","-0.123218","-0.136377","-0.002393","-0.102881","-0.314624"
"O","1617446264.263977","7","51","43","37","42","27","0.843567","0.006226","-0.534607","-0.050171","-0.007634","-0.007634","0","8.552271","0.534741","4.047046","-0.279932","-0.093311","-0.149536","0.008374","-0.072974","-0.321802"
"O","1617446264.254266","7","52","44","36","41","26","0.843628","0.00647","-0.534546","-0.050232","-0.015267","-0.007634","0.007634","8.560644","0.613696","4.039868","-0.271558","-0.019141","-0.15791","0.025122","0","-0.313428"
"O","1617446264.244077","7","53","43","36","44","26","0.843567","0.006775","-0.534546","-0.050354","-0.015267","0","0.007634","8.577393","0.68667","4.032691","-0.253613","0.046655","-0.165088","0.044263","0.062207","-0.295483"
"O","1617446264.2341416","7","52","44","37","42","26","0.843567","0.00708","-0.534607","-0.050476","-0.015267","0","0.015267","8.621655","0.746484","4.032691","-0.209351","0.100488","-0.163892","0.066992","0.112451","-0.251221"
"O","1617446264.2240877","7","51","44","34","43","26","0.843506","0.007263","-0.534668","-0.050598","-0.007634","0","0.007634","8.656347","0.787158","4.04585","-0.175854","0.136377","-0.149536","0.070581","0.144751","-0.212939"
"O","1617446264.2143557","7","53","41","34","42","26","0.843445","0.007385","-0.534729","-0.05072","-0.007634","0","0.007634","8.656347","0.80271","4.04585","-0.175854","0.14834","-0.14834","0.070581","0.156714","-0.211743"
"O","1617446264.203994","7","53","43","36","43","26","0.843445","0.007446","-0.534729","-0.050781","-0.007634","-0.007634","0.007634","8.655151","0.791943","4.042261","-0.177051","0.136377","-0.151929","0.071777","0.144751","-0.215332"
"O","1617446264.1941218","7","51","45","34","43","26","0.843506","0.007446","-0.534668","-0.050842","0","-0.007634","0","8.663526","0.77041","4.039868","-0.16748","0.113647","-0.155518","0.077759","0.122021","-0.209351"
"O","1617446264.1841908","7","50","41","35","43","26","0.843506","0.007446","-0.534607","-0.050903","0","-0.007634","0","8.665918","0.746484","4.047046","-0.165088","0.089722","-0.149536","0.071777","0.098096","-0.205762"
"O","1617446264.174029","7","53","42","34","47","26","0.843506","0.007446","-0.534607","-0.050964","-0.007634","-0.007634","0","8.665918","0.717773","4.04585","-0.165088","0.059814","-0.150732","0.070581","0.068188","-0.208154"
"O","1617446264.1641502","7","53","44","33","42","26","0.843567","0.007446","-0.534546","-0.050964","-0.007634","0","-0.007634","8.665918","0.690259","4.048242","-0.163892","0.0323","-0.149536","0.066992","0.040674","-0.209351"
"O","1617446264.154089","7","50","48","37","41","25","0.843567","0.007446","-0.534546","-0.050903","-0.007634","0","-0.007634","8.673096","0.6771","4.060205","-0.156714","0.020337","-0.137573","0.058618","0.028711","-0.198584"
"O","1617446264.1441958","7","52","41","32","39","26","0.843506","0.007507","-0.534607","-0.050781","-0.015267","0.007634","-0.007634","8.708984","0.665137","4.08772","-0.122021","0.008374","-0.107666","0.045459","0.014355","-0.154321"
"O","1617446264.1340473","7","52","44","37","40","26","0.843445","0.007568","-0.534729","-0.050598","-0.015267","0","-0.007634","8.728125","0.657959","4.111646","-0.104077","0.002393","-0.081348","0.028711","0.008374","-0.128003"
"O","1617446264.1243007","7","52","41","35","43","26","0.843445","0.007629","-0.53479","-0.050476","-0.007634","0","-0.007634","8.705396","0.656763","4.109253","-0.126807","0.001196","-0.08374","0.021533","0.00957","-0.149536"
"O","1617446264.114319","7","53","43","35","46","26","0.843445","0.007629","-0.53479","-0.050293","-0.007634","-0.007634","-0.007634","8.670703","0.651978","4.09729","-0.161499","-0.001196","-0.095703","0.017944","0.00957","-0.185425"
"O","1617446264.1039746","7","52","42","32","43","26","0.843506","0.00769","-0.534729","-0.050232","0","-0.007634","-0.007634","8.652759","0.651978","4.075757","-0.179443","-0.001196","-0.118433","0.029907","0.00957","-0.211743"
"O","1617446264.094252","7","52","41","34","42","26","0.843506","0.00769","-0.534668","-0.050293","0","-0.007634","0","8.645581","0.659155","4.053027","-0.185425","0.004785","-0.142358","0.050244","0.015552","-0.227295"
"O","1617446264.0842595","7","53","41","35","42","26","0.843567","0.007629","-0.534607","-0.050354","0","-0.007634","0","8.652759","0.675903","4.036279","-0.178247","0.021533","-0.160303","0.070581","0.031104","-0.227295"
"O","1617446264.0741105","7","52","43","35","43","26","0.843567","0.00769","-0.534607","-0.050415","0","0","0.007634","8.665918","0.705811","4.042261","-0.165088","0.050244","-0.154321","0.072974","0.058618","-0.210547"
"O","1617446264.0643349","7","52","41","35","48","28","0.843567","0.007751","-0.534607","-0.050537","-0.007634","0","0.007634","8.6719","0.744092","4.054224","-0.159106","0.086133","-0.142358","0.066992","0.094507","-0.197388"
"O","1617446264.05517","7","51","43","33","44","27","0.843567","0.007812","-0.534607","-0.050659","-0.007634","0","0.007634","8.667114","0.772803","4.082934","-0.163892","0.112451","-0.113647","0.04187","0.122021","-0.187817"
"O","1617446264.044199","7","52","42","35","41","26","0.843567","0.007812","-0.534607","-0.05072","0","-0.007634","0","8.652759","0.77998","4.10686","-0.178247","0.118433","-0.089722","0.014355","0.130396","-0.19021"
"O","1617446264.0341167","7","53","42","36","42","26","0.843567","0.007812","-0.534546","-0.050781","0","-0.007634","0","8.633618","0.758447","4.10686","-0.196191","0.096899","-0.090918","0.005981","0.110059","-0.208154"
"O","1617446264.02503","7","53","42","37","43","26","0.843628","0.007751","-0.534485","-0.050842","0","-0.015267","0","8.618067","0.71897","4.091309","-0.211743","0.057422","-0.107666","0.010767","0.071777","-0.23208"
"O","1617446264.0148036","7","50","44","38","44","26","0.843689","0.007629","-0.534363","-0.050781","0","-0.007634","-0.007634","8.622851","0.672314","4.068579","-0.205762","0.013159","-0.132788","0.033496","0.026318","-0.240454"
"O","1617446264.0048788","7","52","43","35","41","26","0.84375","0.007507","-0.534302","-0.05072","0","-0.007634","-0.007634","8.632421","0.634033","4.043457","-0.194995","-0.020337","-0.159106","0.058618","-0.008374","-0.245239"
"O","1617446263.995009","7","52","43","34","43","26","0.843811","0.007385","-0.534241","-0.050598","0","-0.007634","-0.015267","8.641993","0.590967","4.029101","-0.185425","-0.059814","-0.175854","0.075366","-0.049048","-0.246436"
"O","1617446263.9844563","7","50","44","37","47","27","0.843811","0.007324","-0.53418","-0.050537","0","0","-0.015267","8.655151","0.569434","4.020728","-0.171069","-0.080151","-0.184229","0.087329","-0.070581","-0.238062"
"O","1617446263.974891","7","53","42","35","42","26","0.843811","0.007263","-0.53418","-0.050476","0","0","-0.007634","8.659937","0.558667","4.033887","-0.16748","-0.089722","-0.171069","0.075366","-0.080151","-0.229687"
"O","1617446263.9650004","7","53","43","34","42","26","0.843811","0.007202","-0.534241","-0.050415","-0.007634","0","-0.007634","8.634814","0.575415","4.04585","-0.192603","-0.070581","-0.159106","0.056226","-0.058618","-0.246436"
"O","1617446263.9539914","7","54","46","35","45","26","0.843811","0.007263","-0.534241","-0.050354","-0.007634","0","-0.007634","8.601318","0.599341","4.057813","-0.226099","-0.047852","-0.147144","0.0323","-0.0323","-0.269165"
"O","1617446263.945021","7","52","41","35","44","26","0.843811","0.007324","-0.534241","-0.050232","-0.015267","-0.007634","-0.007634","8.580981","0.630444","4.066186","-0.246436","-0.015552","-0.137573","0.017944","0.001196","-0.281128"
"O","1617446263.9349155","7","49","44","36","46","26","0.843811","0.007385","-0.53418","-0.05011","-0.007634","-0.007634","-0.007634","8.570215","0.623267","4.066186","-0.256006","-0.022729","-0.13877","0.014355","-0.003589","-0.290698"
"O","1617446263.9249992","7","51","44","37","44","27","0.843872","0.007385","-0.534119","-0.050049","-0.007634","-0.007634","-0.007634","8.570215","0.58977","4.05542","-0.256006","-0.056226","-0.150732","0.022729","-0.038281","-0.297876"
"O","1617446263.9148693","7","52","44","36","41","25","0.843872","0.007324","-0.534119","-0.049988","0","0","-0.007634","8.58457","0.53833","4.041064","-0.24165","-0.105273","-0.165088","0.038281","-0.088525","-0.294287"
"O","1617446263.9050927","7","53","42","33","44","26","0.843872","0.007263","-0.534119","-0.049927","0","0","-0.007634","8.613281","0.485693","4.04585","-0.212939","-0.156714","-0.160303","0.04187","-0.142358","-0.270361"
"O","1617446263.8949494","7","49","42","31","41","27","0.843872","0.007202","-0.534119","-0.049927","-0.007634","0","-0.007634","8.63003","0.467749","4.051831","-0.196191","-0.173462","-0.154321","0.04187","-0.160303","-0.253613"
"O","1617446263.8850791","7","51","41","36","46","26","0.843872","0.007263","-0.53418","-0.049927","-0.015267","0","-0.007634","8.63003","0.495264","4.070971","-0.197388","-0.147144","-0.135181","0.026318","-0.132788","-0.245239"
"O","1617446263.8750496","7","54","43","36","46","26","0.843872","0.007446","-0.53418","-0.049805","-0.015267","-0.007634","-0.007634","8.620459","0.564648","4.096094","-0.206958","-0.078955","-0.108862","0.003589","-0.063403","-0.238062"
"O","1617446263.8648944","7","53","44","36","46","27","0.843872","0.00769","-0.534119","-0.049683","-0.015267","-0.007634","-0.007634","8.606104","0.638818","4.118823","-0.220117","-0.008374","-0.087329","-0.014355","0.008374","-0.235669"
"O","1617446263.8548868","7","52","41","36","44","28","0.843933","0.007874","-0.534058","-0.049622","-0.015267","-0.007634","0","8.591748","0.699829","4.12959","-0.234473","0.049048","-0.077759","-0.025122","0.066992","-0.240454"
"O","1617446263.8449771","7","53","43","38","46","27","0.843994","0.007996","-0.533997","-0.049683","-0.007634","-0.007634","0.007634","8.594141","0.735718","4.121216","-0.230884","0.082544","-0.088525","-0.011963","0.099292","-0.240454"
"O","1617446263.834055","7","52","43","34","44","27","0.843994","0.008057","-0.533936","-0.049805","0","-0.007634","0.007634","8.601318","0.752466","4.111646","-0.22251","0.096899","-0.098096","0.001196","0.112451","-0.235669"
"O","1617446263.825136","7","53","43","37","42","26","0.843994","0.008118","-0.533875","-0.050049","0","0","0.015267","8.621655","0.765625","4.122412","-0.200977","0.10647","-0.088525","0.002393","0.120825","-0.211743"
"O","1617446263.8149786","7","52","43","36","42","26","0.843994","0.00824","-0.533936","-0.050232","-0.007634","0","0.007634","8.6396","0.77998","4.121216","-0.184229","0.117236","-0.089722","0.010767","0.129199","-0.196191"
"O","1617446263.8049903","7","53","43","34","43","27","0.843872","0.008362","-0.534058","-0.050354","-0.007634","0.007634","0.007634","8.656347","0.787158","4.128394","-0.16748","0.120825","-0.078955","0.008374","0.131592","-0.175854"
"O","1617446263.7949092","7","49","43","36","42","26","0.84375","0.008423","-0.534302","-0.050354","-0.007634","0.015267","0","8.675488","0.77998","4.115234","-0.151929","0.112451","-0.087329","0.022729","0.122021","-0.166284"
"O","1617446263.7849474","7","51","43","34","45","26","0.843567","0.008484","-0.534546","-0.050354","-0.007634","0.007634","0","8.679077","0.756055","4.093701","-0.149536","0.087329","-0.102881","0.035889","0.095703","-0.172266"
"O","1617446263.7751389","7","52","42","37","45","26","0.843445","0.008484","-0.53479","-0.050293","-0.007634","0.007634","-0.007634","8.679077","0.707007","4.048242","-0.153125","0.039478","-0.143555","0.066992","0.047852","-0.196191"
"O","1617446263.764926","7","51","42","33","44","26","0.843323","0.008423","-0.534973","-0.050232","0","0.007634","-0.007634","8.669507","0.660352","3.999194","-0.163892","-0.004785","-0.189014","0.100488","0.002393","-0.228491"
"O","1617446263.7550642","7","52","43","33","43","26","0.843262","0.008362","-0.535095","-0.050232","0","0.007634","-0.007634","8.657544","0.631641","3.95852","-0.177051","-0.0323","-0.227295","0.128003","-0.023926","-0.258398"
"O","1617446263.745082","7","60","45","36","43","24","0.843201","0.008301","-0.535156","-0.050232","0","0.007634","-0.007634","8.64917","0.62207","3.940576","-0.186621","-0.04187","-0.244043","0.137573","-0.033496","-0.275146"
"O","1617446263.734928","7","52","43","33","43","27","0.843201","0.00824","-0.535217","-0.050232","0","0","-0.007634","8.644384","0.629248","3.938184","-0.192603","-0.033496","-0.245239","0.137573","-0.023926","-0.279932"
"O","1617446263.724928","7","53","44","32","42","29","0.84314","0.00824","-0.535217","-0.050232","-0.007634","0","0","8.633618","0.660352","3.944165","-0.202173","-0.002393","-0.239258","0.130396","0.005981","-0.283521"
"O","1617446263.7148485","7","49","39","34","46","26","0.84314","0.008362","-0.535278","-0.050232","-0.007634","0","0","8.621655","0.681885","3.960913","-0.215332","0.015552","-0.221313","0.110059","0.026318","-0.287109"
"O","1617446263.7051446","7","51","42","33","43","26","0.84314","0.008423","-0.535339","-0.050232","-0.015267","0","0","8.613281","0.674707","3.976465","-0.224902","0.008374","-0.204565","0.089722","0.020337","-0.289502"
"O","1617446263.6950562","7","49","41","35","40","26","0.843079","0.008606","-0.535339","-0.050232","-0.015267","0","0","8.603711","0.667529","3.993213","-0.233276","-0.001196","-0.187817","0.070581","0.013159","-0.289502"
"O","1617446263.685281","7","54","40","35","42","27","0.843079","0.008728","-0.535339","-0.050232","-0.007634","0","0","8.608496","0.666333","4.011157","-0.228491","-0.004785","-0.169873","0.056226","0.00957","-0.278735"
"O","1617446263.67503","7","53","45","34","47","27","0.84314","0.00885","-0.535278","-0.050171","-0.007634","0","0","8.632421","0.65437","4.033887","-0.204565","-0.017944","-0.14834","0.045459","-0.003589","-0.248828"
"O","1617446263.6649878","7","51","40","34","42","28","0.84314","0.008972","-0.535278","-0.050293","-0.007634","0","0","8.663526","0.645996","4.072168","-0.172266","-0.029907","-0.110059","0.023926","-0.016748","-0.203369"
"O","1617446263.655084","7","51","44","36","43","28","0.84314","0.009033","-0.535278","-0.050354","0","-0.007634","0","8.675488","0.655566","4.103271","-0.160303","-0.021533","-0.078955","0.001196","-0.008374","-0.179443"
"O","1617446263.644989","7","51","40","34","42","28","0.84314","0.009094","-0.535156","-0.050476","0","-0.007634","0","8.675488","0.671118","4.115234","-0.159106","-0.008374","-0.068188","-0.005981","0.003589","-0.172266"
"O","1617446263.634958","7","54","41","36","42","26","0.843201","0.009155","-0.535095","-0.050537","-0.007634","-0.007634","0","8.659937","0.697437","4.121216","-0.173462","0.015552","-0.0646","-0.013159","0.028711","-0.181836"
"O","1617446263.625135","7","51","43","36","44","25","0.843262","0.009216","-0.535034","-0.050598","-0.007634","-0.007634","0","8.651563","0.71897","4.109253","-0.181836","0.035889","-0.077759","-0.003589","0.049048","-0.193799"
"O","1617446263.6149848","7","49","42","36","47","26","0.843201","0.009277","-0.535095","-0.050659","-0.007634","0","0","8.644384","0.724951","4.08772","-0.189014","0.039478","-0.098096","0.010767","0.052637","-0.209351"
"O","1617446263.6050982","7","52","43","35","44","26","0.84314","0.009277","-0.535156","-0.05072","-0.007634","0","0","8.650366","0.715381","4.063794","-0.183032","0.029907","-0.119629","0.0323","0.04187","-0.212939"
"O","1617446263.5950892","7","51","42","32","45","26","0.843079","0.009399","-0.535278","-0.050781","-0.007634","0.007634","0","8.653955","0.708203","4.042261","-0.18064","0.019141","-0.13877","0.050244","0.029907","-0.220117"
"O","1617446263.5850463","7","52","41","33","42","28","0.843018","0.00946","-0.5354","-0.05072","-0.007634","0.007634","0","8.665918","0.707007","4.032691","-0.171069","0.017944","-0.145947","0.061011","0.027515","-0.214136"
"O","1617446263.5750766","7","53","43","34","43","26","0.842957","0.009521","-0.535522","-0.050659","-0.007634","0.007634","0","8.686255","0.692651","4.020728","-0.151929","0.003589","-0.155518","0.076563","0.011963","-0.202173"
"O","1617446263.5649772","7","52","43","37","43","26","0.842896","0.009644","-0.535583","-0.050659","-0.007634","0","0","8.701807","0.683081","4.015943","-0.136377","-0.007178","-0.159106","0.084937","0","-0.19021"
"O","1617446263.555088","7","50","44","36","40","26","0.842834","0.009644","-0.535645","-0.050598","-0.007634","0","-0.007634","8.708984","0.683081","4.01355","-0.129199","-0.007178","-0.160303","0.089722","0","-0.184229"
"O","1617446263.544994","7","51","44","36","44","28","0.842834","0.009705","-0.535706","-0.050598","-0.007634","0","-0.007634","8.712573","0.69624","4.018335","-0.126807","0.003589","-0.154321","0.086133","0.00957","-0.179443"
"O","1617446263.535041","7","51","40","35","43","26","0.842834","0.009705","-0.535767","-0.050537","-0.007634","0","-0.007634","8.711377","0.717773","4.036279","-0.129199","0.026318","-0.136377","0.070581","0.0323","-0.172266"
"O","1617446263.5250442","7","51","45","36","42","26","0.842773","0.009705","-0.535767","-0.050415","-0.007634","0","-0.007634","8.694629","0.734522","4.048242","-0.144751","0.044263","-0.123218","0.052637","0.052637","-0.179443"
"O","1617446263.51493","7","52","42","33","40","26","0.842773","0.009705","-0.535767","-0.050354","-0.007634","0","-0.007634","8.667114","0.736914","4.038672","-0.172266","0.046655","-0.132788","0.050244","0.057422","-0.208154"
"O","1617446263.505005","7","52","42","34","43","26","0.842773","0.009644","-0.535828","-0.050293","-0.007634","0","-0.007634","8.645581","0.726147","4.031494","-0.194995","0.038281","-0.13877","0.045459","0.050244","-0.23208"
"O","1617446263.4949615","7","52","41","34","42","26","0.842712","0.009583","-0.535889","-0.050232","0","0","-0.007634","8.633618","0.703418","4.015943","-0.208154","0.016748","-0.153125","0.05144","0.029907","-0.251221"
"O","1617446263.4848547","7","51","43","33","42","26","0.842651","0.00946","-0.536011","-0.05011","0","0","-0.007634","8.627637","0.6771","3.997998","-0.215332","-0.004785","-0.168677","0.061011","0.008374","-0.265576"
"O","1617446263.4748943","7","52","40","32","42","25","0.842651","0.009399","-0.536011","-0.05011","0","0","-0.007634","8.618067","0.638818","3.966895","-0.224902","-0.04187","-0.19978","0.082544","-0.027515","-0.290698"
"O","1617446263.465199","7","45","42","37","44","26","0.842651","0.009338","-0.536072","-0.05011","0","0.007634","-0.007634","8.622851","0.628052","3.964502","-0.221313","-0.052637","-0.200977","0.08374","-0.038281","-0.288306"
"O","1617446263.455213","7","52","42","35","43","26","0.84259","0.009338","-0.536133","-0.05011","-0.007634","0","-0.007634","8.632421","0.640015","3.984839","-0.211743","-0.040674","-0.179443","0.069385","-0.026318","-0.269165"
"O","1617446263.4451523","7","52","43","38","43","26","0.842529","0.009399","-0.536194","-0.05011","-0.007634","0","-0.007634","8.625244","0.66394","3.986035","-0.218921","-0.016748","-0.175854","0.065796","-0.002393","-0.272754"
"O","1617446263.435321","7","54","41","34","41","25","0.842468","0.009399","-0.536255","-0.05011","-0.007634","0.007634","0","8.6396","0.679492","3.996802","-0.205762","-0.002393","-0.163892","0.061011","0.010767","-0.25481"
"O","1617446263.4250395","7","53","44","34","42","26","0.842468","0.00946","-0.536377","-0.05011","-0.007634","0.007634","0","8.655151","0.701025","4.01355","-0.191406","0.017944","-0.145947","0.052637","0.029907","-0.233276"
"O","1617446263.415066","7","51","45","34","42","26","0.842346","0.00946","-0.536438","-0.05011","-0.007634","0.007634","0","8.657544","0.709399","4.027905","-0.189014","0.026318","-0.129199","0.039478","0.038281","-0.22251"
"O","1617446263.4052637","7","52","42","36","28","26","0.842346","0.00946","-0.53656","-0.05011","-0.007634","0","0","8.650366","0.697437","4.030298","-0.198584","0.013159","-0.124414","0.029907","0.026318","-0.230884"
"O","1617446263.394996","7","51","43","34","43","26","0.842285","0.009399","-0.536621","-0.05011","0","0","-0.007634","8.636011","0.665137","4.014746","-0.212939","-0.016748","-0.13877","0.034692","-0.001196","-0.251221"
"O","1617446263.385074","7","52","43","35","44","26","0.842285","0.009338","-0.536621","-0.05011","0","0","-0.007634","8.634814","0.634033","3.99082","-0.214136","-0.046655","-0.162695","0.053833","-0.0323","-0.265576"
"O","1617446263.3753195","7","49","40","33","45","26","0.842285","0.009216","-0.536621","-0.050049","0","0","-0.007634","8.646777","0.617285","3.97168","-0.202173","-0.061011","-0.181836","0.07417","-0.047852","-0.263184"
"O","1617446263.3651085","7","52","43","36","42","26","0.842285","0.009216","-0.536621","-0.050049","-0.007634","-0.007634","-0.007634","8.659937","0.614893","3.962109","-0.189014","-0.063403","-0.191406","0.088525","-0.05144","-0.256006"
"O","1617446263.354994","7","52","43","37","46","28","0.842346","0.009277","-0.53656","-0.050049","-0.015267","-0.007634","0","8.6719","0.638818","3.980054","-0.177051","-0.040674","-0.174658","0.080151","-0.029907","-0.235669"
"O","1617446263.3450792","7","50","42","35","42","26","0.842346","0.00946","-0.536499","-0.049988","-0.015267","-0.007634","0","8.683863","0.668726","4.008765","-0.163892","-0.011963","-0.147144","0.063403","-0.001196","-0.210547"
"O","1617446263.3351762","7","52","42","34","46","26","0.842346","0.009583","-0.536499","-0.049988","-0.007634","-0.007634","0","8.69104","0.692651","4.018335","-0.156714","0.008374","-0.137573","0.058618","0.017944","-0.198584"
"O","1617446263.3252275","7","51","44","34","36","26","0.842407","0.009705","-0.536438","-0.050049","-0.007634","-0.007634","0","8.688647","0.697437","4.017138","-0.15791","0.010767","-0.139966","0.061011","0.020337","-0.200977"
"O","1617446263.3152902","7","52","43","36","41","69","0.842468","0.009766","-0.536316","-0.05011","0","-0.007634","0","8.689844","0.690259","4.024316","-0.155518","0.001196","-0.135181","0.056226","0.010767","-0.197388"
"O","1617446263.3052657","7","51","42","35","44","26","0.842468","0.009766","-0.536316","-0.050232","0","0","0","8.711377","0.69624","4.051831","-0.133984","0.005981","-0.107666","0.040674","0.014355","-0.165088"
"O","1617446263.2952044","7","51","42","34","44","27","0.842468","0.009827","-0.536255","-0.050293","-0.007634","-0.007634","0","8.711377","0.716577","4.074561","-0.132788","0.025122","-0.086133","0.023926","0.033496","-0.154321"
"O","1617446263.2851195","7","51","42","45","45","26","0.842529","0.009949","-0.536194","-0.050415","-0.007634","-0.007634","0","8.692236","0.762036","4.088916","-0.151929","0.066992","-0.072974","0.007178","0.077759","-0.162695"
"O","1617446263.275278","7","54","45","37","43","26","0.842529","0.010071","-0.536133","-0.050415","-0.007634","-0.007634","0","8.669507","0.808691","4.111646","-0.173462","0.112451","-0.05144","-0.017944","0.12561","-0.169873"
"O","1617446263.2652285","7","46","42","36","43","27","0.84259","0.010132","-0.536133","-0.050476","-0.007634","-0.007634","0.007634","8.673096","0.836206","4.118823","-0.169873","0.137573","-0.045459","-0.019141","0.150732","-0.162695"
"O","1617446263.255257","7","52","43","34","42","26","0.842529","0.010193","-0.536133","-0.050537","-0.007634","0","0","8.675488","0.830225","4.115234","-0.16748","0.130396","-0.047852","-0.016748","0.143555","-0.161499"
"O","1617446263.2460318","7","52","43","36","46","25","0.842529","0.010132","-0.536194","-0.050537","0","0","0","8.673096","0.799121","4.081738","-0.171069","0.100488","-0.080151","0.007178","0.112451","-0.18064"
"O","1617446263.2349474","7","49","43","36","44","26","0.842468","0.01001","-0.536255","-0.050476","-0.007634","0","-0.007634","8.670703","0.745288","4.035083","-0.173462","0.049048","-0.12561","0.044263","0.059814","-0.205762"
"O","1617446262.676092","7","49","42","36","42","26","0.842041","0.010315","-0.537109","-0.048584","0","-0.007634","0","8.618067","0.672314","4.018335","-0.235669","-0.008374","-0.124414","0.013159","0.008374","-0.265576"
"O","1617446262.666036","7","51","43","34","42","26","0.842041","0.010315","-0.537109","-0.048584","-0.007634","0","0","8.619263","0.687866","3.983643","-0.234473","0.005981","-0.159106","0.045459","0.021533","-0.277539"
"O","1617446262.6559258","7","49","42","34","43","25","0.84198","0.010376","-0.537231","-0.048584","-0.007634","0.007634","0","8.64917","0.692651","3.941772","-0.205762","0.00957","-0.198584","0.094507","0.021533","-0.269165"
"O","1617446262.645924","7","51","42","35","44","27","0.841797","0.010437","-0.537476","-0.048584","-0.007634","0.015267","0","8.699414","0.698633","3.910669","-0.15791","0.014355","-0.223706","0.137573","0.020337","-0.235669"
"O","1617446262.6363115","7","50","42","34","42","27","0.841675","0.010498","-0.53772","-0.048584","-0.007634","0.022901","0","8.75205","0.714185","3.908276","-0.107666","0.028711","-0.22251","0.15791","0.029907","-0.189014"
"O","1617446262.6260405","7","52","55","33","42","26","0.841492","0.010559","-0.537964","-0.048523","-0.007634","0.007634","-0.007634","8.762817","0.722559","3.899902","-0.099292","0.035889","-0.224902","0.163892","0.037085","-0.181836"
"O","1617446262.615954","7","52","41","34","44","27","0.84137","0.010559","-0.538086","-0.048462","0","0.007634","-0.007634","8.758032","0.710596","3.884351","-0.105273","0.025122","-0.236865","0.172266","0.026318","-0.192603"
"O","1617446262.6062331","7","51","42","32","42","26","0.84137","0.010498","-0.538208","-0.048462","0","0.007634","0","8.772388","0.687866","3.889136","-0.092114","0.002393","-0.230884","0.171069","0.002393","-0.179443"
"O","1617446262.596314","7","53","41","32","44","29","0.841309","0.010376","-0.538269","-0.048523","0.007634","0","0","8.764013","0.667529","3.896313","-0.101685","-0.014355","-0.22251","0.15791","-0.011963","-0.185425"
"O","1617446262.5860727","7","51","43","36","42","26","0.84137","0.010254","-0.538208","-0.048645","0","-0.007634","0","8.736499","0.651978","3.887939","-0.129199","-0.029907","-0.23208","0.154321","-0.025122","-0.216528"
"O","1617446262.576258","7","54","44","34","44","26","0.841431","0.010193","-0.538086","-0.048767","0","-0.007634","0","8.716162","0.661548","3.889136","-0.147144","-0.020337","-0.233276","0.14834","-0.014355","-0.23208"
"O","1617446262.5660336","7","51","43","37","42","28","0.841431","0.010254","-0.538025","-0.048767","-0.007634","-0.007634","-0.007634","8.714966","0.687866","3.914258","-0.14834","0.003589","-0.209351","0.128003","0.00957","-0.221313"
"O","1617446262.5560553","7","53","43","35","43","26","0.841492","0.010315","-0.537964","-0.048645","-0.015267","-0.007634","-0.007634","8.72334","0.717773","3.92981","-0.13877","0.034692","-0.194995","0.120825","0.039478","-0.204565"
"O","1617446262.5460937","7","49","43","35","42","26","0.841553","0.010376","-0.537903","-0.048462","-0.015267","-0.007634","-0.007634","8.734106","0.739307","3.947754","-0.128003","0.056226","-0.178247","0.111255","0.061011","-0.186621"
"O","1617446262.5362957","7","51","43","33","42","26","0.841614","0.010437","-0.537781","-0.04834","-0.015267","-0.007634","-0.007634","8.738892","0.735718","3.960913","-0.122021","0.053833","-0.16748","0.104077","0.058618","-0.177051"
"O","1617446262.525951","7","53","42","37","42","26","0.841736","0.010437","-0.537659","-0.048157","-0.007634","-0.007634","-0.007634","8.74248","0.710596","3.972876","-0.117236","0.029907","-0.159106","0.096899","0.034692","-0.169873"
"O","1617446262.516863","7","52","41","34","43","26","0.841797","0.010437","-0.537537","-0.048096","0","-0.007634","-0.007634","8.736499","0.689062","3.997998","-0.122021","0.00957","-0.136377","0.072974","0.015552","-0.166284"
"O","1617446262.506951","7","51","45","37","42","26","0.841919","0.010315","-0.537354","-0.048035","0","-0.015267","-0.007634","8.70061","0.65437","4.032691","-0.156714","-0.021533","-0.105273","0.027515","-0.00957","-0.186621"
"O","1617446262.4969344","7","52","41","36","42","26","0.842041","0.010132","-0.53717","-0.047974","0","-0.015267","-0.015267","8.653955","0.626855","4.05542","-0.200977","-0.044263","-0.086133","-0.008374","-0.027515","-0.220117"
"O","1617446262.4862242","7","51","41","33","40","26","0.842163","0.010132","-0.536987","-0.047974","-0.007634","-0.015267","-0.015267","8.600122","0.645996","4.072168","-0.253613","-0.025122","-0.072974","-0.040674","-0.003589","-0.260791"
"O","1617446262.4762957","7","52","41","33","43","28","0.842224","0.010193","-0.536865","-0.047791","-0.015267","-0.015267","-0.007634","8.571411","0.701025","4.096094","-0.281128","0.028711","-0.05144","-0.068188","0.05144","-0.272754"
"O","1617446262.4662066","7","52","43","34","41","27","0.842285","0.010315","-0.536804","-0.047607","-0.022901","-0.007634","-0.007634","8.55586","0.73811","4.100879","-0.295483","0.065796","-0.047852","-0.075366","0.089722","-0.282324"
"O","1617446262.4568703","7","52","42","35","13","26","0.842285","0.010498","-0.536804","-0.047424","-0.022901","-0.007634","-0.007634","8.570215","0.748877","4.099683","-0.281128","0.076563","-0.049048","-0.066992","0.099292","-0.269165"
"O","1617446262.446977","7","49","42","34","42","24","0.842285","0.01062","-0.536804","-0.04718","-0.015267","0","-0.007634","8.589355","0.722559","4.099683","-0.261987","0.050244","-0.049048","-0.061011","0.071777","-0.253613"
"O","1617446262.4368927","7","50","42","33","42","27","0.842285","0.010559","-0.536865","-0.046936","-0.007634","-0.007634","-0.015267","8.6073","0.671118","4.075757","-0.245239","0.002393","-0.071777","-0.037085","0.021533","-0.251221"
"O","1617446262.4267986","7","52","43","34","45","26","0.842285","0.010376","-0.536865","-0.046814","0","-0.007634","-0.015267","8.606104","0.601733","4.048242","-0.246436","-0.061011","-0.099292","-0.016748","-0.040674","-0.267969"
"O","1617446262.4167726","7","49","43","33","43","26","0.842285","0.010193","-0.536865","-0.046692","0.007634","-0.007634","-0.015267","8.608496","0.552686","4.037476","-0.244043","-0.10647","-0.110059","-0.00957","-0.087329","-0.27395"
"O","1617446262.4067495","7","52","41","37","43","26","0.842346","0.010071","-0.536804","-0.046631","0","-0.007634","-0.015267","8.598926","0.543115","4.025513","-0.253613","-0.113647","-0.123218","-0.002393","-0.094507","-0.288306"
"O","1617446262.3962054","7","52","43","36","43","26","0.842407","0.010132","-0.536743","-0.04657","-0.007634","-0.007634","-0.007634","8.598926","0.579004","4.020728","-0.253613","-0.077759","-0.130396","0.005981","-0.058618","-0.289502"
"O","1617446262.386273","7","51","42","33","41","26","0.842407","0.010254","-0.536743","-0.046448","-0.015267","-0.007634","-0.007634","8.602514","0.638818","4.030298","-0.250024","-0.017944","-0.120825","0.002393","0","-0.277539"
"O","1617446262.3768158","7","54","42","34","43","26","0.842407","0.010376","-0.536743","-0.046265","-0.015267","-0.007634","-0.007634","8.604907","0.699829","4.037476","-0.247632","0.040674","-0.113647","0.001196","0.058618","-0.267969"
"O","1617446262.3661492","7","52","42","34","45","27","0.842407","0.010498","-0.536743","-0.046204","-0.007634","-0.007634","0","8.602514","0.727344","4.025513","-0.250024","0.066992","-0.124414","0.011963","0.084937","-0.27395"
"O","1617446262.356215","7","53","44","36","41","26","0.842407","0.010559","-0.536743","-0.046204","0","-0.007634","0.007634","8.600122","0.720166","4.00398","-0.252417","0.058618","-0.145947","0.029907","0.075366","-0.284717"
"O","1617446262.346163","7","49","43","34","40","26","0.842407","0.010559","-0.536743","-0.046387","0","-0.007634","0.007634","8.586963","0.709399","3.970483","-0.265576","0.046655","-0.18064","0.055029","0.063403","-0.312231"
"O","1617446262.3368127","7","53","43","37","43","26","0.842407","0.010498","-0.536682","-0.04657","0.007634","-0.007634","0.007634","8.580981","0.69624","3.933398","-0.270361","0.0323","-0.217725","0.084937","0.049048","-0.333765"
"O","1617446262.3262882","7","51","42","36","43","26","0.842407","0.010437","-0.536682","-0.046753","0","0.007634","0.007634","8.6073","0.669922","3.920239","-0.244043","0.004785","-0.230884","0.10647","0.019141","-0.317017"
"O","1617446262.3170135","7","50","42","33","42","23","0.842346","0.010437","-0.536804","-0.046936","0","0.007634","0","8.645581","0.655566","3.927417","-0.206958","-0.00957","-0.22251","0.113647","0.001196","-0.281128"
"O","1617446262.306864","7","50","41","35","42","26","0.842285","0.010315","-0.536865","-0.047058","0","0.007634","0","8.669507","0.629248","3.932202","-0.183032","-0.035889","-0.215332","0.114844","-0.026318","-0.258398"
"O","1617446262.2962985","7","51","41","31","42","25","0.842224","0.010254","-0.536987","-0.04718","0","0.007634","0","8.698217","0.601733","3.954932","-0.155518","-0.063403","-0.191406","0.102881","-0.055029","-0.224902"
"O","1617446262.2870078","7","51","44","34","43","26","0.842163","0.010193","-0.536987","-0.047302","0","0","0","8.719751","0.576611","3.977661","-0.133984","-0.088525","-0.16748","0.088525","-0.081348","-0.197388"
"O","1617446262.276893","7","49","43","34","44","26","0.842224","0.010193","-0.536926","-0.047424","0","-0.015267","0","8.708984","0.558667","3.999194","-0.144751","-0.107666","-0.147144","0.0646","-0.098096","-0.19978"
"O","1617446262.267098","7","51","43","36","44","27","0.842346","0.010254","-0.536743","-0.047607","0","-0.022901","0","8.682666","0.562256","4.012353","-0.168677","-0.107666","-0.13877","0.046655","-0.095703","-0.217725"
"O","1617446262.256894","7","53","43","36","43","26","0.842529","0.010376","-0.536438","-0.047729","-0.007634","-0.022901","0.007634","8.645581","0.586182","4.032691","-0.202173","-0.086133","-0.124414","0.021533","-0.070581","-0.240454"
"O","1617446262.24691","7","52","43","35","42","26","0.842712","0.010559","-0.536133","-0.047852","-0.007634","-0.022901","0.007634","8.61687","0.625659","4.059009","-0.228491","-0.05144","-0.104077","-0.004785","-0.033496","-0.253613"
"O","1617446262.2369275","7","52","41","40","42","26","0.842834","0.010742","-0.535889","-0.047913","-0.007634","-0.015267","0.007634","8.595337","0.662744","4.082934","-0.246436","-0.017944","-0.084937","-0.027515","0.001196","-0.259595"
"O","1617446262.2268808","7","52","41","34","41","27","0.842896","0.010864","-0.535767","-0.048035","0","-0.007634","0.007634","8.576197","0.679492","4.084131","-0.26438","-0.003589","-0.086133","-0.033496","0.017944","-0.275146"
"O","1617446262.2169063","7","52","43","33","44","22","0.842896","0.010864","-0.535767","-0.048218","0","0","0.007634","8.56543","0.669922","4.063794","-0.275146","-0.015552","-0.10647","-0.020337","0.005981","-0.294287"
"O","1617446262.2069514","7","53","42","35","42","26","0.842834","0.010925","-0.535889","-0.048401","0","0.007634","0.007634","8.557055","0.671118","4.012353","-0.284717","-0.016748","-0.156714","0.020337","0.003589","-0.324194"
"O","1617446262.1968868","7","51","42","34","41","26","0.842651","0.010986","-0.536133","-0.048584","-0.007634","0.015267","0","8.570215","0.690259","3.952539","-0.27395","-0.001196","-0.210547","0.07417","0.016748","-0.336157"
"O","1617446262.1869404","7","52","44","36","43","26","0.842468","0.011047","-0.536438","-0.048584","-0.007634","0.030534","0","8.603711","0.715381","3.886743","-0.242847","0.021533","-0.270361","0.143555","0.034692","-0.331372"
"O","1617446262.1768365","7","54","42","37","42","26","0.842102","0.011108","-0.536987","-0.048523","-0.015267","0.045802","-0.007634","8.686255","0.732129","3.847266","-0.165088","0.037085","-0.297876","0.202173","0.04187","-0.271558"
"O","1617446262.167101","7","52","45","36","42","27","0.841675","0.011292","-0.537659","-0.048462","-0.022901","0.061069","0","8.798706","0.768018","3.844873","-0.059814","0.070581","-0.285913","0.238062","0.065796","-0.168677"
"O","1617446262.1568055","7","52","43","34","41","27","0.841125","0.011475","-0.538513","-0.048401","-0.030534","0.068702","0","8.908765","0.832617","3.915454","0.040674","0.131592","-0.197388","0.204565","0.119629","-0.035889"
"O","1617446262.1468968","7","49","45","34","43","26","0.840576","0.011841","-0.539429","-0.048279","-0.030534","0.061069","0","8.963794","0.885254","3.988428","0.087329","0.179443","-0.105273","0.143555","0.166284","0.047852"
"O","1617446262.137012","7","52","43","36","40","26","0.840149","0.012146","-0.5401","-0.048096","-0.030534","0.038168","0","8.915942","0.910376","4.033887","0.033496","0.200977","-0.045459","0.068188","0.194995","0.025122"
"O","1617446262.1269758","7","53","42","37","43","27","0.839844","0.012329","-0.540527","-0.047852","-0.022901","0.022901","0","8.852539","0.899609","4.051831","-0.0323","0.189014","-0.017944","0.015552","0.19021","-0.022729"
"O","1617446262.1170142","7","51","41","38","57","26","0.839661","0.012451","-0.540833","-0.047668","-0.015267","0.015267","-0.007634","8.826221","0.861328","4.067383","-0.062207","0.150732","0.003589","-0.017944","0.155518","-0.043066"
"O","1617446262.1069949","7","52","42","36","44","26","0.839539","0.012512","-0.541077","-0.047485","-0.015267","0.015267","-0.007634","8.819043","0.829028","4.079346","-0.071777","0.118433","0.020337","-0.039478","0.124414","-0.047852"
"O","1617446262.096895","7","27","41","37","42","26","0.839355","0.012512","-0.541321","-0.047302","-0.015267","0.007634","-0.007634","8.801099","0.805103","4.076953","-0.092114","0.096899","0.023926","-0.052637","0.105273","-0.065796"
"O","1617446262.0870938","7","52","43","35","43","26","0.839294","0.012451","-0.541504","-0.047119","-0.007634","0.007634","-0.015267","8.772388","0.775195","4.051831","-0.123218","0.069385","0.001196","-0.046655","0.080151","-0.105273"
"O","1617446262.0769508","7","52","41","34","40","26","0.839172","0.01239","-0.541687","-0.046875","-0.007634","0","-0.015267","8.746069","0.741699","4.015943","-0.151929","0.039478","-0.028711","-0.0323","0.05144","-0.145947"
"O","1617446262.0670595","7","53","45","36","42","26","0.839111","0.012207","-0.541748","-0.046692","0","0","-0.015267","8.706592","0.687866","3.963306","-0.191406","-0.008374","-0.080151","-0.004785","0.005981","-0.206958"
"O","1617446262.057077","7","49","65","36","44","27","0.839111","0.011963","-0.541809","-0.046509","0.007634","0","-0.015267","8.670703","0.617285","3.910669","-0.228491","-0.072974","-0.131592","0.021533","-0.055029","-0.266772"
"O","1617446262.0470788","7","53","43","36","44","26","0.839111","0.011658","-0.541809","-0.046387","0.015267","0","-0.022901","8.670703","0.551489","3.866406","-0.228491","-0.132788","-0.175854","0.057422","-0.11604","-0.288306"
"O","1617446262.0371196","7","49","42","34","52","26","0.83905","0.011292","-0.541931","-0.046387","0.015267","0.007634","-0.022901","8.692236","0.501245","3.852051","-0.209351","-0.177051","-0.187817","0.072974","-0.162695","-0.278735"
"O","1617446262.0269198","7","53","41","33","42","26","0.83905","0.010986","-0.541992","-0.046326","0.007634","0.007634","-0.022901","8.714966","0.494067","3.861621","-0.187817","-0.178247","-0.178247","0.072974","-0.165088","-0.256006"
"O","1617446262.017004","7","52","43","35","42","26","0.838989","0.010742","-0.542114","-0.046265","0","0.007634","-0.015267","8.720947","0.517993","3.878369","-0.183032","-0.149536","-0.159106","0.059814","-0.137573","-0.24165"
"O","1617446262.007157","7","53","43","36","45","28","0.838928","0.010681","-0.542175","-0.046204","-0.007634","0","-0.015267","8.708984","0.575415","3.892725","-0.196191","-0.090918","-0.143555","0.044263","-0.076563","-0.242847"
"O","1617446261.9970987","7","51","40","35","42","26","0.838928","0.010742","-0.542175","-0.046143","-0.015267","-0.007634","-0.007634","8.679077","0.636426","3.901099","-0.226099","-0.029907","-0.133984","0.027515","-0.013159","-0.261987"
"O","1617446261.986944","7","52","40","34","46","21","0.838928","0.010864","-0.542175","-0.046021","-0.007634","-0.007634","-0.007634","8.6396","0.684277","3.866406","-0.265576","0.015552","-0.168677","0.045459","0.033496","-0.308643"
"O","1617446261.977119","7","51","41","32","41","24","0.838989","0.010864","-0.542114","-0.045898","0","-0.015267","0","8.609693","0.698633","3.803003","-0.294287","0.031104","-0.234473","0.094507","0.049048","-0.361279"
"O","1617446261.967086","7","52","43","33","41","27","0.83905","0.010864","-0.541992","-0.045959","0","-0.007634","0.007634","8.614477","0.683081","3.725244","-0.288306","0.015552","-0.314624","0.168677","0.031104","-0.38999"
"O","1617446261.9570053","7","50","39","33","42","26","0.83905","0.010864","-0.541992","-0.046143","0","0.007634","0.007634","8.65874","0.698633","3.683374","-0.244043","0.028711","-0.356494","0.226099","0.038281","-0.366064"
