"Alphabet","timestamp","user_id","flex_1","flex_2","flex_3","flex_4","flex_5","Qw","Qx","Qy","Qz","GYRx","GYRy","GYRz","ACCx","ACCy","ACCz","ACCx_body","ACCy_body","ACCz_body","ACCx_world","ACCy_world","ACCz_world"
"P","1617446330.0673664","7","-10","0","-1","46","31","0.979614","0.172668","-0.081848","-0.061157","-0.015267","-0.022901","0","1.409229","3.584082","9.207837","0.044263","0.169873","0.124414","0.035889","0.110059","0.18064"
"P","1617446330.0574718","7","-10","0","-1","52","29","0.979614","0.172913","-0.081482","-0.061096","-0.022901","-0.022901","0","1.37334","3.636719","9.236547","0.015552","0.218921","0.153125","0.007178","0.150732","0.220117"
"P","1617446330.0474734","7","-8","-2","-1","44","30","0.979614","0.173096","-0.081177","-0.061096","-0.015267","-0.022901","0","1.348218","3.664233","9.262866","-0.002393","0.242847","0.179443","-0.011963","0.16748","0.250024"
"P","1617446330.03725","7","-10","0","-1","46","32","0.979614","0.173279","-0.080872","-0.061096","-0.015267","-0.015267","0","1.354199","3.679785","9.273633","0.008374","0.25481","0.19021","-0.002393","0.173462","0.265576"
"P","1617446330.0274577","7","-8","-1","-1","47","29","0.979614","0.17334","-0.080688","-0.061157","-0.007634","-0.015267","0","1.367358","3.663037","9.301147","0.025122","0.238062","0.217725","0.007178","0.145947","0.288306"
"P","1617446330.017517","7","-8","-1","-1","45","31","0.979614","0.17334","-0.080566","-0.061218","-0.007634","-0.015267","0","1.393677","3.654663","9.325073","0.053833","0.229687","0.24165","0.029907","0.12561","0.311035"
"P","1617446330.0073292","7","-9","0","-1","48","29","0.979614","0.173462","-0.080383","-0.061279","-0.015267","-0.015267","0","1.41521","3.661841","9.360962","0.080151","0.234473","0.277539","0.050244","0.114844","0.349316"
"P","1617446329.997487","7","-9","1","-1","44","30","0.979614","0.173584","-0.0802","-0.061279","-0.015267","-0.015267","0","1.423584","3.68457","9.400439","0.092114","0.25481","0.317017","0.056226","0.118433","0.394775"
"P","1617446329.9872944","7","-10","0","-1","48","29","0.979614","0.173706","-0.080017","-0.061218","-0.015267","-0.015267","0","1.419995","3.714478","9.447095","0.090918","0.282324","0.363672","0.050244","0.129199","0.447412"
"P","1617446329.977368","7","-10","0","-1","48","31","0.979614","0.173889","-0.079773","-0.061218","-0.015267","-0.015267","0","1.400854","3.743188","9.481787","0.077759","0.308643","0.398364","0.033496","0.143555","0.48689"
"P","1617446329.967675","7","-9","-1","-1","46","31","0.979614","0.17395","-0.079651","-0.061157","-0.007634","-0.007634","0","1.39248","3.769507","9.514087","0.070581","0.333765","0.430664","0.022729","0.15791","0.525171"
"P","1617446329.957252","7","-9","-1","-1","46","31","0.979614","0.17395","-0.079529","-0.061157","0","-0.007634","-0.007634","1.391284","3.776685","9.551172","0.071777","0.340942","0.467749","0.017944","0.151929","0.562256"
"P","1617446329.9472666","7","-10","1","-1","46","30","0.979614","0.173828","-0.079407","-0.061096","0.007634","-0.007634","-0.007634","1.364966","3.75874","9.569117","0.047852","0.325391","0.485693","-0.008374","0.135181","0.569434"
"P","1617446329.937432","7","-10","-3","-2","44","29","0.979675","0.173645","-0.079346","-0.061035","0","-0.007634","-0.007634","1.344629","3.747974","9.593042","0.028711","0.318213","0.507227","-0.031104","0.124414","0.584985"
"P","1617446329.927287","7","-10","1","-1","48","31","0.979736","0.173462","-0.079224","-0.061035","0","-0.015267","0","1.333862","3.741992","9.640894","0.019141","0.31582","0.553882","-0.049048","0.107666","0.625659"
"P","1617446329.9174793","7","-9","0","-1","43","7","0.979736","0.173279","-0.079041","-0.060974","0.007634","-0.015267","-0.007634","1.283618","3.706104","9.662427","-0.026318","0.283521","0.574219","-0.100488","0.077759","0.626855"
"P","1617446329.9081762","7","-9","-1","-1","47","28","0.979797","0.173096","-0.078857","-0.060913","0.007634","-0.015267","-0.007634","1.259692","3.664233","9.673193","-0.047852","0.245239","0.582593","-0.12561","0.043066","0.618481"
"P","1617446329.897631","7","-10","-3","-2","44","28","0.979858","0.172852","-0.078796","-0.060791","0.007634","-0.007634","-0.015267","1.277637","3.613989","9.676783","-0.028711","0.19978","0.584985","-0.111255","-0.001196","0.607715"
"P","1617446329.8873737","7","-10","0","-1","46","30","0.979919","0.172607","-0.078918","-0.060669","0.007634","0.007634","-0.015267","1.303955","3.55896","9.666016","-0.005981","0.149536","0.571826","-0.092114","-0.046655","0.581396"
"P","1617446329.877471","7","-10","-4","0","49","29","0.97998","0.172302","-0.079224","-0.060486","0.007634","0.015267","-0.022901","1.349414","3.509912","9.640894","0.031104","0.10647","0.545508","-0.055029","-0.08374","0.546704"
"P","1617446329.867595","7","-10","-2","-1","46","28","0.97998","0.172119","-0.079651","-0.060303","0.007634","0.015267","-0.022901","1.402051","3.463257","9.601416","0.075366","0.062207","0.50603","-0.00957","-0.118433","0.501245"
"P","1617446329.8573332","7","-8","-1","-1","48","28","0.97998","0.171936","-0.080017","-0.06012","0.007634","0.015267","-0.015267","1.417603","3.424976","9.518872","0.082544","0.027515","0.423486","0.007178","-0.124414","0.41272"
"P","1617446329.8476014","7","-10","-3","-1","47","29","0.97998","0.171875","-0.080444","-0.059937","0","0.022901","-0.015267","1.446314","3.427368","9.406421","0.102881","0.031104","0.312231","0.047852","-0.087329","0.313428"
"P","1617446329.8373988","7","-10","-1","-1","46","30","0.979919","0.171997","-0.080933","-0.059814","-0.015267","0.022901","-0.015267","1.481006","3.459668","9.305933","0.128003","0.061011","0.214136","0.092114","-0.031104","0.236865"
"P","1617446329.8273308","7","-33","-3","-2","75","26","0.979858","0.172241","-0.081421","-0.059753","-0.022901","0.030534","-0.015267","1.513306","3.51709","9.218603","0.150732","0.113647","0.129199","0.133984","0.040674","0.179443"
"P","1617446329.8180523","7","-10","0","-1","47","32","0.979736","0.172485","-0.082031","-0.059692","-0.022901","0.030534","-0.007634","1.52168","3.563745","9.150415","0.147144","0.155518","0.065796","0.145947","0.101685","0.135181"
"P","1617446329.80749","7","-10","-1","-1","48","31","0.979675","0.172607","-0.08252","-0.059692","-0.007634","0.030534","-0.007634","1.526465","3.560156","9.091797","0.143555","0.14834","0.00957","0.151929","0.113647","0.080151"
"P","1617446329.7976694","7","-10","0","-1","46","28","0.979614","0.172607","-0.083008","-0.059814","0","0.022901","0","1.512109","3.525464","9.043945","0.119629","0.113647","-0.035889","0.132788","0.099292","0.022729"
"P","1617446329.7873762","7","-10","-2","-1","47","29","0.979614","0.172485","-0.083313","-0.059998","0.007634","0.022901","0.007634","1.509717","3.495557","9.034375","0.112451","0.084937","-0.045459","0.12561","0.076563","0.002393"
"P","1617446329.7773683","7","-8","-1","-1","47","27","0.979614","0.17218","-0.083618","-0.060242","0.015267","0.015267","0.007634","1.500147","3.45249","9.042749","0.096899","0.046655","-0.037085","0.105273","0.040674","-0.003589"
"P","1617446329.7675428","7","-10","1","-1","44","29","0.979675","0.171814","-0.083801","-0.060425","0.022901","0.007634","0.007634","1.488184","3.395068","9.06189","0.082544","-0.002393","-0.020337","0.08374","-0.007178","-0.007178"
"P","1617446329.757378","7","-9","0","-2","44","28","0.979736","0.171326","-0.083923","-0.060669","0.022901","0","0.007634","1.478613","3.353198","9.100171","0.070581","-0.035889","0.013159","0.062207","-0.047852","0.00957"
"P","1617446329.747544","7","-10","1","1","44","28","0.979797","0.170898","-0.083862","-0.060913","0.015267","0","0.007634","1.451099","3.316113","9.108545","0.044263","-0.065796","0.019141","0.033496","-0.07417","0.001196"
"P","1617446329.7382202","7","-9","-3","-1","44","35","0.979797","0.170715","-0.083862","-0.061035","0","0","0","1.452295","3.340039","9.124097","0.045459","-0.038281","0.033496","0.034692","-0.052637","0.023926"
"P","1617446329.72739","7","-10","-5","-2","45","29","0.979797","0.170715","-0.083923","-0.061157","-0.007634","0.007634","0","1.454687","3.41062","9.138453","0.046655","0.031104","0.047852","0.039478","0.005981","0.061011"
"P","1617446329.7181427","7","-9","1","-1","46","27","0.979736","0.170837","-0.084045","-0.061157","-0.015267","0.015267","-0.007634","1.465454","3.458472","9.146826","0.056226","0.076563","0.057422","0.050244","0.044263","0.087329"
"P","1617446329.707521","7","-10","-1","-3","44","30","0.979736","0.171021","-0.084412","-0.061096","-0.015267","0.015267","-0.015267","1.488184","3.507519","9.158789","0.071777","0.122021","0.071777","0.066992","0.078955","0.118433"
"P","1617446329.698212","7","-10","0","-16","47","28","0.979675","0.171082","-0.084778","-0.061035","-0.007634","0.015267","-0.007634","1.485791","3.513501","9.149219","0.062207","0.126807","0.063403","0.059814","0.088525","0.111255"
"P","1617446329.6881292","7","-10","-1","-1","45","29","0.979614","0.171143","-0.085144","-0.060974","-0.007634","0.015267","-0.007634","1.496558","3.503931","9.142041","0.065796","0.11604","0.058618","0.063403","0.078955","0.102881"
"P","1617446329.6782415","7","-10","1","-2","48","29","0.979614","0.171143","-0.085449","-0.060974","-0.007634","0.015267","-0.007634","1.503735","3.512305","9.139648","0.066992","0.123218","0.056226","0.065796","0.086133","0.104077"
"P","1617446329.6674154","7","-9","-2","-1","47","27","0.979553","0.171265","-0.085693","-0.061035","-0.015267","0.007634","0","1.503735","3.525464","9.139648","0.062207","0.133984","0.058618","0.061011","0.095703","0.108862"
"P","1617446329.657432","7","-10","-1","-3","47","27","0.979492","0.171387","-0.085876","-0.061096","-0.015267","0.007634","0","1.542017","3.548193","9.16477","0.098096","0.154321","0.086133","0.093311","0.100488","0.147144"
"P","1617446329.647479","7","-9","-3","-1","44","28","0.979492","0.171387","-0.08606","-0.061218","0","0.007634","0","1.569531","3.523071","9.182714","0.122021","0.129199","0.104077","0.110059","0.068188","0.159106"
"P","1617446329.638172","7","-9","0","-1","44","29","0.979492","0.171265","-0.086243","-0.061279","0","0.015267","0","1.583887","3.481201","9.180323","0.132788","0.088525","0.101685","0.118433","0.028711","0.143555"
"P","1617446329.628191","7","-10","-1","-1","47","31","0.979492","0.171143","-0.086426","-0.061401","0.007634","0.015267","0","1.60542","3.463257","9.182714","0.151929","0.072974","0.102881","0.135181","0.011963","0.142358"
"P","1617446329.6181552","7","-9","-1","-1","46","30","0.979492","0.171021","-0.08667","-0.061462","0","0.015267","-0.007634","1.60542","3.485986","9.201856","0.147144","0.098096","0.122021","0.129199","0.029907","0.168677"
"P","1617446329.6080818","7","-9","1","-1","48","30","0.979492","0.171082","-0.086792","-0.061523","-0.007634","0.007634","-0.007634","1.580298","3.545801","9.235352","0.119629","0.155518","0.156714","0.100488","0.075366","0.216528"
"P","1617446329.5982049","7","-10","-4","-1","42","29","0.979431","0.171204","-0.086792","-0.061462","-0.015267","-0.007634","-0.007634","1.513306","3.593652","9.243726","0.052637","0.202173","0.166284","0.037085","0.126807","0.230884"
"P","1617446329.5884292","7","-10","0","-1","46","29","0.979431","0.171387","-0.08667","-0.061401","-0.015267","-0.015267","-0.007634","1.454687","3.628345","9.236547","-0.002393","0.233276","0.159106","-0.010767","0.166284","0.227295"
"P","1617446329.5782444","7","-9","-1","-1","45","31","0.979431","0.171509","-0.086548","-0.06134","-0.015267","-0.007634","0","1.452295","3.645093","9.235352","-0.002393","0.247632","0.159106","-0.00957","0.179443","0.23208"
"P","1617446329.5682554","7","-9","-1","-2","46","28","0.979431","0.171631","-0.086487","-0.061401","-0.015267","-0.007634","0","1.476221","3.645093","9.24851","0.021533","0.245239","0.172266","0.00957","0.168677","0.247632"
"P","1617446329.558272","7","-10","0","-1","46","29","0.979431","0.171692","-0.086365","-0.061401","-0.007634","-0.007634","0","1.476221","3.624756","9.250903","0.023926","0.223706","0.174658","0.00957","0.14834","0.242847"
"P","1617446329.5482483","7","-10","0","-1","51","31","0.97937","0.171692","-0.086426","-0.061462","-0.007634","0","0","1.49895","3.599634","9.256885","0.046655","0.19978","0.181836","0.028711","0.119629","0.244043"
"P","1617446329.53819","7","-10","-1","-1","47","27","0.97937","0.171692","-0.086548","-0.061523","-0.007634","0.007634","0","1.544409","3.56853","9.27124","0.089722","0.16748","0.196191","0.0646","0.078955","0.252417"
"P","1617446329.5281906","7","-10","1","-2","44","31","0.97937","0.17157","-0.086731","-0.061523","0","0.007634","-0.007634","1.576709","3.519482","9.282007","0.118433","0.120825","0.206958","0.086133","0.027515","0.250024"
"P","1617446329.5183747","7","-8","0","-1","44","28","0.979431","0.171387","-0.086853","-0.061523","0.007634","0.007634","-0.007634","1.575513","3.47522","9.273633","0.114844","0.080151","0.196191","0.081348","-0.005981","0.226099"
"P","1617446329.50829","7","-10","-1","-1","44","28","0.979431","0.171204","-0.086914","-0.061462","0.007634","0","-0.007634","1.546802","3.459668","9.27124","0.08374","0.068188","0.193799","0.050244","-0.010767","0.215332"
"P","1617446329.4982307","7","-9","-1","-1","46","30","0.979431","0.171143","-0.086914","-0.061401","0","-0.007634","-0.007634","1.515698","3.46206","9.286792","0.052637","0.071777","0.209351","0.016748","-0.008374","0.226099"
"P","1617446329.4882176","7","-10","0","-1","43","29","0.979492","0.171082","-0.086853","-0.061279","-0.007634","-0.007634","-0.007634","1.488184","3.470435","9.27124","0.025122","0.081348","0.192603","-0.004785","0.00957","0.209351"
"P","1617446329.4780936","7","-10","0","0","44","28","0.979492","0.171143","-0.086792","-0.061279","-0.007634","-0.007634","0","1.49895","3.487183","9.255689","0.037085","0.096899","0.177051","0.010767","0.026318","0.202173"
"P","1617446329.4682662","7","-9","-1","-1","50","27","0.979431","0.171265","-0.086792","-0.061279","-0.007634","0","-0.007634","1.52168","3.503931","9.253296","0.061011","0.111255","0.175854","0.035889","0.037085","0.209351"
"P","1617446329.4582772","7","-10","-3","-2","48","30","0.979431","0.171326","-0.086853","-0.061218","-0.007634","0.007634","-0.007634","1.533643","3.519482","9.243726","0.071777","0.12561","0.16748","0.049048","0.05144","0.208154"
"P","1617446329.448166","7","-10","-1","-1","42","27","0.979431","0.171387","-0.086975","-0.061279","-0.007634","0.007634","0","1.53125","3.530249","9.232959","0.066992","0.135181","0.156714","0.046655","0.0646","0.200977"
"P","1617446329.438413","7","-10","0","-1","48","31","0.97937","0.171448","-0.087097","-0.06134","0","0.007634","0","1.530054","3.52666","9.224585","0.063403","0.130396","0.149536","0.044263","0.063403","0.192603"
"P","1617446329.4281206","7","-10","0","-1","9","26","0.97937","0.171326","-0.087341","-0.061401","0","0.015267","0","1.533643","3.518286","9.217407","0.062207","0.124414","0.142358","0.044263","0.059814","0.184229"
"P","1617446329.4184346","7","-10","0","-1","46","26","0.97937","0.171265","-0.087585","-0.061523","0","0.015267","0","1.546802","3.515893","9.213819","0.071777","0.122021","0.13877","0.053833","0.057422","0.18064"
"P","1617446329.4083724","7","-10","-1","-1","47","29","0.97937","0.171204","-0.087891","-0.061584","-0.007634","0.015267","-0.007634","1.555176","3.51709","9.218603","0.07417","0.124414","0.143555","0.055029","0.057422","0.186621"
"P","1617446329.3984203","7","-10","-1","-4","46","27","0.979309","0.171265","-0.088135","-0.061584","-0.007634","0","-0.007634","1.559961","3.532642","9.212622","0.07417","0.13877","0.139966","0.057422","0.071777","0.187817"
"P","1617446329.388254","7","-10","-1","-2","46","32","0.979309","0.171387","-0.088135","-0.061523","-0.015267","-0.007634","-0.007634","1.522876","3.554175","9.191089","0.037085","0.15791","0.118433","0.027515","0.102881","0.169873"
"P","1617446329.3782723","7","-10","-1","-1","48","30","0.979248","0.17157","-0.088013","-0.061462","-0.022901","-0.015267","-0.007634","1.497754","3.594849","9.161181","0.014355","0.194995","0.090918","0.013159","0.149536","0.153125"
"P","1617446329.3684173","7","-10","-1","-2","46","29","0.979248","0.171753","-0.087891","-0.06134","-0.015267","-0.007634","-0.007634","1.502539","3.597241","9.138453","0.021533","0.194995","0.068188","0.025122","0.155518","0.133984"
"P","1617446329.3583868","7","-9","-2","-2","44","28","0.979248","0.171814","-0.088013","-0.061218","-0.007634","0.007634","-0.007634","1.557568","3.570923","9.131274","0.07417","0.16748","0.062207","0.075366","0.124414","0.126807"
"P","1617446329.348348","7","-10","-1","-1","46","-6","0.979248","0.171753","-0.088257","-0.061157","0","0.015267","-0.007634","1.631738","3.541016","9.158789","0.143555","0.137573","0.089722","0.133984","0.076563","0.151929"
"P","1617446329.338242","7","-10","0","-1","43","32","0.979248","0.171631","-0.088501","-0.061096","0","0.007634","-0.007634","1.677197","3.520679","9.20664","0.183032","0.119629","0.137573","0.162695","0.038281","0.196191"
"P","1617446329.3281488","7","-9","-1","0","45","30","0.979248","0.171509","-0.088623","-0.061157","0","0","0","1.692749","3.514697","9.255689","0.196191","0.11604","0.186621","0.165088","0.017944","0.242847"
"P","1617446329.318225","7","-10","1","-1","50","29","0.979248","0.171448","-0.088501","-0.061218","0","-0.022901","0","1.67959","3.529053","9.298755","0.186621","0.131592","0.228491","0.149536","0.020337","0.284717"
"P","1617446329.308383","7","-10","-6","-7","46","27","0.979309","0.171387","-0.087891","-0.06134","0","-0.045802","0.007634","1.592261","3.544605","9.29397","0.111255","0.14834","0.221313","0.078955","0.049048","0.272754"
"P","1617446329.2984169","7","-9","-1","-1","46","28","0.979431","0.171326","-0.086975","-0.06134","0","-0.068702","0.007634","1.477417","3.562549","9.279614","0.013159","0.168677","0.203369","-0.010767","0.088525","0.247632"
"P","1617446329.2882144","7","-10","4","-1","45","23","0.979492","0.171326","-0.085938","-0.061401","0","-0.061069","0.007634","1.409229","3.564941","9.264063","-0.033496","0.172266","0.184229","-0.05144","0.105273","0.224902"
"P","1617446329.278291","7","-10","-1","-2","44","41","0.979614","0.171204","-0.085022","-0.061462","0.007634","-0.045802","0.007634","1.396069","3.56853","9.282007","-0.029907","0.178247","0.197388","-0.049048","0.10647","0.239258"
"P","1617446329.268249","7","-10","-2","-1","44","31","0.979675","0.170959","-0.084473","-0.061462","0.015267","-0.022901","0","1.396069","3.555371","9.299952","-0.019141","0.169873","0.212939","-0.04187","0.092114","0.252417"
"P","1617446329.2584138","7","-9","-1","-1","46","29","0.979736","0.170654","-0.08429","-0.061523","0.015267","-0.007634","0.007634","1.452295","3.531445","9.334643","0.039478","0.151929","0.245239","0.005981","0.056226","0.284717"
"P","1617446329.248492","7","-8","-1","-1","50","29","0.979797","0.170288","-0.08429","-0.061707","0.015267","0.007634","0.007634","1.516895","3.507519","9.366943","0.104077","0.135181","0.275146","0.062207","0.021533","0.31582"
"P","1617446329.2383006","7","-10","0","-1","48","29","0.979858","0.169983","-0.084412","-0.061951","0.007634","0.007634","0.007634","1.57312","3.506323","9.418384","0.15791","0.13877","0.324194","0.10647","0.001196","0.37085"
"P","1617446329.2283504","7","-8","-2","-2","46","32","0.979858","0.1698","-0.084473","-0.062134","0","0","0","1.562353","3.537427","9.474609","0.145947","0.173462","0.379224","0.087329","0.016748","0.43186"
"P","1617446329.2183733","7","-10","-2","-1","44","32","0.979858","0.169861","-0.08429","-0.062134","-0.007634","-0.022901","-0.007634","1.467847","3.590064","9.488965","0.055029","0.224902","0.393579","0.001196","0.07417","0.449805"
"P","1617446329.2083988","7","-9","0","-1","48","31","0.979858","0.169983","-0.083862","-0.062012","-0.015267","-0.038168","-0.007634","1.375732","3.631934","9.472217","-0.027515","0.26438","0.376831","-0.071777","0.129199","0.435449"
"P","1617446329.198616","7","-10","-1","-1","48","29","0.979919","0.170166","-0.083435","-0.06189","-0.015267","-0.030534","0","1.336255","3.639111","9.443506","-0.059814","0.269165","0.346924","-0.096899","0.14834","0.405542"
"P","1617446329.1883583","7","-10","-3","-1","43","29","0.979919","0.170227","-0.083069","-0.061829","-0.007634","-0.022901","0","1.344629","3.599634","9.407618","-0.044263","0.228491","0.311035","-0.078955","0.118433","0.360083"
"P","1617446329.1785228","7","-10","-3","-3","44","27","0.979919","0.170166","-0.083008","-0.061768","0","0","0","1.40564","3.545801","9.384888","0.016748","0.175854","0.288306","-0.019141","0.068188","0.330176"
"P","1617446329.1682377","7","-10","-3","-2","44","28","0.979919","0.170105","-0.083191","-0.061829","0","0.015267","0","1.495361","3.500342","9.386084","0.102881","0.131592","0.289502","0.058618","0.013159","0.327783"
"P","1617446329.1584969","7","-10","-3","-1","48","28","0.979919","0.170044","-0.083557","-0.061951","-0.007634","0.030534","-0.007634","1.571924","3.480005","9.376513","0.173462","0.112451","0.279932","0.128003","-0.010767","0.322998"
"P","1617446329.1484735","7","-10","-1","-2","43","31","0.979858","0.170044","-0.084106","-0.062012","-0.007634","0.038168","-0.007634","1.611401","3.491968","9.370532","0.202173","0.123218","0.275146","0.15791","-0.003589","0.326587"
"P","1617446329.138359","7","-10","-1","-1","45","32","0.979797","0.170166","-0.084717","-0.062012","-0.015267","0.030534","-0.007634","1.632935","3.521875","9.383692","0.211743","0.150732","0.291895","0.166284","0.014355","0.352905"
"P","1617446329.1282852","7","-11","-4","-1","42","27","0.979736","0.170227","-0.085144","-0.062012","-0.007634","0.015267","-0.007634","1.59585","3.532642","9.382495","0.16748","0.160303","0.291895","0.123218","0.029907","0.349316"
"P","1617446329.1185186","7","-9","0","-1","44","28","0.979736","0.170288","-0.085144","-0.062012","0","-0.007634","0","1.494165","3.499146","9.341822","0.065796","0.12561","0.252417","0.027515","0.025122","0.285913"
"P","1617446329.1085656","7","-10","-1","-1","47","29","0.979736","0.170288","-0.085022","-0.062012","0","-0.015267","0","1.423584","3.474023","9.298755","-0.001196","0.100488","0.208154","-0.029907","0.026318","0.227295"
"P","1617446329.0984836","7","-10","-3","0","46","26","0.979736","0.170288","-0.084839","-0.062012","-0.007634","-0.015267","0","1.403247","3.471631","9.260473","-0.017944","0.098096","0.169873","-0.039478","0.038281","0.187817"
"P","1617446329.088524","7","-9","-2","-1","44","28","0.979736","0.170349","-0.084778","-0.062012","-0.007634","0","0","1.41521","3.464453","9.237744","-0.004785","0.089722","0.147144","-0.022729","0.035889","0.166284"
"P","1617446329.078559","7","-10","-1","-1","46","27","0.979675","0.17041","-0.085022","-0.062012","-0.007634","0.022901","-0.007634","1.45708","3.456079","9.230566","0.031104","0.080151","0.142358","0.010767","0.023926","0.163892"
"P","1617446329.06841","7","-10","-1","-1","46","31","0.979675","0.170471","-0.08551","-0.061951","-0.007634","0.030534","-0.015267","1.509717","3.440527","9.231763","0.07417","0.062207","0.144751","0.050244","0","0.166284"
"P","1617446329.0584104","7","-10","-2","-1","46","31","0.979614","0.170532","-0.086121","-0.06189","-0.007634","0.030534","-0.015267","1.533643","3.414209","9.220996","0.086133","0.034692","0.136377","0.061011","-0.023926","0.150732"
"P","1617446329.0482905","7","-10","0","-2","44","26","0.979553","0.170593","-0.08667","-0.061829","-0.015267","0.022901","-0.015267","1.538428","3.411816","9.2198","0.080151","0.031104","0.137573","0.053833","-0.027515","0.149536"
"P","1617446329.0382495","7","-9","1","-1","44","28","0.979492","0.170776","-0.087036","-0.061768","-0.022901","0.015267","-0.015267","1.520483","3.436939","9.223389","0.056226","0.052637","0.143555","0.031104","-0.004785","0.159106"
"P","1617446329.0287485","7","-9","-1","-2","46","29","0.979431","0.171204","-0.087097","-0.061646","-0.030534","-0.015267","-0.007634","1.452295","3.500342","9.222193","-0.011963","0.107666","0.144751","-0.028711","0.055029","0.168677"
"P","1617446329.0184128","7","-10","1","-1","44","32","0.97937","0.171631","-0.086975","-0.061523","-0.030534","-0.022901","0","1.379321","3.554175","9.181519","-0.082544","0.154321","0.10647","-0.086133","0.120825","0.13877"
"P","1617446329.0084803","7","-10","0","-1","47","31","0.979309","0.171997","-0.086792","-0.061462","-0.022901","-0.015267","0","1.396069","3.563745","9.132471","-0.062207","0.156714","0.059814","-0.057422","0.135181","0.100488"
"P","1617446328.998423","7","-9","0","-1","44","28","0.979248","0.172241","-0.086792","-0.061523","-0.022901","0","0","1.45708","3.556567","9.104956","0","0.145947","0.034692","0.005981","0.124414","0.082544"
"P","1617446328.988519","7","-9","0","-1","41","29","0.979187","0.172485","-0.087036","-0.061523","-0.022901","0.015267","0","1.530054","3.552979","9.102564","0.066992","0.137573","0.034692","0.070581","0.10647","0.089722"
"P","1617446328.978434","7","-9","-1","-1","46","28","0.979126","0.172668","-0.087402","-0.061584","-0.015267","0.030534","-0.007634","1.594653","3.561352","9.118115","0.12561","0.141162","0.052637","0.124414","0.094507","0.11604"
"P","1617446328.968543","7","-9","-1","-1","50","30","0.979065","0.172791","-0.087952","-0.061584","-0.015267","0.030534","-0.007634","1.626953","3.574512","9.139648","0.147144","0.151929","0.076563","0.142358","0.093311","0.145947"
"P","1617446328.9584243","7","-9","-5","-1","46","28","0.979004","0.172913","-0.088501","-0.061584","-0.015267","0.030534","-0.015267","1.65686","3.586475","9.167163","0.166284","0.161499","0.10647","0.155518","0.089722","0.179443"
"P","1617446328.9484973","7","-10","-4","-1","43","28","0.978943","0.172913","-0.088989","-0.061523","-0.007634","0.022901","-0.015267","1.65686","3.596045","9.192286","0.156714","0.169873","0.133984","0.141162","0.089722","0.206958"
"P","1617446328.9386826","7","-8","1","-1","42","28","0.978943","0.172852","-0.089355","-0.061462","0","0.015267","-0.007634","1.636523","3.598438","9.203052","0.129199","0.173462","0.144751","0.112451","0.094507","0.214136"
"P","1617446328.9286537","7","-10","-1","-1","47","28","0.978943","0.172729","-0.089539","-0.061462","0","0.007634","-0.007634","1.610205","3.593652","9.212622","0.099292","0.171069","0.154321","0.081348","0.093311","0.216528"
"P","1617446328.918431","7","-10","0","-1","48","28","0.978943","0.172607","-0.089539","-0.061462","0.007634","-0.007634","0","1.569531","3.582886","9.215014","0.058618","0.162695","0.156714","0.040674","0.090918","0.210547"
"P","1617446328.908659","7","-10","0","-1","44","29","0.979004","0.172363","-0.089478","-0.061523","0.007634","-0.007634","0","1.55398","3.562549","9.21023","0.044263","0.147144","0.149536","0.026318","0.081348","0.196191"
"P","1617446328.898688","7","-10","-1","-1","54","31","0.979004","0.17218","-0.089355","-0.061646","0.007634","-0.007634","0.007634","1.551587","3.544605","9.199463","0.044263","0.131592","0.137573","0.027515","0.070581","0.179443"
"P","1617446328.888321","7","-10","0","0","48","32","0.979065","0.171997","-0.089233","-0.061768","0","-0.007634","0.007634","1.565942","3.539819","9.193481","0.061011","0.130396","0.129199","0.045459","0.069385","0.173462"
"P","1617446328.8788085","7","-10","0","-1","48","30","0.979065","0.171936","-0.089172","-0.061951","0","-0.007634","0.007634","1.597046","3.539819","9.200659","0.094507","0.131592","0.136377","0.076563","0.063403","0.185425"
"P","1617446328.868397","7","-9","-4","-2","50","29","0.979065","0.171875","-0.089172","-0.062073","-0.007634","0","0","1.629346","3.539819","9.212622","0.126807","0.132788","0.147144","0.10647","0.056226","0.200977"
"P","1617446328.858719","7","-9","0","-1","51","32","0.979065","0.171875","-0.089172","-0.062134","0","0","0","1.643701","3.533838","9.226977","0.141162","0.126807","0.161499","0.117236","0.043066","0.214136"
"P","1617446328.8491256","7","-9","1","-1","44","29","0.979065","0.171753","-0.089172","-0.062134","0","0","-0.007634","1.635327","3.536231","9.228174","0.132788","0.131592","0.162695","0.108862","0.049048","0.216528"
"P","1617446328.8385737","7","-8","-1","-1","48","29","0.979126","0.171692","-0.089172","-0.062134","-0.007634","0","-0.007634","1.612598","3.566138","9.244922","0.110059","0.161499","0.178247","0.086133","0.075366","0.236865"
"P","1617446328.8291636","7","-10","0","-1","50","29","0.979126","0.171753","-0.089172","-0.062073","-0.007634","-0.007634","-0.007634","1.591064","3.618774","9.28081","0.088525","0.214136","0.214136","0.063403","0.11604","0.285913"
"P","1617446328.8192244","7","-10","-1","-1","47","28","0.979126","0.171814","-0.088989","-0.062012","-0.007634","-0.022901","-0.007634","1.515698","3.653467","9.287989","0.015552","0.247632","0.221313","-0.004785","0.156714","0.293091"
"P","1617446328.8092587","7","-10","-1","-1","46","29","0.979126","0.171814","-0.088684","-0.06189","-0.007634","-0.022901","0","1.460669","3.643897","9.270044","-0.0323","0.238062","0.203369","-0.049048","0.160303","0.265576"
"P","1617446328.7992785","7","-9","4","-1","44","31","0.979187","0.171875","-0.08844","-0.06189","-0.007634","-0.015267","0.007634","1.48938","3.636719","9.277222","0","0.229687","0.209351","-0.019141","0.145947","0.272754"
"P","1617446328.788473","7","-10","-2","-1","48","29","0.979187","0.171875","-0.088257","-0.061951","-0.007634","-0.007634","0.007634","1.536035","3.609204","9.283203","0.050244","0.203369","0.214136","0.025122","0.111255","0.276343"
"P","1617446328.779105","7","-10","-1","-1","47","18","0.979187","0.171753","-0.088257","-0.062073","0","0","0","1.581494","3.564941","9.276026","0.095703","0.160303","0.206958","0.066992","0.066992","0.260791"
"P","1617446328.769338","7","-10","1","-1","44","28","0.979187","0.171631","-0.088379","-0.062195","0","0.007634","0","1.628149","3.532642","9.273633","0.141162","0.130396","0.204565","0.108862","0.033496","0.25481"
"P","1617446328.7590933","7","-10","1","-1","48","27","0.979187","0.171509","-0.088562","-0.062256","0","0.015267","-0.007634","1.659253","3.531445","9.285596","0.168677","0.131592","0.215332","0.133984","0.026318","0.270361"
"P","1617446328.74925","7","-10","0","-1","48","27","0.979187","0.171387","-0.088806","-0.062195","0","0.015267","-0.015267","1.667627","3.550586","9.309522","0.171069","0.151929","0.239258","0.133984","0.037085","0.299072"
"P","1617446328.7393894","7","-10","-1","-2","46","30","0.979187","0.171326","-0.088867","-0.062134","0","-0.007634","-0.007634","1.61499","3.586475","9.328662","0.117236","0.189014","0.258398","0.080151","0.07417","0.321802"
"P","1617446328.7292564","7","-10","-1","-1","46","29","0.979248","0.171326","-0.088684","-0.062012","0","-0.022901","0","1.528857","3.587671","9.307129","0.034692","0.191406","0.235669","0.004785","0.096899","0.289502"
"P","1617446328.7193503","7","-10","-1","-1","48","31","0.979248","0.171326","-0.088257","-0.062012","-0.007634","-0.030534","0","1.486987","3.578101","9.283203","0.001196","0.181836","0.211743","-0.022729","0.100488","0.258398"
"P","1617446328.709412","7","-10","-1","-1","50","28","0.979309","0.171326","-0.08783","-0.062073","-0.007634","-0.030534","0","1.472632","3.570923","9.253296","-0.003589","0.174658","0.179443","-0.021533","0.105273","0.226099"
"P","1617446328.6991303","7","-10","1","-1","44","29","0.979309","0.171387","-0.087463","-0.062073","-0.007634","-0.022901","0","1.482202","3.56853","9.236547","0.010767","0.172266","0.162695","-0.004785","0.105273","0.211743"
"P","1617446328.6892447","7","-10","-1","-1","48","31","0.979309","0.171448","-0.087158","-0.062073","-0.007634","-0.022901","0","1.492969","3.54939","9.2198","0.027515","0.151929","0.144751","0.011963","0.089722","0.19021"
"P","1617446328.6792357","7","-10","-1","-1","46","27","0.97937","0.171387","-0.086975","-0.062073","-0.007634","-0.015267","0","1.520483","3.518286","9.215014","0.058618","0.122021","0.13877","0.04187","0.059814","0.179443"
"P","1617446328.669158","7","-10","0","-1","48","29","0.97937","0.171326","-0.086853","-0.062073","0","0","0","1.567139","3.481201","9.217407","0.107666","0.086133","0.141162","0.084937","0.017944","0.175854"
"P","1617446328.6591518","7","-10","2","-1","44","29","0.97937","0.171265","-0.086914","-0.062134","0","0.007634","-0.007634","1.599438","3.46206","9.224585","0.13877","0.068188","0.14834","0.112451","-0.004785","0.18064"
"P","1617446328.6492076","7","-10","16","-1","43","28","0.97937","0.171143","-0.087097","-0.062134","0","0.015267","-0.007634","1.617383","3.474023","9.250903","0.153125","0.082544","0.173462","0.123218","-0.002393","0.211743"
"P","1617446328.6392024","7","-9","0","-1","44","32","0.97937","0.171143","-0.08728","-0.062134","-0.007634","0.007634","-0.007634","1.60542","3.523071","9.297559","0.137573","0.130396","0.221313","0.102881","0.028711","0.270361"
"P","1617446328.6291697","7","-9","-1","-1","44","29","0.97937","0.171204","-0.087341","-0.062073","-0.007634","-0.007634","-0.007634","1.532446","3.56853","9.325073","0.063403","0.175854","0.248828","0.029907","0.072974","0.300269"
"P","1617446328.61938","7","-10","-1","-1","44","28","0.97937","0.171326","-0.087097","-0.062012","-0.015267","-0.022901","0","1.460669","3.599634","9.326269","-0.002393","0.204565","0.250024","-0.031104","0.110059","0.301465"
"P","1617446328.6092818","7","-9","-1","-1","44","29","0.97937","0.171448","-0.086792","-0.062073","-0.007634","-0.022901","0","1.406836","3.604419","9.31311","-0.050244","0.206958","0.236865","-0.075366","0.123218","0.283521"
"P","1617446328.5992632","7","-9","0","-1","48","29","0.97937","0.171448","-0.086487","-0.062073","-0.007634","-0.022901","0","1.384106","3.585278","9.295166","-0.066992","0.187817","0.218921","-0.089722","0.113647","0.257202"
"P","1617446328.5892954","7","-10","-1","-1","46","31","0.979431","0.171387","-0.086365","-0.062134","0","-0.007634","0","1.39248","3.542212","9.282007","-0.056226","0.145947","0.203369","-0.080151","0.077759","0.229687"
"P","1617446328.5791686","7","-10","-1","-2","45","28","0.979431","0.171204","-0.086365","-0.062256","0.007634","0","0","1.451099","3.491968","9.286792","0.001196","0.099292","0.208154","-0.028711","0.023926","0.227295"
"P","1617446328.3294318","7","-10","-4","-1","45","29","0.979309","0.170105","-0.089172","-0.063416","-0.007634","-0.015267","-0.015267","1.570728","3.570923","9.186304","0.069385","0.194995","0.108862","0.0646","0.135181","0.178247"
"P","1617446328.319485","7","-10","-1","-1","47","33","0.979309","0.170166","-0.088867","-0.063232","-0.015267","-0.022901","-0.007634","1.504932","3.576904","9.143237","0.00957","0.19978","0.065796","0.014355","0.163892","0.130396"
"P","1617446328.309349","7","-10","0","-2","48","29","0.97937","0.170288","-0.088562","-0.063049","-0.015267","-0.022901","-0.007634","1.485791","3.575708","9.10376","-0.003589","0.197388","0.025122","0.00957","0.175854","0.089722"
"P","1617446328.2992048","7","-9","-1","-1","43","27","0.97937","0.170349","-0.08844","-0.062866","-0.015267","-0.007634","-0.007634","1.496558","3.567334","9.08103","0.008374","0.187817","0.002393","0.025122","0.172266","0.068188"
"P","1617446328.2894342","7","-11","0","-1","53","31","0.97937","0.170349","-0.08844","-0.062744","-0.015267","0","-0.007634","1.550391","3.531445","9.078638","0.062207","0.151929","0.001196","0.07417","0.131592","0.062207"
"P","1617446328.2792633","7","-10","-1","-1","46","29","0.97937","0.170349","-0.088623","-0.062622","-0.007634","0.007634","-0.007634","1.617383","3.488379","9.097778","0.124414","0.108862","0.020337","0.126807","0.075366","0.07417"
"P","1617446328.2695272","7","-10","1","-1","46","29","0.97937","0.170227","-0.088867","-0.062561","0","0.015267","-0.015267","1.67002","3.438135","9.130078","0.172266","0.061011","0.052637","0.162695","0.013159","0.095703"
"P","1617446328.2596068","7","-9","0","-1","50","27","0.97937","0.170105","-0.089172","-0.062439","0.007634","0.015267","-0.015267","1.699927","3.381909","9.157593","0.196191","0.007178","0.080151","0.175854","-0.049048","0.10647"
"P","1617446328.2495058","7","-10","-3","-1","45","29","0.97937","0.169922","-0.089355","-0.062378","0.007634","0.007634","-0.015267","1.695142","3.340039","9.188696","0.186621","-0.029907","0.111255","0.156714","-0.092114","0.120825"
"P","1617446328.2394495","7","-10","-1","-2","46","29","0.979431","0.1698","-0.089417","-0.062256","0","0","-0.015267","1.677197","3.334058","9.213819","0.16748","-0.033496","0.135181","0.132788","-0.099292","0.13877"
"P","1617446328.2295864","7","-10","1","-1","48","27","0.979431","0.169922","-0.089233","-0.062134","-0.007634","-0.015267","-0.015267","1.617383","3.348413","9.225781","0.111255","-0.021533","0.147144","0.077759","-0.08374","0.145947"
"P","1617446328.2202344","7","-10","-3","-3","46","28","0.979431","0.170105","-0.088867","-0.061951","-0.015267","-0.030534","-0.007634","1.528857","3.385498","9.213819","0.028711","0.011963","0.135181","0.002393","-0.035889","0.132788"
"P","1617446328.209537","7","-10","-2","-3","46","27","0.979431","0.17041","-0.088562","-0.061768","-0.022901","-0.022901","-0.007634","1.475024","3.44292","9.213819","-0.017944","0.063403","0.136377","-0.038281","0.016748","0.144751"
"P","1617446328.1993754","7","-8","1","-1","52","32","0.97937","0.170715","-0.088257","-0.061646","-0.015267","-0.022901","-0.007634","1.452295","3.49436","9.195874","-0.034692","0.110059","0.119629","-0.046655","0.068188","0.142358"
"P","1617446328.189564","7","-10","-1","-1","44","32","0.97937","0.170837","-0.088135","-0.061584","-0.007634","-0.007634","0","1.481006","3.505127","9.185107","-0.003589","0.118433","0.110059","-0.013159","0.075366","0.141162"
"P","1617446328.1794467","7","-10","-1","-2","46","30","0.97937","0.170776","-0.088257","-0.061584","0","0.007634","0","1.549194","3.483594","9.1875","0.061011","0.098096","0.112451","0.046655","0.045459","0.147144"
"P","1617446328.169518","7","-10","0","-1","49","29","0.97937","0.170654","-0.08844","-0.061707","0.007634","0.015267","0","1.631738","3.454883","9.218603","0.139966","0.071777","0.142358","0.114844","0","0.177051"
"P","1617446328.1596134","7","-9","0","-1","44","29","0.979431","0.17041","-0.088562","-0.061829","0.007634","0","0","1.648486","3.429761","9.27124","0.154321","0.050244","0.193799","0.117236","-0.038281","0.220117"
"P","1617446328.149304","7","-10","-1","-1","48","29","0.979431","0.170227","-0.088379","-0.062012","0.007634","-0.022901","0.007634","1.586279","3.397461","9.307129","0.095703","0.021533","0.228491","0.050244","-0.066992","0.233276"
"P","1617446328.1400385","7","-9","3","-1","47","29","0.979492","0.170044","-0.08783","-0.062134","0.007634","-0.045802","0.015267","1.492969","3.380713","9.325073","0.013159","0.008374","0.242847","-0.0323","-0.071777","0.229687"
"P","1617446328.1295648","7","-10","0","-1","47","29","0.979553","0.170044","-0.087036","-0.062317","0","-0.053435","0.015267","1.417603","3.393872","9.333447","-0.045459","0.022729","0.248828","-0.089722","-0.05144","0.230884"
"P","1617446328.1201332","7","-10","0","-1","45","28","0.979614","0.170288","-0.086243","-0.062439","-0.015267","-0.053435","0.007634","1.372144","3.454883","9.33584","-0.07417","0.078955","0.250024","-0.112451","0.003589","0.247632"
"P","1617446328.1102605","7","-10","1","-1","43","28","0.979553","0.170715","-0.085571","-0.062439","-0.030534","-0.038168","0","1.338647","3.545801","9.326269","-0.094507","0.162695","0.24165","-0.122021","0.087329","0.265576"
"P","1617446328.1001568","7","-10","0","-1","44","28","0.979492","0.171265","-0.085266","-0.062378","-0.038168","-0.015267","0","1.360181","3.637915","9.315503","-0.066992","0.245239","0.233276","-0.086133","0.162695","0.290698"
"P","1617446328.0900712","7","-9","0","-1","48","29","0.979431","0.171753","-0.085388","-0.062317","-0.038168","0.015267","-0.007634","1.451099","3.696533","9.328662","0.021533","0.294287","0.250024","0","0.189014","0.336157"
"P","1617446328.0801337","7","-10","0","-3","44","29","0.979309","0.172058","-0.085876","-0.062256","-0.015267","0.030534","0","1.545605","3.692944","9.319092","0.10647","0.284717","0.244043","0.08374","0.168677","0.339746"
"P","1617446328.0701342","7","-10","1","-1","43","30","0.979248","0.172119","-0.086426","-0.062378","-0.007634","0.030534","0","1.597046","3.661841","9.295166","0.14834","0.252417","0.22251","0.12561","0.139966","0.314624"
"P","1617446328.0601554","7","-10","0","-2","44","27","0.979248","0.172058","-0.086853","-0.062622","-0.007634","0.022901","0.007634","1.628149","3.622363","9.292773","0.172266","0.212939","0.220117","0.144751","0.100488","0.302661"
"P","1617446328.0501423","7","-9","1","-1","47","32","0.979187","0.171997","-0.087097","-0.062866","-0.007634","0.007634","0","1.622168","3.616382","9.310718","0.161499","0.206958","0.239258","0.130396","0.089722","0.317017"
"P","1617446328.0402884","7","-10","1","-1","47","28","0.979187","0.172058","-0.087097","-0.062988","-0.007634","-0.015267","0","1.542017","3.628345","9.309522","0.082544","0.217725","0.238062","0.055029","0.112451","0.307446"
"P","1617446328.030098","7","-9","2","-1","46","31","0.979187","0.17218","-0.086792","-0.063049","-0.015267","-0.030534","0.007634","1.463062","3.640308","9.289185","0.00957","0.228491","0.217725","-0.010767","0.139966","0.282324"
"P","1617446328.0200894","7","-9","-2","-1","46","35","0.979187","0.172302","-0.086426","-0.06311","-0.015267","-0.022901","0.007634","1.470239","3.629541","9.267652","0.023926","0.215332","0.196191","0.005981","0.132788","0.259595"
"P","1617446328.010049","7","-10","0","-1","44","32","0.979187","0.172424","-0.086243","-0.063232","-0.007634","0","0","1.516895","3.608008","9.264063","0.075366","0.191406","0.192603","0.053833","0.102881","0.256006"
"P","1617446327.9995618","7","-8","-5","-2","47","31","0.979187","0.172424","-0.086365","-0.063293","-0.007634","0.015267","-0.007634","1.57312","3.581689","9.268847","0.129199","0.165088","0.197388","0.104077","0.069385","0.258398"
"P","1617446327.9901102","7","-10","-1","-3","47","28","0.979126","0.172424","-0.08667","-0.063232","-0.007634","0.022901","-0.015267","1.601831","3.569726","9.277222","0.151929","0.153125","0.206958","0.122021","0.05144","0.266772"
"P","1617446327.9802525","7","-10","9","-2","44","28","0.979126","0.172485","-0.087097","-0.06311","-0.015267","0.022901","-0.022901","1.619775","3.586475","9.297559","0.161499","0.16748","0.228491","0.129199","0.056226","0.293091"
"P","1617446327.9702766","7","-10","1","-3","48","29","0.979065","0.172546","-0.087463","-0.062927","-0.015267","0.007634","-0.015267","1.585083","3.627148","9.308325","0.118433","0.208154","0.24165","0.087329","0.096899","0.313428"
"P","1617446327.960077","7","-10","1","-6","44","29","0.979065","0.172668","-0.087524","-0.062805","-0.015267","-0.007634","0","1.50852","3.639111","9.284399","0.040674","0.217725","0.218921","0.016748","0.124414","0.283521"
"P","1617446327.9495957","7","-10","-1","-1","47","33","0.979004","0.172913","-0.087524","-0.062805","-0.015267","-0.007634","0","1.491772","3.655859","9.272436","0.025122","0.229687","0.208154","0.004785","0.141162","0.276343"
"P","1617446327.9401448","7","-9","1","-2","50","29","0.979004","0.173035","-0.087463","-0.062805","-0.015267","-0.007634","0","1.483398","3.652271","9.250903","0.017944","0.223706","0.187817","0.001196","0.143555","0.253613"
"P","1617446327.9300854","7","-10","1","-1","47","30","0.979004","0.173096","-0.087341","-0.062805","-0.007634","-0.015267","0","1.46665","3.619971","9.205444","0.003589","0.19021","0.142358","-0.005981","0.129199","0.198584"
"P","1617446327.9202163","7","-10","0","-1","46","30","0.979004","0.173035","-0.08728","-0.062866","0","-0.007634","0","1.483398","3.572119","9.156397","0.021533","0.143555","0.092114","0.015552","0.099292","0.137573"
"P","1617446327.9102654","7","-10","-1","-2","46","29","0.979004","0.172974","-0.087219","-0.062866","0","0","0","1.533643","3.527856","9.121704","0.072974","0.100488","0.057422","0.069385","0.063403","0.098096"
"P","1617446327.9003952","7","-10","-1","-2","46","29","0.979004","0.172852","-0.08728","-0.062927","0","0.007634","-0.007634","1.568335","3.507519","9.096582","0.10647","0.082544","0.0323","0.105273","0.049048","0.07417"
"P","1617446327.8902404","7","-10","-2","-1","48","29","0.979004","0.172791","-0.087463","-0.062866","0","0.015267","-0.015267","1.612598","3.49436","9.092993","0.147144","0.070581","0.028711","0.143555","0.033496","0.072974"
"P","1617446327.8802786","7","-10","-1","-1","48","27","0.979004","0.172729","-0.087769","-0.062805","0","0.022901","-0.015267","1.652075","3.503931","9.118115","0.179443","0.081348","0.053833","0.172266","0.029907","0.104077"
"P","1617446327.8702202","7","-10","-2","-4","46","30","0.979004","0.172668","-0.088074","-0.062683","-0.007634","0.015267","-0.015267","1.643701","3.523071","9.139648","0.165088","0.100488","0.075366","0.155518","0.043066","0.129199"
"P","1617446327.860665","7","-10","0","-2","50","31","0.979004","0.172668","-0.088257","-0.0625","-0.007634","0","-0.015267","1.606616","3.561352","9.159986","0.124414","0.139966","0.096899","0.114844","0.078955","0.156714"
"P","1617446327.8595965","7","-10","5","-3","46","29","0.979004","0.172791","-0.088257","-0.062378","-0.015267","-0.007634","-0.007634","1.545605","3.6104","9.180323","0.062207","0.186621","0.117236","0.055029","0.12561","0.181836"
"P","1617446327.85841","7","-10","-1","-2","48","32","0.979004","0.172913","-0.088135","-0.062317","-0.015267","-0.015267","0","1.495361","3.649878","9.207837","0.014355","0.223706","0.145947","0.005981","0.15791","0.214136"
"P","1617446327.8302903","7","-10","-3","-3","44","29","0.979004","0.172974","-0.087891","-0.062317","-0.015267","-0.022901","0","1.476221","3.661841","9.230566","0","0.234473","0.16748","-0.010767","0.162695","0.235669"
"P","1617446327.820223","7","-10","0","-2","48","30","0.979004","0.173035","-0.087646","-0.062317","-0.015267","-0.015267","0.007634","1.490576","3.675","9.255689","0.019141","0.247632","0.192603","0.003589","0.163892","0.266772"
"P","1617446327.8102217","7","-10","-1","-1","46","31","0.979004","0.173157","-0.087524","-0.062439","-0.007634","-0.015267","0.007634","1.519287","3.676196","9.29038","0.05144","0.246436","0.227295","0.028711","0.147144","0.303857"
"P","1617446327.8003182","7","-10","-1","-1","44","28","0.979004","0.173096","-0.087402","-0.062561","0","-0.007634","0","1.549194","3.647485","9.317896","0.08374","0.217725","0.25481","0.052637","0.10647","0.324194"
"P","1617446327.7902792","7","-10","-3","-3","45","28","0.979004","0.172974","-0.087341","-0.062561","0.007634","0","-0.007634","1.571924","3.602026","9.339429","0.107666","0.174658","0.275146","0.068188","0.055029","0.331372"
"P","1617446327.7802088","7","-11","-1","-3","58","28","0.979065","0.172791","-0.087341","-0.062561","0.007634","0","-0.007634","1.580298","3.569726","9.371729","0.11604","0.145947","0.30625","0.066992","0.017944","0.350513"
"P","1617446327.7702978","7","-10","-3","-3","46","31","0.979065","0.172668","-0.087402","-0.062439","0","0","-0.015267","1.565942","3.567334","9.401636","0.099292","0.145947","0.336157","0.045459","0.010767","0.375635"
"P","1617446327.7604766","7","-10","-3","-3","46","29","0.979126","0.172607","-0.087341","-0.062317","-0.007634","-0.015267","-0.015267","1.534839","3.594849","9.430346","0.069385","0.174658","0.363672","0.013159","0.0323","0.406738"
"P","1617446327.7502246","7","-10","-4","-1","42","29","0.979126","0.172668","-0.087036","-0.062073","-0.007634","-0.030534","-0.015267","1.461865","3.616382","9.426758","0.001196","0.196191","0.360083","-0.049048","0.0646","0.400757"
"P","1617446327.740204","7","-10","-1","-2","45","30","0.979187","0.172668","-0.086548","-0.061829","0","-0.038168","-0.007634","1.403247","3.60083","9.378906","-0.047852","0.181836","0.309839","-0.088525","0.07417","0.342139"
"P","1617446327.7306948","7","-10","-2","-3","46","28","0.979248","0.172546","-0.086182","-0.061707","0.007634","-0.022901","-0.007634","1.425977","3.556567","9.338232","-0.019141","0.139966","0.267969","-0.056226","0.045459","0.293091"
"P","1617446327.7205198","7","-10","-3","-2","50","27","0.979309","0.172363","-0.08606","-0.061646","0.007634","-0.007634","-0.007634","1.494165","3.501538","9.315503","0.050244","0.088525","0.242847","0.010767","-0.003589","0.261987"
"P","1617446327.7104373","7","-10","0","-3","44","28","0.979309","0.172119","-0.086182","-0.061646","0.007634","0.007634","0","1.565942","3.460864","9.317896","0.119629","0.052637","0.244043","0.07417","-0.047852","0.260791"
"P","1617446327.700435","7","-10","-1","-1","47","30","0.979309","0.171997","-0.086304","-0.061707","0","0.007634","0","1.607813","3.457275","9.329859","0.159106","0.05144","0.256006","0.111255","-0.058618","0.277539"
"P","1617446327.6902702","7","-10","0","-2","50","29","0.979309","0.171936","-0.086426","-0.061829","0","0.007634","0","1.598242","3.471631","9.329859","0.147144","0.065796","0.256006","0.100488","-0.044263","0.281128"
"P","1617446327.680287","7","-10","-1","-1","44","32","0.979309","0.171936","-0.086548","-0.06189","0","0.007634","-0.007634","1.56355","3.49436","9.321485","0.110059","0.088525","0.247632","0.068188","-0.014355","0.275146"
"P","1617446327.6704392","7","-10","-2","-2","44","28","0.979309","0.171936","-0.08667","-0.061829","0","0.007634","-0.015267","1.519287","3.518286","9.29397","0.063403","0.112451","0.220117","0.029907","0.022729","0.251221"
"P","1617446327.660328","7","-10","1","-1","48","30","0.979309","0.171875","-0.086914","-0.061768","0","0.015267","-0.015267","1.496558","3.555371","9.268847","0.035889","0.150732","0.196191","0.010767","0.070581","0.239258"
"P","1617446327.6504323","7","-10","-1","-1","50","29","0.979309","0.171875","-0.087219","-0.061646","0","0.015267","-0.007634","1.503735","3.598438","9.266455","0.037085","0.193799","0.193799","0.015552","0.111255","0.251221"
"P","1617446327.640467","7","-10","-2","-2","46","29","0.979309","0.171753","-0.087463","-0.061646","0","0.007634","-0.007634","1.481006","3.599634","9.231763","0.00957","0.196191","0.159106","-0.002393","0.129199","0.216528"
"P","1617446327.630447","7","-10","0","-1","45","28","0.979309","0.171631","-0.087585","-0.061646","0","0","0","1.461865","3.59126","9.195874","-0.010767","0.19021","0.123218","-0.016748","0.13877","0.178247"
"P","1617446327.6203375","7","-10","0","-1","45","31","0.979309","0.171448","-0.087769","-0.061768","0.007634","0.007634","0.007634","1.491772","3.555371","9.16836","0.014355","0.15791","0.095703","0.00957","0.113647","0.144751"
"P","1617446327.610381","7","-9","-3","-1","46","29","0.979309","0.171143","-0.088135","-0.061951","0.015267","0.022901","0.007634","1.559961","3.495557","9.157593","0.075366","0.102881","0.08374","0.065796","0.057422","0.124414"
"P","1617446327.6005254","7","-10","0","-1","44","29","0.979309","0.170715","-0.088562","-0.062134","0.015267","0.030534","0","1.658057","3.422583","9.169556","0.165088","0.037085","0.094507","0.145947","-0.020337","0.124414"
"P","1617446327.590278","7","-10","4","-1","46","31","0.979309","0.170349","-0.089111","-0.062378","0.007634","0.030534","0","1.728638","3.369946","9.193481","0.226099","-0.008374","0.118433","0.196191","-0.080151","0.141162"
"P","1617446327.5804744","7","-10","-1","-1","44","29","0.979309","0.170227","-0.089478","-0.0625","-0.007634","0.015267","-0.007634","1.758545","3.395068","9.242529","0.248828","0.017944","0.16748","0.210547","-0.07417","0.198584"
"P","1617446327.5703912","7","-10","-3","-2","48","31","0.979248","0.170471","-0.089417","-0.062561","-0.030534","-0.022901","-0.007634","1.703516","3.485986","9.286792","0.196191","0.104077","0.212939","0.159106","-0.001196","0.263184"
"P","1617446327.5603948","7","-10","-1","-1","47","27","0.979248","0.171082","-0.088867","-0.062439","-0.045802","-0.053435","-0.007634","1.558765","3.596045","9.283203","0.062207","0.203369","0.211743","0.037085","0.111255","0.275146"
"P","1617446327.5504196","7","-10","-1","-2","44","27","0.979187","0.171936","-0.087952","-0.062195","-0.061069","-0.061069","-0.007634","1.446314","3.704907","9.266455","-0.031104","0.297876","0.197388","-0.040674","0.217725","0.281128"
"P","1617446327.540534","7","-10","-2","-4","44","40","0.979126","0.172791","-0.087097","-0.06189","-0.053435","-0.061069","-0.007634","1.39248","3.773096","9.255689","-0.069385","0.350513","0.189014","-0.071777","0.275146","0.285913"
"P","1617446327.5302663","7","-10","-1","-1","44","29","0.979065","0.173462","-0.086365","-0.061646","-0.038168","-0.045802","0","1.386499","3.771899","9.232959","-0.061011","0.33855","0.168677","-0.061011","0.269165","0.265576"
"P","1617446327.5203457","7","-10","3","-1","47","28","0.979065","0.17395","-0.085815","-0.061462","-0.030534","-0.030534","0","1.406836","3.759937","9.230566","-0.029907","0.318213","0.16748","-0.031104","0.245239","0.261987"
"P","1617446327.5104191","7","-10","-1","-1","47","31","0.979065","0.174133","-0.08551","-0.061462","-0.015267","-0.015267","0.007634","1.451099","3.713281","9.242529","0.019141","0.267969","0.179443","0.008374","0.186621","0.261987"
"P","1617446327.5004244","7","-10","-2","-4","47","31","0.979004","0.174255","-0.085327","-0.061523","-0.015267","-0.007634","0","1.500147","3.660645","9.241333","0.072974","0.212939","0.179443","0.056226","0.128003","0.251221"
"P","1617446327.4904103","7","-10","-1","-1","44","29","0.979004","0.174316","-0.085205","-0.061523","-0.007634","-0.007634","0","1.514502","3.641504","9.247314","0.089722","0.193799","0.185425","0.069385","0.105273","0.252417"
"P","1617446327.4804692","7","-10","-1","-4","46","30","0.979004","0.174377","-0.085144","-0.061523","-0.007634","-0.007634","-0.007634","1.514502","3.630737","9.24851","0.090918","0.181836","0.186621","0.069385","0.093311","0.248828"
"P","1617446327.4704478","7","-10","0","-2","46","28","0.979004","0.174438","-0.085205","-0.061462","-0.007634","0.007634","-0.007634","1.538428","3.618774","9.255689","0.112451","0.168677","0.194995","0.088525","0.075366","0.256006"
"P","1617446327.4602523","7","-10","-1","-4","44","31","0.979004","0.1745","-0.085388","-0.06134","-0.007634","0.015267","-0.015267","1.579102","3.605615","9.28081","0.149536","0.154321","0.220117","0.118433","0.047852","0.278735"
"P","1617446327.4506986","7","-10","0","-3","43","28","0.979004","0.1745","-0.085632","-0.061279","-0.007634","0.007634","-0.007634","1.60542","3.587671","9.299952","0.171069","0.136377","0.240454","0.133984","0.021533","0.294287"
"P","1617446327.440532","7","-10","0","-2","48","31","0.979004","0.1745","-0.085571","-0.061218","-0.007634","-0.007634","-0.007634","1.57312","3.55896","9.286792","0.139966","0.107666","0.227295","0.102881","0.003589","0.267969"
"P","1617446327.4305692","7","-10","-1","-3","48","29","0.979004","0.174561","-0.085327","-0.061096","-0.007634","-0.022901","-0.007634","1.504932","3.543408","9.256885","0.076563","0.090918","0.197388","0.045459","0.007178","0.224902"
"P","1617446327.420513","7","-10","-2","-2","46","30","0.979004","0.174622","-0.085083","-0.061035","-0.007634","-0.015267","-0.007634","1.470239","3.541016","9.234156","0.045459","0.087329","0.173462","0.019141","0.016748","0.197388"
"P","1617446327.4104428","7","-10","-1","-1","50","31","0.979065","0.174683","-0.084961","-0.060852","-0.007634","-0.007634","-0.015267","1.443921","3.548193","9.226977","0.021533","0.094507","0.166284","-0.001196","0.028711","0.189014"
"P","1617446327.4004068","7","-10","-1","-2","47","27","0.979065","0.174683","-0.084961","-0.06073","-0.007634","0","-0.015267","1.435547","3.561352","9.22937","0.011963","0.107666","0.168677","-0.00957","0.04187","0.194995"
"P","1617446327.3904104","7","-10","-2","-2","45","31","0.979065","0.174683","-0.085083","-0.060547","-0.007634","0.007634","-0.015267","1.428369","3.562549","9.236547","0.002393","0.108862","0.175854","-0.020337","0.04187","0.200977"
"P","1617446327.3807297","7","-9","0","-1","48","31","0.979004","0.174622","-0.085388","-0.060486","0","0.015267","-0.007634","1.443921","3.554175","9.259277","0.011963","0.101685","0.19978","-0.016748","0.026318","0.221313"
"P","1617446327.3703208","7","-8","-17","-1","48","31","0.979004","0.174561","-0.085693","-0.060425","0","0.015267","-0.007634","1.470239","3.533838","9.273633","0.0323","0.082544","0.215332","-0.001196","0","0.23208"
"P","1617446327.360536","7","-10","1","-3","46","27","0.979004","0.1745","-0.085999","-0.060425","-0.007634","0.007634","0","1.494165","3.523071","9.279614","0.050244","0.071777","0.221313","0.013159","-0.013159","0.236865"
"P","1617446327.3505638","7","-11","-2","-3","47","27","0.979004","0.174561","-0.086121","-0.060486","-0.007634","0","0","1.518091","3.515893","9.2521","0.071777","0.063403","0.193799","0.038281","-0.015552","0.211743"
"P","1617446327.3403816","7","-10","-1","-2","44","29","0.978943","0.174744","-0.08606","-0.060486","-0.015267","-0.007634","0","1.528857","3.527856","9.231763","0.08374","0.072974","0.175854","0.053833","-0.002393","0.19978"
"P","1617446327.3304172","7","-9","-1","-2","9","29","0.978943","0.174927","-0.085999","-0.060486","-0.015267","-0.007634","0","1.522876","3.536231","9.193481","0.080151","0.077759","0.137573","0.058618","0.014355","0.166284"
"P","1617446327.3211749","7","-10","1","-1","46","31","0.978882","0.17511","-0.085999","-0.060425","-0.007634","0","-0.007634","1.534839","3.527856","9.152807","0.092114","0.065796","0.099292","0.076563","0.014355","0.128003"
"P","1617446327.310426","7","-10","-3","-2","46","32","0.978882","0.175171","-0.086182","-0.060364","-0.007634","0.015267","-0.015267","1.550391","3.529053","9.124097","0.104077","0.065796","0.070581","0.093311","0.021533","0.102881"
"P","1617446327.300485","7","-10","-1","-3","46","28","0.978821","0.175232","-0.086548","-0.060303","-0.007634","0.022901","-0.015267","1.599438","3.539819","9.138453","0.145947","0.075366","0.087329","0.131592","0.019141","0.128003"
"P","1617446327.2906022","7","-10","-3","-3","47","27","0.978821","0.175232","-0.086914","-0.060242","-0.007634","0.015267","-0.007634","1.626953","3.545801","9.159986","0.166284","0.081348","0.110059","0.14834","0.014355","0.154321"
"P","1617446327.2803223","7","-10","-1","-2","46","31","0.978821","0.175171","-0.087097","-0.060242","0","0","0","1.594653","3.550586","9.17793","0.130396","0.086133","0.128003","0.110059","0.017944","0.16748"
"P","1617446327.2712083","7","-10","-1","-2","45","32","0.978821","0.17511","-0.087036","-0.060303","0","-0.015267","0","1.546802","3.550586","9.192286","0.08374","0.087329","0.141162","0.062207","0.021533","0.173462"
"P","1617446327.2612789","7","-10","-2","-1","47","29","0.978821","0.175049","-0.086731","-0.060364","0","-0.022901","0.007634","1.50852","3.554175","9.222193","0.05144","0.092114","0.171069","0.025122","0.020337","0.197388"
"P","1617446327.2504838","7","-10","-4","-2","47","29","0.978882","0.175049","-0.086304","-0.060486","0","-0.030534","0.007634","1.469043","3.55896","9.240137","0.020337","0.098096","0.186621","-0.005981","0.026318","0.209351"
"P","1617446327.2404466","7","-10","0","-2","48","28","0.978882","0.175049","-0.085876","-0.060547","-0.007634","-0.030534","0.007634","1.469043","3.572119","9.246119","0.028711","0.111255","0.191406","0.001196","0.034692","0.220117"
"P","1617446327.231329","7","-10","-1","-3","46","32","0.978943","0.17511","-0.08551","-0.060669","-0.007634","-0.022901","0","1.482202","3.60083","9.272436","0.049048","0.13877","0.216528","0.019141","0.049048","0.256006"
"P","1617446327.221213","7","-9","-1","-1","42","28","0.978943","0.175232","-0.085205","-0.06073","-0.007634","-0.015267","0","1.472632","3.636719","9.289185","0.045459","0.172266","0.233276","0.015552","0.075366","0.282324"
"P","1617446327.211246","7","-10","-3","-3","40","19","0.978943","0.175293","-0.084961","-0.06073","-0.007634","-0.015267","0","1.44751","3.670215","9.301147","0.025122","0.204565","0.245239","-0.002393","0.104077","0.301465"
"P","1617446327.2012932","7","-10","-2","-3","46","29","0.978943","0.175354","-0.084717","-0.06073","-0.007634","-0.015267","0","1.418799","3.69773","9.305933","0.001196","0.23208","0.248828","-0.023926","0.132788","0.311035"
"P","1617446327.1914334","7","-10","-2","-4","44","27","0.978943","0.175415","-0.084595","-0.060791","-0.007634","-0.015267","0.007634","1.403247","3.725244","9.319092","-0.010767","0.258398","0.261987","-0.035889","0.154321","0.331372"
"P","1617446327.1812043","7","-8","-2","-3","44","29","0.978943","0.175415","-0.084412","-0.060852","0","-0.015267","0.007634","1.380518","3.740796","9.310718","-0.028711","0.27395","0.253613","-0.050244","0.174658","0.326587"
"P","1617446327.1712036","7","-10","0","-1","48","33","0.978943","0.175415","-0.08429","-0.061096","0","-0.007634","0.015267","1.376929","3.746777","9.295166","-0.029907","0.279932","0.238062","-0.047852","0.185425","0.314624"
"P","1617446327.161135","7","-10","-3","-4","38","30","0.978943","0.175354","-0.084229","-0.061401","-0.007634","0","0.022901","1.400854","3.755151","9.285596","-0.003589","0.288306","0.227295","-0.019141","0.192603","0.311035"
"P","1617446327.1511974","7","-10","-3","-3","44","28","0.978882","0.175415","-0.084167","-0.061768","-0.007634","0","0.015267","1.442725","3.792236","9.292773","0.039478","0.324194","0.235669","0.023926","0.216528","0.337354"
"P","1617446327.1413898","7","-11","-1","-3","48","30","0.978882","0.175415","-0.084167","-0.062073","-0.007634","0","0.015267","1.443921","3.787451","9.272436","0.04187","0.319409","0.214136","0.029907","0.218921","0.31582"
"P","1617446327.131277","7","-9","-3","-4","44","32","0.978882","0.175415","-0.08429","-0.062256","-0.007634","0.007634","0.007634","1.481006","3.755151","9.264063","0.077759","0.285913","0.205762","0.063403","0.185425","0.301465"
"P","1617446327.121321","7","-10","0","-2","43","35","0.978821","0.175415","-0.084534","-0.062378","-0.007634","0.022901","-0.007634","1.536035","3.730029","9.262866","0.128003","0.260791","0.206958","0.110059","0.154321","0.301465"
"P","1617446327.1112616","7","-9","0","-3","46","28","0.978821","0.175354","-0.0849","-0.062317","-0.007634","0.022901","-0.015267","1.588672","3.700122","9.283203","0.173462","0.23208","0.227295","0.147144","0.113647","0.317017"
"P","1617446327.1012478","7","-10","-3","-3","46","26","0.978821","0.175293","-0.085327","-0.062195","-0.007634","0.022901","-0.022901","1.609009","3.669019","9.301147","0.185425","0.200977","0.246436","0.153125","0.076563","0.325391"
"P","1617446327.091088","7","-10","-3","-2","47","26","0.978821","0.175232","-0.085571","-0.062012","0","0.007634","-0.015267","1.587476","3.649878","9.297559","0.15791","0.183032","0.242847","0.124414","0.0646","0.311035"
"P","1617446327.0813472","7","-10","-3","-4","46","29","0.978821","0.17511","-0.085693","-0.06189","0","0.007634","-0.015267","1.556372","3.646289","9.27124","0.124414","0.181836","0.216528","0.096899","0.077759","0.282324"
"P","1617446327.071234","7","-10","-5","-4","42","29","0.978821","0.17511","-0.085876","-0.061707","-0.007634","0.007634","-0.015267","1.568335","3.671411","9.278418","0.131592","0.206958","0.223706","0.104077","0.098096","0.299072"
"P","1617446327.0613413","7","-10","-2","-4","44","31","0.978821","0.174988","-0.085938","-0.061646","0","0","-0.007634","1.567139","3.679785","9.279614","0.129199","0.217725","0.224902","0.102881","0.107666","0.302661"
"P","1617446327.0512466","7","-9","-1","-6","47","29","0.978882","0.174744","-0.085938","-0.061646","0.007634","0","0","1.557568","3.645093","9.258081","0.119629","0.187817","0.200977","0.095703","0.089722","0.269165"
"P","1617446327.041144","7","-10","-1","-2","-2","27","0.978943","0.174438","-0.085876","-0.061707","0.022901","0","0","1.555176","3.597241","9.262866","0.117236","0.145947","0.203369","0.088525","0.050244","0.256006"
"P","1617446327.031431","7","-10","0","-4","46","28","0.979065","0.17395","-0.085754","-0.061768","0.022901","-0.007634","-0.007634","1.520483","3.548193","9.265259","0.084937","0.105273","0.202173","0.053833","0.017944","0.235669"
"P","1617446327.0213234","7","-10","0","-4","47","29","0.979126","0.173401","-0.085571","-0.061829","0.030534","-0.007634","-0.007634","1.48938","3.503931","9.27124","0.056226","0.071777","0.204565","0.022729","-0.008374","0.22251"
"P","1617446327.011342","7","-10","-3","-3","44","28","0.979248","0.172852","-0.085449","-0.061707","0.030534","-0.015267","-0.015267","1.451099","3.463257","9.264063","0.019141","0.04187","0.192603","-0.013159","-0.026318","0.194995"
"P","1617446327.0013788","7","-11","0","-6","46","27","0.97937","0.172363","-0.085327","-0.061584","0.022901","0","-0.015267","1.440332","3.445312","9.268847","0.00957","0.033496","0.193799","-0.023926","-0.033496","0.191406"
"P","1617446326.991185","7","-11","-2","-3","44","28","0.979431","0.171997","-0.085449","-0.061462","0.015267","0","-0.015267","1.478613","3.448901","9.277222","0.044263","0.043066","0.19978","0.008374","-0.031104","0.205762"
"P","1617446326.9811711","7","-10","-3","-4","44","29","0.979492","0.171692","-0.08551","-0.06134","0.015267","-0.007634","-0.007634","1.483398","3.463257","9.253296","0.047852","0.063403","0.174658","0.019141","-0.004785","0.19021"
"P","1617446326.9714787","7","-10","0","-3","42","28","0.979553","0.171509","-0.085388","-0.061279","0.007634","-0.015267","0","1.454687","3.478809","9.199463","0.020337","0.082544","0.118433","0.004785","0.034692","0.141162"
"P","1617446326.9613087","7","-10","0","-2","44","29","0.979553","0.171387","-0.085144","-0.06134","-0.007634","-0.015267","0.007634","1.431958","3.481201","9.120508","0.002393","0.087329","0.038281","0.002393","0.068188","0.065796"
"P","1617446326.9512432","7","-10","-2","-3","45","28","0.979553","0.171509","-0.084961","-0.061401","-0.015267","-0.007634","0","1.445117","3.555371","9.109741","0.019141","0.159106","0.027515","0.027515","0.136377","0.082544"
"P","1617446326.941186","7","-10","-3","-3","44","31","0.979553","0.171631","-0.0849","-0.061462","-0.015267","-0.007634","0","1.472632","3.572119","9.085815","0.049048","0.174658","0.003589","0.062207","0.154321","0.070581"
"P","1617446326.9313293","7","-10","-3","-4","46","27","0.979492","0.171814","-0.084961","-0.061523","-0.015267","0.007634","0","1.50852","3.55896","9.08103","0.08374","0.15791","0.001196","0.095703","0.133984","0.066992"
"P","1617446326.921163","7","-10","-3","-3","47","32","0.979492","0.171936","-0.085144","-0.061523","-0.007634","0.015267","-0.007634","1.57312","3.537427","9.092993","0.144751","0.132788","0.014355","0.150732","0.096899","0.080151"
"P","1617446326.9115393","7","-10","0","-3","45","27","0.979431","0.171814","-0.085449","-0.061584","0","0.022901","-0.007634","1.613794","3.489575","9.114527","0.18064","0.087329","0.037085","0.177051","0.04187","0.090918"
"P","1617446326.901337","7","-11","-1","-3","47","26","0.979431","0.171692","-0.085876","-0.061584","0","0.022901","-0.015267","1.659253","3.450098","9.149219","0.217725","0.050244","0.071777","0.203369","-0.008374","0.114844"
"P","1617446326.891341","7","-10","-2","-4","46","28","0.979431","0.171692","-0.086182","-0.061523","-0.007634","0.007634","-0.015267","1.668823","3.469238","9.198267","0.221313","0.068188","0.120825","0.198584","-0.008374","0.16748"
"P","1617446326.8813384","7","-10","5","-3","47","29","0.979431","0.171753","-0.086121","-0.06134","-0.007634","-0.022901","-0.015267","1.561157","3.500342","9.199463","0.113647","0.099292","0.123218","0.095703","0.034692","0.165088"
"P","1617446326.871374","7","-9","-1","-11","46","27","0.979431","0.171936","-0.085571","-0.061157","-0.015267","-0.038168","-0.007634","1.459473","3.524268","9.182714","0.022729","0.120825","0.10647","0.011963","0.07417","0.143555"
"P","1617446326.861298","7","-9","-2","-5","46","29","0.979492","0.172119","-0.085022","-0.061035","-0.015267","-0.038168","0","1.403247","3.556567","9.173144","-0.022729","0.149536","0.094507","-0.026318","0.111255","0.135181"
"P","1617446326.8516507","7","-10","-1","-3","47","33","0.979492","0.172241","-0.084534","-0.060974","-0.007634","-0.022901","0","1.385303","3.552979","9.158789","-0.031104","0.144751","0.080151","-0.0323","0.112451","0.119629"
"P","1617446326.8411098","7","-10","1","-4","47","28","0.979492","0.17218","-0.084351","-0.060913","0","0","0","1.410425","3.531445","9.16477","-0.002393","0.124414","0.086133","-0.005981","0.087329","0.122021"
"P","1617446326.491453","7","-10","-1","-5","46","33","0.97998","0.16864","-0.084961","-0.062561","0","0","-0.007634","1.488184","3.533838","9.266455","0.062207","0.19021","0.165088","0.046655","0.114844","0.226099"
"P","1617446326.481216","7","-10","-2","-4","45","29","0.97998","0.168579","-0.085083","-0.062561","0","0.007634","0","1.524072","3.531445","9.259277","0.095703","0.189014","0.15791","0.081348","0.111255","0.224902"
"P","1617446326.47204","7","-10","1","-3","46","29","0.97998","0.168457","-0.085266","-0.062622","0","0.007634","0","1.55398","3.523071","9.258081","0.122021","0.181836","0.156714","0.10647","0.100488","0.224902"
"P","1617446326.4620483","7","-10","-1","-3","46","29","0.97998","0.168396","-0.085388","-0.062744","0","0.007634","0","1.555176","3.514697","9.24851","0.122021","0.174658","0.147144","0.107666","0.096899","0.212939"
"P","1617446326.4520917","7","-10","-3","-3","48","30","0.97998","0.168274","-0.08551","-0.062805","0","0.007634","0","1.55398","3.491968","9.241333","0.118433","0.154321","0.139966","0.102881","0.081348","0.19978"
"P","1617446326.441553","7","-10","-1","-5","47","29","0.97998","0.168091","-0.085693","-0.062805","0","0.007634","-0.007634","1.568335","3.465649","9.23894","0.129199","0.130396","0.137573","0.112451","0.057422","0.19021"
"P","1617446326.431515","7","-11","-4","-4","46","30","0.980042","0.167908","-0.085815","-0.062805","0","0.007634","-0.007634","1.580298","3.436939","9.234156","0.137573","0.105273","0.130396","0.119629","0.035889","0.177051"
"P","1617446326.422198","7","-10","-4","-1","43","29","0.980042","0.167786","-0.085999","-0.062744","0","0.007634","-0.015267","1.562353","3.415405","9.224585","0.11604","0.086133","0.120825","0.098096","0.023926","0.15791"
"P","1617446326.4120834","7","-10","-3","-1","45","31","0.980042","0.167847","-0.08606","-0.062622","-0.015267","0","-0.015267","1.532446","3.451294","9.237744","0.084937","0.120825","0.135181","0.068188","0.056226","0.178247"
"P","1617446326.4014175","7","-10","1","-4","46","28","0.97998","0.168091","-0.086121","-0.062439","-0.022901","0","-0.015267","1.495361","3.513501","9.249707","0.046655","0.179443","0.14834","0.033496","0.112451","0.204565"
"P","1617446326.3921962","7","-10","0","-5","50","31","0.97998","0.168274","-0.086121","-0.062134","-0.015267","0","-0.015267","1.458276","3.538623","9.246119","0.008374","0.200977","0.145947","0","0.139966","0.204565"
"P","1617446326.3821845","7","-10","-1","-7","47","30","0.97998","0.168335","-0.086304","-0.061951","-0.007634","0.007634","-0.015267","1.46665","3.506323","9.243726","0.013159","0.16748","0.144751","0","0.107666","0.192603"
"P","1617446326.3721757","7","-10","-2","-4","42","27","0.97998","0.168213","-0.086487","-0.061829","0.007634","0.007634","-0.007634","1.512109","3.432153","9.242529","0.053833","0.095703","0.143555","0.033496","0.034692","0.173462"
"P","1617446326.362113","7","-10","-3","-2","44","31","0.97998","0.167969","-0.08667","-0.061829","0.015267","0.007634","-0.007634","1.54082","3.35918","9.230566","0.078955","0.027515","0.131592","0.053833","-0.027515","0.142358"
"P","1617446326.3521063","7","-10","0","-6","46","30","0.980042","0.167725","-0.086853","-0.06189","0.007634","0.007634","0","1.57312","3.328076","9.226977","0.107666","0","0.12561","0.080151","-0.055029","0.131592"
"P","1617446326.3421469","7","-10","0","-2","44","32","0.980042","0.167664","-0.087036","-0.061951","-0.007634","0.007634","-0.007634","1.593457","3.354394","9.255689","0.124414","0.027515","0.154321","0.094507","-0.04187","0.171069"
"P","1617446326.3322084","7","-10","-1","-3","47","32","0.97998","0.167786","-0.087036","-0.06189","-0.015267","-0.007634","-0.007634","1.56355","3.395068","9.253296","0.094507","0.065796","0.154321","0.068188","-0.001196","0.179443"
"P","1617446326.322312","7","-10","-3","-4","42","28","0.97998","0.167969","-0.086975","-0.061829","-0.022901","-0.007634","-0.007634","1.532446","3.444116","9.250903","0.0646","0.111255","0.151929","0.044263","0.045459","0.187817"
"P","1617446326.3121924","7","-10","-3","-7","50","30","0.979919","0.168274","-0.086975","-0.061707","-0.015267","0","-0.007634","1.515698","3.491968","9.255689","0.047852","0.154321","0.159106","0.029907","0.086133","0.206958"
"P","1617446326.3022387","7","-9","0","-3","46","44","0.979919","0.168457","-0.087036","-0.061584","-0.015267","0","-0.007634","1.50852","3.523071","9.265259","0.039478","0.181836","0.169873","0.021533","0.108862","0.224902"
"P","1617446326.2921638","7","-11","1","-7","46","28","0.979919","0.168457","-0.087097","-0.061523","-0.007634","0","-0.007634","1.503735","3.525464","9.272436","0.033496","0.184229","0.177051","0.015552","0.110059","0.23208"
"P","1617446326.2822125","7","-11","1","-7","46","29","0.979919","0.168396","-0.087097","-0.061462","0","0","0","1.488184","3.518286","9.277222","0.017944","0.178247","0.181836","0","0.105273","0.23208"
"P","1617446326.2720952","7","-10","-4","-6","46","31","0.979919","0.168335","-0.087158","-0.061523","0","-0.007634","0.007634","1.491772","3.509912","9.285596","0.020337","0.171069","0.19021","0","0.095703","0.236865"
"P","1617446326.2621074","7","-10","-3","-4","46","28","0.979919","0.168213","-0.087097","-0.061646","0","-0.007634","0","1.514502","3.497949","9.302343","0.044263","0.161499","0.205762","0.017944","0.077759","0.252417"
"P","1617446326.2521229","7","-10","-1","-2","43","29","0.979919","0.168152","-0.086975","-0.061707","0","-0.015267","0","1.506128","3.468042","9.311914","0.038281","0.132788","0.215332","0.008374","0.049048","0.250024"
"P","1617446326.2423215","7","-10","-7","-8","44","30","0.97998","0.16803","-0.086792","-0.061829","0","-0.015267","0.007634","1.518091","3.438135","9.314306","0.053833","0.105273","0.215332","0.020337","0.021533","0.242847"
"P","1617446326.2321925","7","-10","-1","-3","48","32","0.97998","0.167908","-0.086609","-0.061951","0","-0.015267","0","1.525269","3.415405","9.315503","0.0646","0.084937","0.215332","0.029907","0.001196","0.238062"
"P","1617446326.2221084","7","-10","-5","-2","47","29","0.980042","0.167847","-0.086426","-0.062012","0","-0.015267","0","1.524072","3.405835","9.321485","0.066992","0.076563","0.220117","0.029907","-0.008374","0.239258"
"P","1617446326.2122085","7","-10","-3","-3","44","27","0.980042","0.167908","-0.086304","-0.062012","-0.007634","-0.007634","-0.007634","1.519287","3.42019","9.332251","0.0646","0.089722","0.230884","0.027515","0","0.253613"
"P","1617446326.202189","7","-10","-2","-4","48","27","0.97998","0.16803","-0.086304","-0.062012","-0.007634","0","-0.007634","1.53125","3.460864","9.347803","0.077759","0.128003","0.247632","0.040674","0.028711","0.284717"
"P","1617446326.1921113","7","-10","0","-4","48","30","0.97998","0.168152","-0.086304","-0.061951","-0.007634","0","-0.007634","1.519287","3.48479","9.347803","0.0646","0.149536","0.247632","0.028711","0.050244","0.289502"
"P","1617446326.182163","7","-10","0","-3","44","30","0.97998","0.168152","-0.086304","-0.061951","-0.007634","0","0","1.500147","3.482398","9.323877","0.045459","0.147144","0.223706","0.014355","0.058618","0.26438"
"P","1617446326.172357","7","-10","-1","-4","44","28","0.97998","0.168152","-0.086304","-0.062012","-0.007634","0","0","1.502539","3.487183","9.320288","0.049048","0.151929","0.220117","0.019141","0.063403","0.263184"
"P","1617446326.162149","7","-10","0","-4","44","29","0.97998","0.168091","-0.086365","-0.062073","-0.007634","0","0.007634","1.497754","3.48479","9.325073","0.043066","0.150732","0.224902","0.013159","0.062207","0.265576"
"P","1617446326.152274","7","-11","-3","-6","44","28","0.97998","0.168152","-0.086426","-0.062256","-0.007634","0","0.007634","1.513306","3.485986","9.33584","0.057422","0.149536","0.235669","0.025122","0.055029","0.277539"
"P","1617446326.1421213","7","-10","-3","-4","43","30","0.979919","0.168213","-0.086548","-0.062378","-0.007634","0","0.007634","1.518091","3.497949","9.346606","0.061011","0.160303","0.247632","0.026318","0.061011","0.293091"
"P","1617446326.132328","7","-10","0","-5","47","31","0.979919","0.168213","-0.086548","-0.0625","0","0","0","1.514502","3.489575","9.333447","0.057422","0.151929","0.234473","0.025122","0.058618","0.277539"
"P","1617446326.1224132","7","-10","-3","-5","45","29","0.979919","0.168152","-0.08667","-0.062561","0","0.007634","0","1.54082","3.464453","9.305933","0.081348","0.128003","0.206958","0.05144","0.040674","0.247632"
"P","1617446326.1124442","7","-10","-1","-4","47","28","0.979919","0.16803","-0.086914","-0.062622","0","0.015267","-0.007634","1.592261","3.459668","9.282007","0.128003","0.12561","0.183032","0.101685","0.039478","0.230884"
"P","1617446326.1024237","7","-10","-2","-2","45","29","0.979919","0.167969","-0.087219","-0.062622","-0.007634","0.015267","-0.007634","1.63772","3.495557","9.282007","0.168677","0.161499","0.184229","0.143555","0.065796","0.251221"
"P","1617446326.092153","7","-10","-1","-2","45","31","0.979858","0.16803","-0.087463","-0.062622","-0.007634","0.007634","-0.007634","1.618579","3.538623","9.267652","0.144751","0.203369","0.171069","0.126807","0.113647","0.248828"
"P","1617446326.0824718","7","-10","0","-2","46","29","0.979858","0.16803","-0.087585","-0.062561","-0.007634","0","-0.007634","1.56355","3.567334","9.253296","0.087329","0.23208","0.156714","0.076563","0.153125","0.236865"
"P","1617446326.0722573","7","-10","-3","-4","44","37","0.979858","0.16803","-0.087646","-0.0625","0","0","-0.007634","1.518091","3.570923","9.230566","0.039478","0.235669","0.133984","0.033496","0.171069","0.209351"
"P","1617446326.0621765","7","-10","-1","-3","43","28","0.979858","0.167847","-0.087708","-0.062561","0.007634","0.007634","0","1.507324","3.533838","9.201856","0.027515","0.202173","0.105273","0.025122","0.150732","0.169873"
"P","1617446326.0523608","7","-10","-3","-6","44","32","0.979919","0.167603","-0.08783","-0.062622","0.007634","0.007634","0","1.525269","3.493164","9.194677","0.043066","0.166284","0.095703","0.038281","0.118433","0.150732"
"P","1617446326.0422237","7","-10","-3","-4","42","28","0.979919","0.167297","-0.088013","-0.062805","0.007634","0.007634","0","1.559961","3.459668","9.203052","0.075366","0.137573","0.104077","0.065796","0.08374","0.154321"
"P","1617446326.03234","7","-9","0","-5","44","31","0.979919","0.167053","-0.088196","-0.062927","0.007634","0.007634","0","1.593457","3.424976","9.215014","0.105273","0.107666","0.114844","0.089722","0.047852","0.15791"
"P","1617446326.0223198","7","-10","-1","-2","46","28","0.97998","0.16687","-0.088379","-0.062988","0.007634","0.015267","-0.007634","1.623364","3.387891","9.22937","0.131592","0.072974","0.128003","0.110059","0.007178","0.162695"
"P","1617446326.012236","7","-10","-2","-4","46","29","0.97998","0.166626","-0.088623","-0.062927","0.007634","0.015267","-0.015267","1.649683","3.353198","9.230566","0.151929","0.043066","0.129199","0.126807","-0.022729","0.156714"
"P","1617446326.0023198","7","-10","-2","-2","48","31","0.97998","0.166443","-0.088806","-0.062866","0","0.007634","-0.015267","1.668823","3.33645","9.225781","0.16748","0.029907","0.123218","0.141162","-0.035889","0.149536"
"P","1617446325.992305","7","-10","-3","16","44","31","0.97998","0.166443","-0.088867","-0.062683","-0.007634","0","-0.015267","1.642505","3.35918","9.225781","0.139966","0.052637","0.124414","0.117236","-0.010767","0.154321"
"P","1617446325.982317","7","-10","-3","-4","47","32","0.97998","0.166626","-0.088806","-0.0625","-0.022901","-0.015267","-0.007634","1.592261","3.424976","9.236547","0.089722","0.114844","0.135181","0.071777","0.050244","0.177051"
"P","1617446325.9722302","7","-10","0","-6","48","27","0.97998","0.16687","-0.088501","-0.062378","-0.022901","-0.022901","-0.007634","1.536035","3.493164","9.237744","0.039478","0.179443","0.137573","0.027515","0.118433","0.193799"
"P","1617446325.9624946","7","-8","-1","-2","51","31","0.97998","0.167114","-0.088135","-0.062317","-0.015267","-0.022901","0","1.481006","3.514697","9.213819","-0.007178","0.196191","0.113647","-0.010767","0.14834","0.169873"
"P","1617446325.9524956","7","-10","0","-4","48","28","0.97998","0.167175","-0.087891","-0.062317","0","-0.015267","0.007634","1.46665","3.501538","9.203052","-0.016748","0.183032","0.102881","-0.019141","0.141162","0.154321"
"P","1617446325.9422712","7","-10","-3","-5","46","29","0.980042","0.166992","-0.087708","-0.062439","0.007634","-0.007634","0.007634","1.472632","3.460864","9.195874","-0.007178","0.144751","0.093311","-0.010767","0.10647","0.133984"
"P","1617446325.9323015","7","-10","0","-2","48","41","0.980042","0.166748","-0.087646","-0.062683","0.015267","0","0.007634","1.509717","3.416602","9.21023","0.029907","0.105273","0.10647","0.017944","0.059814","0.13877"
"P","1617446325.9223142","7","-10","-1","-3","46","29","0.980103","0.166382","-0.087646","-0.062927","0.015267","0","0.007634","1.549194","3.369946","9.22937","0.070581","0.0646","0.123218","0.050244","0.010767","0.145947"
"P","1617446325.9123335","7","-9","-1","-4","48","32","0.980103","0.166138","-0.087708","-0.063171","0.007634","0","0.007634","1.583887","3.352002","9.243726","0.104077","0.05144","0.136377","0.080151","-0.00957","0.159106"
"P","1617446325.9023793","7","-10","-1","-4","48","32","0.980164","0.166016","-0.087646","-0.063293","0","0","0","1.610205","3.355591","9.270044","0.131592","0.057422","0.160303","0.102881","-0.016748","0.187817"
"P","1617446325.8925433","7","-9","1","-3","45","29","0.980164","0.166016","-0.087585","-0.063354","-0.007634","-0.007634","0","1.601831","3.373535","9.279614","0.124414","0.075366","0.169873","0.095703","-0.001196","0.200977"
"P","1617446325.882254","7","-10","2","-3","48","29","0.980164","0.166077","-0.087524","-0.063354","-0.007634","-0.007634","0","1.593457","3.396265","9.276026","0.117236","0.096899","0.166284","0.090918","0.020337","0.204565"
"P","1617446325.8724518","7","-9","-1","-2","52","29","0.980164","0.166138","-0.087402","-0.063416","-0.007634","-0.007634","0","1.575513","3.42019","9.274829","0.102881","0.119629","0.165088","0.078955","0.044263","0.208154"
"P","1617446325.8623843","7","-10","-3","-4","48","31","0.980164","0.166199","-0.087219","-0.063477","-0.007634","-0.015267","0","1.528857","3.451294","9.256885","0.059814","0.149536","0.147144","0.044263","0.08374","0.194995"
"P","1617446325.8528092","7","-10","0","-2","47","29","0.980164","0.16626","-0.087097","-0.063538","-0.007634","-0.007634","0.007634","1.500147","3.496753","9.237744","0.033496","0.193799","0.128003","0.026318","0.135181","0.189014"
"P","1617446325.8424828","7","-10","-3","-4","44","27","0.980103","0.166382","-0.086914","-0.06366","-0.015267","-0.015267","0.007634","1.494165","3.545801","9.236547","0.031104","0.240454","0.128003","0.028711","0.179443","0.204565"
"P","1617446325.8324564","7","-10","-2","-7","45","30","0.980103","0.166504","-0.086731","-0.063904","-0.007634","-0.015267","0.015267","1.47981","3.575708","9.23894","0.021533","0.267969","0.130396","0.021533","0.205762","0.214136"
"P","1617446325.822298","7","-10","-1","-4","44","29","0.980103","0.166504","-0.086548","-0.064087","-0.007634","-0.007634","0.007634","1.467847","3.569726","9.2198","0.014355","0.261987","0.110059","0.017944","0.208154","0.192603"
"P","1617446325.8123002","7","-10","0","-2","47","29","0.980103","0.166382","-0.086487","-0.06427","0","0","0.007634","1.488184","3.537427","9.205444","0.035889","0.23208","0.094507","0.039478","0.181836","0.171069"
"P","1617446325.8025875","7","-10","0","-4","47","32","0.980103","0.166199","-0.086609","-0.064453","0","0.007634","0","1.533643","3.493164","9.209033","0.078955","0.19021","0.098096","0.076563","0.133984","0.166284"
"P","1617446325.792508","7","-10","-1","-3","47","29","0.980164","0.166016","-0.086914","-0.064575","0","0.022901","-0.007634","1.587476","3.456079","9.211426","0.126807","0.156714","0.099292","0.119629","0.095703","0.163892"
"P","1617446325.7825358","7","-10","-1","-6","45","31","0.980103","0.165894","-0.08728","-0.064575","-0.007634","0.022901","-0.007634","1.638916","3.453686","9.228174","0.171069","0.155518","0.117236","0.159106","0.081348","0.186621"
"P","1617446325.7725658","7","-10","-3","-5","48","35","0.980103","0.165955","-0.087524","-0.064514","-0.015267","0.007634","-0.015267","1.655664","3.487183","9.267652","0.183032","0.187817","0.15791","0.166284","0.096899","0.236865"
"P","1617446325.7623076","7","-10","-1","-6","48","32","0.980103","0.166138","-0.087402","-0.064392","-0.022901","-0.022901","-0.015267","1.588672","3.544605","9.291577","0.118433","0.24165","0.181836","0.104077","0.150732","0.267969"
"P","1617446325.7532854","7","-8","1","-3","46","30","0.980103","0.166382","-0.087036","-0.064209","-0.022901","-0.038168","0","1.485791","3.579297","9.267652","0.022729","0.272754","0.15791","0.017944","0.200977","0.24165"
"P","1617446325.7423537","7","-10","-1","-4","44","31","0.980103","0.166565","-0.086487","-0.064087","-0.015267","-0.038168","0","1.455884","3.581689","9.249707","0.003589","0.272754","0.139966","0.002393","0.210547","0.22251"
"P","1617446325.7325225","7","-10","-3","-3","47","28","0.980164","0.166565","-0.085938","-0.064087","0","-0.030534","0","1.44751","3.545801","9.224585","0.004785","0.236865","0.112451","0.005981","0.185425","0.184229"
"P","1617446325.7223682","7","-10","-1","-3","45","30","0.980225","0.166382","-0.085632","-0.064087","0.007634","-0.007634","0","1.448706","3.489575","9.21023","0.011963","0.184229","0.096899","0.010767","0.139966","0.153125"
"P","1617446325.712739","7","-10","1","-2","45","30","0.980286","0.166077","-0.085693","-0.064087","0.015267","0.015267","-0.007634","1.513306","3.430957","9.23894","0.075366","0.131592","0.123218","0.062207","0.071777","0.169873"
"P","1617446325.7025166","7","-10","-3","-7","45","29","0.980286","0.165649","-0.08606","-0.064087","0.015267","0.022901","-0.007634","1.594653","3.386694","9.276026","0.14834","0.095703","0.159106","0.123218","0.016748","0.200977"
"P","1617446325.692384","7","-10","0","-3","45","27","0.980347","0.165283","-0.086487","-0.064087","0.015267","0.030534","-0.015267","1.624561","3.343628","9.296362","0.169873","0.058618","0.178247","0.137573","-0.026318","0.210547"
"P","1617446325.683109","7","-10","-1","-4","46","29","0.980347","0.1651","-0.086914","-0.063965","0","0.022901","-0.015267","1.640112","3.350806","9.325073","0.177051","0.069385","0.206958","0.139966","-0.026318","0.24165"
"P","1617446325.6724975","7","-10","-1","-4","47","29","0.980286","0.165161","-0.087158","-0.063904","-0.015267","0","-0.015267","1.624561","3.426172","9.380102","0.156714","0.143555","0.26438","0.11604","0.027515","0.317017"
"P","1617446325.663341","7","-10","-2","-6","45","28","0.980286","0.165466","-0.087097","-0.06366","-0.022901","-0.022901","-0.015267","1.536035","3.49436","9.37771","0.068188","0.205762","0.263184","0.034692","0.099292","0.322998"
"P","1617446325.6525664","7","-10","-1","-4","58","28","0.980286","0.16571","-0.086853","-0.063477","-0.015267","-0.022901","-0.007634","1.481006","3.509912","9.334643","0.017944","0.217725","0.220117","-0.003589","0.131592","0.279932"
"P","1617446325.6425476","7","-10","-1","-6","44","29","0.980286","0.165833","-0.086609","-0.063354","-0.007634","-0.015267","0","1.504932","3.477612","9.285596","0.046655","0.183032","0.171069","0.029907","0.110059","0.227295"
"P","1617446325.6331458","7","-10","0","-4","42","42","0.980286","0.165649","-0.086548","-0.063354","0.007634","0","0","1.544409","3.409424","9.234156","0.086133","0.118433","0.119629","0.071777","0.059814","0.162695"
"P","1617446325.6231456","7","-10","-16","-3","44","31","0.980347","0.165344","-0.086609","-0.063354","0.015267","0.015267","-0.007634","1.581494","3.334058","9.217407","0.122021","0.049048","0.100488","0.104077","-0.003589","0.128003"
"P","1617446325.61264","7","-10","-3","-4","45","28","0.980408","0.164978","-0.086975","-0.063416","0.015267","0.030534","-0.015267","1.630542","3.293384","9.234156","0.163892","0.014355","0.114844","0.13877","-0.046655","0.135181"
"P","1617446325.602406","7","-11","1","-4","45","28","0.980408","0.164612","-0.087585","-0.063354","0.007634","0.045802","-0.022901","1.704712","3.282617","9.298755","0.224902","0.00957","0.179443","0.185425","-0.081348","0.203369"
"P","1617446325.5931034","7","-10","1","-4","44","29","0.980347","0.164368","-0.088318","-0.06311","0","0.045802","-0.038168","1.737012","3.263477","9.376513","0.242847","-0.003589","0.259595","0.185425","-0.120825","0.276343"
"P","1617446325.583075","7","-10","-1","-3","47","26","0.980347","0.164307","-0.088928","-0.062683","-0.007634","0.022901","-0.038168","1.710693","3.283813","9.425562","0.203369","0.016748","0.309839","0.13877","-0.111255","0.324194"
"P","1617446325.573184","7","-10","1","-4","47","31","0.980347","0.164551","-0.089233","-0.062317","-0.030534","-0.007634","-0.022901","1.629346","3.373535","9.460254","0.114844","0.101685","0.346924","0.052637","-0.029907","0.373242"
"P","1617446325.5632207","7","-12","-1","-2","48","31","0.980286","0.1651","-0.088989","-0.062012","-0.038168","-0.038168","-0.007634","1.49895","3.482398","9.448291","-0.00957","0.200977","0.337354","-0.056226","0.08374","0.379224"
"P","1617446325.553132","7","-10","-1","-4","43","29","0.980225","0.165649","-0.088379","-0.061829","-0.038168","-0.053435","0.007634","1.375732","3.544605","9.388476","-0.120825","0.25481","0.279932","-0.14834","0.168677","0.326587"
"P","1617446325.5433614","7","-10","-1","-6","46","28","0.980225","0.166077","-0.087708","-0.061768","-0.022901","-0.038168","0.007634","1.335059","3.54939","9.331055","-0.14834","0.252417","0.22251","-0.163892","0.187817","0.269165"
"P","1617446325.5331678","7","-9","-3","-2","46","29","0.980225","0.16626","-0.08728","-0.061829","-0.007634","-0.015267","0.015267","1.378125","3.483594","9.272436","-0.096899","0.183032","0.163892","-0.108862","0.133984","0.198584"
"P","1617446325.5231094","7","-9","0","-1","46","28","0.980225","0.166138","-0.087341","-0.062073","0.007634","0.015267","0.007634","1.477417","3.392676","9.22937","0.001196","0.094507","0.119629","-0.011963","0.050244","0.142358"
"P","1617446325.5132756","7","-10","-1","-4","47","29","0.980225","0.165894","-0.08783","-0.062317","0.015267","0.038168","0","1.598242","3.318506","9.217407","0.112451","0.023926","0.107666","0.090918","-0.027515","0.124414"
"P","1617446325.5031106","7","-9","0","-3","45","29","0.980164","0.165527","-0.088623","-0.0625","0.007634","0.053435","-0.007634","1.702319","3.265869","9.225781","0.202173","-0.021533","0.117236","0.172266","-0.087329","0.131592"
"P","1617446325.4932375","7","-9","-3","-4","47","31","0.980164","0.165405","-0.089478","-0.062622","0","0.045802","-0.007634","1.770508","3.279028","9.243726","0.253613","-0.008374","0.136377","0.218921","-0.088525","0.162695"
"P","1617446325.4833424","7","-10","0","-3","41","-1","0.980042","0.165466","-0.089966","-0.062683","-0.015267","0.007634","-0.007634","1.745386","3.353198","9.266455","0.220117","0.063403","0.162695","0.187817","-0.023926","0.205762"
"P","1617446325.473144","7","-9","-1","-3","46","28","0.980042","0.165833","-0.089844","-0.062622","-0.030534","-0.030534","-0.007634","1.598242","3.447705","9.236547","0.075366","0.151929","0.133984","0.061011","0.088525","0.186621"
"P","1617446325.463299","7","-10","-2","-5","46","28","0.97998","0.166321","-0.089172","-0.0625","-0.030534","-0.053435","0","1.453491","3.542212","9.181519","-0.055029","0.238062","0.080151","-0.046655","0.205762","0.145947"
"P","1617446325.453187","7","-10","-1","-6","46","26","0.980042","0.166748","-0.088318","-0.062378","-0.022901","-0.053435","0","1.37334","3.578101","9.133667","-0.118433","0.266772","0.031104","-0.096899","0.257202","0.100488"
"P","1617446325.4431584","7","-10","-2","-5","44","28","0.980042","0.16687","-0.087708","-0.062317","-0.007634","-0.030534","0","1.379321","3.550586","9.101367","-0.100488","0.238062","0","-0.075366","0.238062","0.0646"
"P","1617446325.433153","7","-10","-3","-4","47","29","0.980103","0.166687","-0.087585","-0.062317","0.007634","0.007634","0","1.481006","3.481201","9.121704","0.001196","0.171069","0.016748","0.013159","0.154321","0.072974"
"P","1617446325.4232185","7","-10","-1","-6","10","15","0.980164","0.16626","-0.087952","-0.062378","0.022901","0.030534","0","1.611401","3.407031","9.175537","0.124414","0.105273","0.068188","0.117236","0.057422","0.117236"
"P","1617446325.4134169","7","-10","0","-1","47","30","0.980164","0.165771","-0.088501","-0.062561","0.022901","0.038168","0","1.703516","3.349609","9.241333","0.205762","0.056226","0.132788","0.179443","-0.019141","0.173462"
"P","1617446325.403266","7","-10","-8","-7","46","28","0.980164","0.165405","-0.08905","-0.062744","0.007634","0.022901","0","1.759741","3.360376","9.337036","0.251221","0.072974","0.228491","0.206958","-0.040674","0.275146"
"P","1617446325.393285","7","-9","-1","-6","46","28","0.980164","0.165283","-0.089172","-0.062927","0","-0.007634","0","1.717871","3.426172","9.427954","0.208154","0.139966","0.319409","0.153125","0","0.375635"
"P","1617446325.383217","7","-10","-2","-8","44","29","0.980164","0.165405","-0.088745","-0.062988","-0.015267","-0.045802","0","1.583887","3.481201","9.442309","0.082544","0.193799","0.332568","0.033496","0.0646","0.386401"
"P","1617446325.3732457","7","-10","-2","-6","44","31","0.980225","0.165649","-0.087952","-0.062927","-0.015267","-0.061069","0","1.460669","3.52666","9.413599","-0.023926","0.234473","0.302661","-0.058618","0.128003","0.355298"
"P","1617446325.3632703","7","-11","-3","-3","44","28","0.980286","0.165833","-0.087036","-0.062866","-0.015267","-0.061069","0","1.387695","3.543408","9.356176","-0.080151","0.248828","0.242847","-0.100488","0.168677","0.29668"
"P","1617446325.3532934","7","-10","0","-22","44","29","0.980286","0.166016","-0.086243","-0.062805","-0.015267","-0.038168","0","1.376929","3.552979","9.311914","-0.075366","0.256006","0.198584","-0.086133","0.187817","0.258398"
"P","1617446325.3434637","7","-11","-3","-4","44","28","0.980286","0.16626","-0.085876","-0.062805","-0.022901","-0.015267","0","1.412817","3.582886","9.295166","-0.0323","0.282324","0.181836","-0.038281","0.211743","0.258398"
"P","1617446325.3332253","7","-10","-2","-6","43","31","0.980286","0.166443","-0.085938","-0.062744","-0.015267","0.015267","-0.007634","1.476221","3.608008","9.296362","0.028711","0.303857","0.184229","0.021533","0.221313","0.277539"
"P","1617446325.3232908","7","-10","-1","-7","45","30","0.980225","0.166504","-0.086365","-0.062683","-0.015267","0.030534","-0.007634","1.547998","3.588867","9.301147","0.092114","0.283521","0.19021","0.080151","0.191406","0.285913"
"P","1617446325.3133986","7","-10","-3","-6","46","31","0.980164","0.166443","-0.087036","-0.062622","-0.007634","0.045802","-0.015267","1.640112","3.550586","9.337036","0.172266","0.245239","0.228491","0.147144","0.130396","0.320605"
"P","1617446325.3032625","7","-10","-1","-2","50","31","0.980103","0.166321","-0.08783","-0.062622","-0.007634","0.045802","-0.007634","1.705908","3.529053","9.390869","0.22251","0.226099","0.284717","0.183032","0.087329","0.373242"
"P","1617446325.293189","7","-10","0","-4","43","29","0.980103","0.16626","-0.08844","-0.062683","-0.007634","0.022901","-0.007634","1.726245","3.511108","9.439917","0.230884","0.208154","0.334961","0.179443","0.053833","0.416309"
"P","1617446325.2833498","7","-10","-4","-6","47","31","0.980103","0.166199","-0.088501","-0.062622","0","-0.015267","-0.007634","1.650879","3.472827","9.441113","0.154321","0.171069","0.336157","0.100488","0.029907","0.392383"
"P","1617446325.2732463","7","-10","1","-6","46","27","0.980103","0.166138","-0.088135","-0.062622","0","-0.038168","0","1.549194","3.411816","9.37771","0.059814","0.111255","0.271558","0.015552","0.00957","0.297876"
"P","1617446325.2632363","7","-10","0","-4","48","27","0.980164","0.166077","-0.087646","-0.062622","-0.007634","-0.022901","-0.007634","1.530054","3.37832","9.326269","0.049048","0.080151","0.217725","0.013159","0","0.235669"
"P","1617446325.2534122","7","-10","-3","-5","44","28","0.980164","0.166138","-0.087402","-0.062561","-0.015267","-0.007634","-0.015267","1.530054","3.380713","9.305933","0.053833","0.081348","0.197388","0.021533","0.004785","0.218921"
"P","1617446325.2434154","7","-10","-1","-10","46","29","0.980164","0.166382","-0.087402","-0.062317","-0.022901","0","-0.015267","1.543213","3.416602","9.304736","0.066992","0.112451","0.197388","0.037085","0.0323","0.230884"
"P","1617446325.2333937","7","-10","0","-4","45","29","0.980103","0.166626","-0.087463","-0.062134","-0.022901","0","-0.015267","1.542017","3.457275","9.30354","0.0646","0.149536","0.198584","0.038281","0.066992","0.244043"
"P","1617446325.2233028","7","-10","-3","-10","46","30","0.980042","0.166992","-0.087585","-0.062012","-0.022901","0.007634","-0.007634","1.536035","3.488379","9.287989","0.056226","0.173462","0.185425","0.034692","0.094507","0.239258"
"P","1617446325.2133207","7","-10","-3","-7","46","27","0.97998","0.167297","-0.08783","-0.06189","-0.022901","0.015267","-0.007634","1.550391","3.518286","9.295166","0.065796","0.197388","0.194995","0.044263","0.112451","0.257202"
"P","1617446325.2033534","7","-10","-2","-6","44","28","0.979919","0.167603","-0.088074","-0.06189","-0.022901","0.007634","-0.007634","1.567139","3.539819","9.30354","0.077759","0.212939","0.205762","0.055029","0.122021","0.27395"
"P","1617446325.1933606","7","-11","-4","-7","47","28","0.979858","0.167786","-0.088257","-0.06189","-0.015267","-0.007634","0","1.550391","3.537427","9.287989","0.058618","0.206958","0.192603","0.038281","0.123218","0.257202"
"P","1617446325.1834478","7","-10","-6","-7","46","29","0.979858","0.167786","-0.088135","-0.06189","-0.007634","-0.015267","0.007634","1.512109","3.488379","9.228174","0.022729","0.159106","0.132788","0.010767","0.102881","0.18064"
"P","1617446325.173455","7","-10","-3","-6","45","31","0.979919","0.167786","-0.087891","-0.062073","0","-0.015267","0.007634","1.509717","3.436939","9.1875","0.025122","0.10647","0.090918","0.016748","0.065796","0.123218"
"P","1617446325.16327","7","-10","-4","-6","44","32","0.979919","0.167725","-0.087646","-0.062195","0","-0.015267","0","1.52168","3.396265","9.162378","0.04187","0.066992","0.0646","0.033496","0.034692","0.088525"
"P","1617446325.1532905","7","-10","-1","-7","46","29","0.979919","0.167603","-0.087585","-0.062195","0","0","-0.007634","1.549194","3.366357","9.150415","0.070581","0.039478","0.05144","0.062207","0.00957","0.071777"
"P","1617446325.1434546","7","-8","-2","-8","44","30","0.97998","0.167542","-0.087708","-0.062134","-0.007634","0.007634","-0.007634","1.594653","3.35918","9.175537","0.113647","0.033496","0.076563","0.099292","-0.00957","0.099292"
"P","1617446325.133361","7","-10","-3","-6","45","31","0.979919","0.167542","-0.087952","-0.062073","-0.007634","0.007634","-0.015267","1.632935","3.375928","9.218603","0.147144","0.050244","0.120825","0.124414","-0.013159","0.150732"
"P","1617446325.1236126","7","-10","-4","-7","43","28","0.979919","0.167603","-0.088074","-0.062012","-0.007634","0","-0.007634","1.618579","3.389087","9.253296","0.130396","0.062207","0.155518","0.102881","-0.010767","0.184229"
"P","1617446325.113268","7","-10","0","-5","45","26","0.979919","0.167725","-0.087952","-0.061951","-0.007634","-0.015267","0","1.575513","3.404639","9.28081","0.089722","0.075366","0.184229","0.058618","-0.001196","0.209351"
"P","1617446325.1033936","7","-10","0","-6","46","33","0.979919","0.167786","-0.087769","-0.061951","-0.007634","-0.022901","0","1.534839","3.427368","9.298755","0.052637","0.098096","0.200977","0.021533","0.019141","0.227295"
"P","1617446325.0933726","7","-10","-2","-6","44","31","0.979919","0.167908","-0.087402","-0.062012","-0.007634","-0.030534","0.015267","1.492969","3.441724","9.29397","0.017944","0.110059","0.196191","-0.00957","0.037085","0.221313"
"P","1617446325.0833745","7","-8","-3","-7","46","29","0.97998","0.167969","-0.086792","-0.062256","-0.007634","-0.038168","0.022901","1.451099","3.439331","9.265259","-0.010767","0.10647","0.165088","-0.031104","0.047852","0.187817"
"P","1617446325.073485","7","-10","-3","-6","47","27","0.97998","0.167969","-0.086182","-0.062622","0","-0.030534","0.022901","1.433154","3.428565","9.237744","-0.015552","0.095703","0.136377","-0.031104","0.047852","0.156714"
"P","1617446325.063321","7","-10","0","-3","8","31","0.97998","0.16803","-0.085754","-0.062927","0","-0.015267","0.015267","1.446314","3.42019","9.230566","0.005981","0.086133","0.128003","-0.00957","0.038281","0.14834"
"P","1617446325.0534909","7","-10","0","-8","45","27","0.97998","0.167969","-0.085632","-0.063171","0","0.007634","0.007634","1.478613","3.403442","9.234156","0.040674","0.070581","0.131592","0.021533","0.016748","0.151929"
"P","1617446325.0433452","7","-10","-2","-6","46","30","0.97998","0.167908","-0.085876","-0.063354","0","0.022901","-0.007634","1.527661","3.392676","9.258081","0.086133","0.059814","0.155518","0.059814","-0.005981","0.177051"
"P","1617446325.0331376","7","-10","-1","-6","46","29","0.979919","0.167847","-0.086365","-0.063416","-0.007634","0.030534","-0.007634","1.564746","3.40105","9.285596","0.113647","0.069385","0.184229","0.081348","-0.010767","0.210547"
"P","1617446325.023903","7","-7","-1","-6","44","27","0.979858","0.167908","-0.086914","-0.063416","-0.015267","0.030534","-0.007634","1.568335","3.454883","9.327466","0.107666","0.122021","0.228491","0.072974","0.023926","0.269165"
"P","1617446325.0137084","7","-10","-2","-6","45","30","0.979797","0.168152","-0.087402","-0.063416","-0.030534","0.022901","-0.007634","1.552783","3.548193","9.359766","0.082544","0.209351","0.263184","0.049048","0.099292","0.327783"
"P","1617446325.0032516","7","-10","-2","-6","47","29","0.979736","0.168518","-0.087708","-0.063416","-0.030534","0","-0.007634","1.503735","3.643897","9.375318","0.028711","0.297876","0.282324","0.001196","0.183032","0.367261"
"P","1617446324.7442417","7","-9","-1","-4","46","29","0.980774","0.165771","-0.082153","-0.061584","0.022901","0.015267","-0.022901","1.396069","3.413013","9.38728","0.016748","0.126807","0.258398","-0.017944","0.034692","0.284717"
"P","1617446324.7341447","7","-10","-1","-7","46","27","0.980835","0.165283","-0.082642","-0.06134","0.015267","0.030534","-0.030534","1.472632","3.353198","9.370532","0.082544","0.075366","0.239258","0.043066","-0.015552","0.259595"
"P","1617446324.7241983","7","-10","-2","-6","47","28","0.980835","0.165039","-0.083313","-0.061035","0","0.030534","-0.030534","1.54082","3.362769","9.389673","0.136377","0.089722","0.259595","0.093311","-0.016748","0.290698"
"P","1617446324.7142544","7","-10","-2","-6","46","28","0.980835","0.165039","-0.08374","-0.060669","-0.015267","0.007634","-0.038168","1.520483","3.411816","9.411206","0.10647","0.13877","0.282324","0.0646","0.025122","0.324194"
"P","1617446324.704363","7","-10","-3","-7","47","31","0.980835","0.165161","-0.08374","-0.060181","-0.022901","-0.030534","-0.030534","1.379321","3.435742","9.363355","-0.034692","0.161499","0.235669","-0.062207","0.082544","0.267969"
"P","1617446324.694137","7","-10","-2","-12","47","27","0.980835","0.165344","-0.083313","-0.059631","-0.015267","-0.038168","-0.030534","1.284814","3.417798","9.286792","-0.123218","0.141162","0.159106","-0.136377","0.099292","0.177051"
"P","1617446324.684312","7","-10","-1","-7","47","28","0.980896","0.165466","-0.083069","-0.059143","-0.007634","-0.015267","-0.030534","1.275244","3.357983","9.234156","-0.129199","0.080151","0.10647","-0.13877","0.059814","0.10647"
"P","1617446324.6742506","7","-10","-3","-6","44","30","0.980957","0.165344","-0.083252","-0.058655","-0.007634","0.022901","-0.030534","1.339844","3.268262","9.213819","-0.070581","-0.005981","0.084937","-0.084937","-0.021533","0.065796"
"P","1617446324.6644282","7","-10","-3","-5","43","28","0.980896","0.165222","-0.083984","-0.058228","-0.007634","0.045802","-0.030534","1.488184","3.189307","9.249707","0.061011","-0.082544","0.123218","0.029907","-0.124414","0.095703"
"P","1617446324.6542406","7","-11","-1","-8","42","27","0.980835","0.165161","-0.085022","-0.057983","0","0.061069","-0.030534","1.623364","3.11394","9.27124","0.175854","-0.156714","0.14834","0.130396","-0.217725","0.111255"
"P","1617446324.644221","7","-10","-4","-8","47","31","0.980774","0.1651","-0.086182","-0.057678","-0.007634","0.061069","-0.038168","1.709497","3.075659","9.284399","0.239258","-0.194995","0.163892","0.186621","-0.267969","0.123218"
"P","1617446324.6341145","7","-10","-1","-6","43","29","0.980713","0.165283","-0.087158","-0.057373","-0.015267","0.045802","-0.038168","1.739404","3.105567","9.297559","0.248828","-0.168677","0.181836","0.193799","-0.250024","0.149536"
"P","1617446324.624273","7","-10","-3","-6","45","31","0.980591","0.165649","-0.087708","-0.057007","-0.022901","0.015267","-0.022901","1.695142","3.171362","9.277222","0.193799","-0.110059","0.166284","0.14834","-0.181836","0.147144"
"P","1617446324.6140623","7","-10","-1","-5","46","27","0.98053","0.166138","-0.087769","-0.056763","-0.030534","-0.015267","-0.007634","1.60542","3.24314","9.213819","0.102881","-0.046655","0.105273","0.076563","-0.090918","0.096899"
"P","1617446324.604111","7","-10","-1","-6","48","31","0.980469","0.166626","-0.087463","-0.056641","-0.022901","-0.022901","0","1.526465","3.307739","9.146826","0.029907","0.008374","0.040674","0.021533","-0.008374","0.044263"
"P","1617446324.5941336","7","-10","-1","-6","46","30","0.980408","0.167053","-0.087158","-0.05658","-0.022901","-0.015267","0","1.476221","3.375928","9.085815","-0.013159","0.068188","-0.016748","-0.003589","0.070581","0.004785"
"P","1617446324.5842412","7","-10","-1","-7","47","29","0.980408","0.167358","-0.087036","-0.05658","-0.022901","0","0","1.486987","3.457275","9.059497","0","0.144751","-0.04187","0.019141","0.14834","0.00957"
"P","1617446324.5741868","7","-10","1","-4","43","27","0.980347","0.167542","-0.087219","-0.056641","-0.015267","0.015267","0","1.514502","3.508716","9.077441","0.023926","0.192603","-0.022729","0.043066","0.184229","0.046655"
"P","1617446324.5643098","7","-10","-5","-6","47","30","0.980286","0.167542","-0.087585","-0.056702","-0.007634","0.030534","0","1.542017","3.521875","9.106153","0.044263","0.204565","0.007178","0.058618","0.183032","0.082544"
"P","1617446324.5542114","7","-10","0","-6","42","28","0.980286","0.167419","-0.088135","-0.056824","0","0.030534","0","1.585083","3.518286","9.154004","0.077759","0.203369","0.055029","0.081348","0.161499","0.131592"
"P","1617446324.5442164","7","-11","-1","-7","43","28","0.980225","0.167236","-0.088623","-0.057068","0","0.030534","0.007634","1.646094","3.505127","9.21023","0.130396","0.192603","0.112451","0.120825","0.12561","0.189014"
"P","1617446324.5341957","7","-10","-3","-6","44","30","0.980225","0.167114","-0.088989","-0.057312","0","0.007634","0.015267","1.666431","3.497949","9.250903","0.143555","0.186621","0.153125","0.12561","0.105273","0.227295"
"P","1617446324.524232","7","-10","0","-10","44","33","0.980225","0.167053","-0.088989","-0.057617","-0.007634","-0.007634","0.015267","1.636523","3.500342","9.268847","0.114844","0.19021","0.171069","0.094507","0.107666","0.240454"
"P","1617446324.514391","7","-11","0","-4","48","31","0.980225","0.167053","-0.088745","-0.057922","-0.007634","-0.022901","0.015267","1.58269","3.508716","9.283203","0.066992","0.197388","0.184229","0.045459","0.11604","0.247632"
"P","1617446324.5042138","7","-9","-3","-6","46","28","0.980225","0.167175","-0.088379","-0.058167","-0.007634","-0.022901","0.007634","1.559961","3.513501","9.276026","0.05144","0.19978","0.177051","0.0323","0.123218","0.239258"
"P","1617446324.4943662","7","-10","0","-8","47","28","0.980225","0.167236","-0.088196","-0.05835","-0.015267","-0.007634","0","1.583887","3.518286","9.282007","0.080151","0.203369","0.181836","0.059814","0.120825","0.248828"
"P","1617446324.4842796","7","-10","-1","-6","48","29","0.980164","0.167358","-0.088257","-0.05835","-0.015267","0.007634","-0.007634","1.631738","3.539819","9.31311","0.126807","0.223706","0.215332","0.100488","0.122021","0.294287"
"P","1617446324.4742825","7","-10","-3","-6","46","29","0.980164","0.167542","-0.088379","-0.058289","-0.015267","0.007634","-0.007634","1.655664","3.557764","9.334643","0.14834","0.238062","0.236865","0.118433","0.12561","0.322998"
"P","1617446324.464357","7","-10","-1","-6","46","28","0.980103","0.167603","-0.088562","-0.058228","-0.007634","0.007634","-0.015267","1.653271","3.551782","9.341822","0.142358","0.230884","0.246436","0.110059","0.117236","0.327783"
"P","1617446324.4544497","7","-10","-4","-20","45","26","0.980103","0.167603","-0.088562","-0.058105","0","-0.007634","-0.007634","1.618579","3.527856","9.326269","0.107666","0.206958","0.230884","0.077759","0.104077","0.300269"
"P","1617446324.4441404","7","-10","-3","-8","46","29","0.980164","0.16748","-0.088501","-0.058044","0","-0.007634","-0.007634","1.576709","3.489575","9.297559","0.066992","0.171069","0.200977","0.040674","0.086133","0.253613"
"P","1617446324.4344387","7","-10","-1","-6","47","28","0.980164","0.167419","-0.088501","-0.058044","-0.007634","-0.007634","-0.007634","1.598242","3.491968","9.327466","0.087329","0.174658","0.229687","0.055029","0.077759","0.284717"
"P","1617446324.4244304","7","-10","-3","-7","50","29","0.980164","0.167419","-0.088379","-0.057983","-0.007634","-0.015267","-0.007634","1.594653","3.481201","9.358569","0.086133","0.163892","0.260791","0.046655","0.057422","0.309839"
"P","1617446324.4142358","7","-7","-3","-6","44","31","0.980164","0.16748","-0.088135","-0.057922","-0.015267","-0.022901","0","1.543213","3.460864","9.369336","0.039478","0.142358","0.271558","-0.001196","0.040674","0.30625"
"P","1617446324.404302","7","-10","0","-6","46","30","0.980164","0.167664","-0.08783","-0.057983","-0.015267","-0.022901","0.007634","1.519287","3.45249","9.386084","0.021533","0.131592","0.288306","-0.022729","0.027515","0.314624"
"P","1617446324.394465","7","-10","-1","-6","47","29","0.980164","0.167847","-0.087463","-0.058044","-0.015267","-0.022901","0.007634","1.496558","3.451294","9.38728","0.007178","0.126807","0.289502","-0.037085","0.025122","0.312231"
"P","1617446324.3845358","7","-10","-1","-10","46","30","0.980164","0.168091","-0.087097","-0.058105","-0.015267","-0.022901","0.007634","1.477417","3.456079","9.371729","-0.003589","0.126807","0.27395","-0.044263","0.031104","0.29668"
"P","1617446324.3742695","7","-10","-3","-8","43","27","0.980103","0.168457","-0.086792","-0.058167","-0.022901","-0.022901","0.007634","1.461865","3.478809","9.344213","-0.013159","0.143555","0.248828","-0.047852","0.056226","0.277539"
"P","1617446324.3646097","7","-10","-3","-6","47","28","0.980042","0.168884","-0.086548","-0.058228","-0.038168","-0.015267","0","1.46665","3.533838","9.328662","-0.002393","0.19021","0.234473","-0.029907","0.102881","0.281128"
"P","1617446324.354354","7","-10","-2","-7","47","27","0.97998","0.169495","-0.086365","-0.058167","-0.038168","-0.022901","0","1.465454","3.60083","9.310718","0","0.246436","0.220117","-0.020337","0.159106","0.288306"
"P","1617446324.3444953","7","-10","-1","-10","43","29","0.979919","0.170044","-0.08606","-0.058105","-0.038168","-0.022901","0","1.440332","3.636719","9.274829","-0.017944","0.272754","0.186621","-0.028711","0.196191","0.263184"
"P","1617446324.334545","7","-10","-3","-10","47","27","0.979919","0.17041","-0.085754","-0.058044","-0.015267","-0.022901","-0.007634","1.41521","3.617578","9.228174","-0.037085","0.246436","0.141162","-0.04187","0.189014","0.209351"
"P","1617446324.32449","7","-10","-3","-6","44","29","0.979919","0.17041","-0.085632","-0.057983","0","-0.007634","0","1.436743","3.550586","9.19707","-0.013159","0.179443","0.110059","-0.017944","0.133984","0.161499"
"P","1617446324.314521","7","-10","-2","-6","42","31","0.979919","0.170166","-0.085632","-0.058044","0.015267","0","0.015267","1.519287","3.493164","9.205444","0.068188","0.126807","0.117236","0.055029","0.070581","0.161499"
"P","1617446324.3042686","7","-10","-3","-10","47","29","0.97998","0.169739","-0.085571","-0.058411","0.022901","-0.007634","0.022901","1.580298","3.426172","9.223389","0.130396","0.066992","0.131592","0.107666","0.001196","0.163892"
"P","1617446324.294399","7","-10","-2","-6","46","31","0.980103","0.16925","-0.085266","-0.058838","0.022901","-0.022901","0.022901","1.581494","3.355591","9.217407","0.137573","0.004785","0.120825","0.111255","-0.053833","0.133984"
"P","1617446324.2843983","7","-10","-4","-7","47","29","0.980164","0.168945","-0.084839","-0.059204","0.007634","-0.022901","0.015267","1.56355","3.332861","9.201856","0.129199","-0.010767","0.101685","0.10647","-0.061011","0.108862"
"P","1617446324.2743883","7","-10","-3","-6","44","29","0.980164","0.168884","-0.084473","-0.059509","-0.007634","-0.015267","0.007634","1.581494","3.385498","9.232959","0.155518","0.04187","0.131592","0.130396","-0.025122","0.15791"
"P","1617446324.264314","7","-10","-1","-6","48","27","0.980164","0.169128","-0.084106","-0.059692","-0.022901","-0.022901","0","1.583887","3.445312","9.250903","0.165088","0.096899","0.149536","0.142358","0.017944","0.194995"
"P","1617446324.2544637","7","-10","-3","-10","45","31","0.980164","0.169495","-0.083679","-0.059631","-0.030534","-0.038168","-0.007634","1.538428","3.511108","9.255689","0.128003","0.156714","0.155518","0.110059","0.077759","0.215332"
"P","1617446324.2444632","7","-11","-3","-10","48","31","0.980103","0.169922","-0.083069","-0.059509","-0.030534","-0.045802","-0.007634","1.46665","3.56853","9.247314","0.068188","0.206958","0.14834","0.057422","0.135181","0.217725"
"P","1617446324.2344468","7","-10","-5","-6","43","29","0.980103","0.170288","-0.082397","-0.059326","-0.022901","-0.045802","-0.007634","1.408032","3.590064","9.235352","0.022729","0.22251","0.137573","0.016748","0.159106","0.206958"
"P","1617446324.224331","7","-10","-1","-8","44","29","0.980164","0.17041","-0.081787","-0.059204","-0.007634","-0.038168","0","1.378125","3.554175","9.201856","0.003589","0.185425","0.101685","0.001196","0.13877","0.15791"
"P","1617446324.2143722","7","-10","-4","-4","46","29","0.980225","0.170288","-0.08136","-0.059204","0.007634","-0.022901","0.007634","1.390088","3.495557","9.180323","0.023926","0.129199","0.077759","0.020337","0.092114","0.119629"
"P","1617446324.2044404","7","-10","-3","-7","47","29","0.980286","0.169983","-0.081177","-0.059265","0.015267","-0.007634","0.007634","1.419995","3.436939","9.161181","0.057422","0.076563","0.056226","0.052637","0.044263","0.086133"
"P","1617446324.1943543","7","-10","-1","-8","48","29","0.980347","0.169617","-0.081055","-0.059509","0.022901","0","0.007634","1.461865","3.389087","9.158789","0.101685","0.034692","0.05144","0.093311","0","0.072974"
"P","1617446324.1845248","7","-10","-2","-5","47","30","0.980408","0.16925","-0.081055","-0.059692","0.022901","0.007634","0.007634","1.469043","3.356787","9.150415","0.108862","0.00957","0.040674","0.099292","-0.019141","0.055029"
"P","1617446324.1746454","7","-10","-3","-8","43","27","0.980408","0.168945","-0.081177","-0.059875","0.007634","0.015267","0","1.472632","3.363965","9.16836","0.110059","0.021533","0.057422","0.099292","-0.013159","0.075366"
"P","1617446324.164449","7","-10","-2","-7","47","32","0.980408","0.168884","-0.081299","-0.059937","-0.007634","0.007634","-0.007634","1.46665","3.423779","9.216211","0.101685","0.082544","0.105273","0.087329","0.027515","0.139966"
"P","1617446324.1543827","7","-10","-1","-7","47","31","0.980347","0.169128","-0.08136","-0.059937","-0.022901","-0.007634","0","1.412817","3.532642","9.265259","0.047852","0.186621","0.155518","0.034692","0.117236","0.214136"
"P","1617446324.1452668","7","-10","-1","-6","46","29","0.980286","0.169556","-0.081177","-0.059937","-0.038168","-0.030534","0","1.30874","3.635522","9.266455","-0.05144","0.282324","0.159106","-0.052637","0.220117","0.236865"
"P","1617446324.134352","7","-10","-3","-4","46","59","0.980286","0.170105","-0.080627","-0.059937","-0.038168","-0.045802","0.007634","1.201074","3.706104","9.226977","-0.147144","0.342139","0.120825","-0.133984","0.301465","0.209351"
"P","1617446324.1245134","7","-10","-2","-8","44","29","0.980225","0.170593","-0.080139","-0.059875","-0.038168","-0.038168","0.007634","1.158008","3.763525","9.180323","-0.18064","0.391187","0.076563","-0.154321","0.366064","0.18064"
"P","1617446324.1144042","7","-10","0","-10","46","31","0.980164","0.171082","-0.079895","-0.059937","-0.038168","-0.015267","0.007634","1.189111","3.794629","9.13606","-0.144751","0.413916","0.034692","-0.110059","0.395972","0.154321"
"P","1617446324.1052232","7","-10","0","-10","44","29","0.980103","0.171326","-0.080078","-0.059998","-0.022901","0.022901","0.007634","1.320703","3.771899","9.132471","-0.015552","0.386401","0.033496","0.013159","0.351709","0.161499"
"P","1617446324.0943658","7","-10","-1","12","44","29","0.980042","0.171326","-0.080627","-0.060181","-0.007634","0.045802","0","1.47981","3.692944","9.1552","0.132788","0.30625","0.057422","0.147144","0.247632","0.177051"
"P","1617446324.0845902","7","-10","-3","-8","47","28","0.97998","0.171082","-0.081482","-0.060303","0.007634","0.053435","-0.015267","1.620972","3.604419","9.19707","0.257202","0.221313","0.101685","0.252417","0.135181","0.205762"
"P","1617446324.0745296","7","-10","0","-7","48","31","0.97998","0.170776","-0.082397","-0.060303","0","0.053435","-0.015267","1.729834","3.563745","9.259277","0.34812","0.185425","0.163892","0.326587","0.068188","0.26438"
"P","1617446324.0650685","7","-10","-1","-7","46","31","0.979919","0.170654","-0.083069","-0.060181","-0.007634","0.030534","-0.022901","1.783667","3.582886","9.351392","0.388794","0.206958","0.258398","0.351709","0.052637","0.366064"
"P","1617446324.0544713","7","-10","-4","-6","43","28","0.97998","0.170593","-0.083191","-0.059998","0","-0.022901","-0.022901","1.701123","3.615185","9.417188","0.302661","0.240454","0.322998","0.258398","0.075366","0.424683"
"P","1617446324.0452914","7","-10","1","-10","46","26","0.980042","0.170532","-0.082458","-0.059692","0","-0.068702","-0.007634","1.46665","3.593652","9.368139","0.081348","0.221313","0.271558","0.049048","0.10647","0.33855"
"P","1617446324.034475","7","-10","0","-6","48","31","0.980103","0.170654","-0.081421","-0.059448","-0.007634","-0.068702","0","1.358984","3.628345","9.352588","-0.005981","0.25481","0.253613","-0.028711","0.155518","0.321802"
"P","1617446324.02511","7","-8","-2","-5","47","31","0.980225","0.170776","-0.080444","-0.059326","-0.015267","-0.053435","0","1.345825","3.666626","9.332251","0","0.291895","0.229687","-0.014355","0.197388","0.313428"
"P","1617446324.0150936","7","-10","-4","-6","47","28","0.980225","0.170837","-0.079773","-0.059204","-0.007634","-0.038168","0","1.381714","3.669019","9.310718","0.046655","0.293091","0.208154","0.034692","0.198584","0.300269"
"P","1617446324.005225","7","-10","-3","-7","47","31","0.980286","0.170837","-0.079468","-0.059143","0","-0.015267","0","1.463062","3.640308","9.283203","0.133984","0.265576","0.178247","0.123218","0.169873","0.275146"
"P","1617446323.9950645","7","-10","-3","-7","44","42","0.980286","0.170654","-0.079407","-0.059204","0.007634","0.007634","-0.007634","1.556372","3.596045","9.260473","0.228491","0.224902","0.155518","0.216528","0.126807","0.252417"
