timestamp,user_id,flex_1,flex_2,flex_3,flex_4,flex_5,Qw,Qx,Qy,Qz,GYRx,GYRy,GYRz,ACCx,ACCy,ACCz,ACCx_body,ACCy_body,ACCz_body,ACCx_world,ACCy_world,ACCz_world,Alphabet
1616135528.8283727,1,-5.0,3.0,-7.0,-12.0,-9.0,0.798523,0.477112,-0.366882,-0.0047,0.007634,-0.022901,-0.038168,6.00896,7.637109,2.813672,0.309839,0.135181,0.113647,0.112451,-0.123218,0.314624,please
1616135528.838159,1,-3.0,4.0,-8.0,-9.0,-7.0,0.79834,0.477478,-0.366943,-0.005188,0.007634,-0.022901,-0.038168,6.077148,7.651465,2.774194,0.382812,0.142358,0.081348,0.181836,-0.120825,0.352905,please
1616135528.8482242,1,-6.0,0.0,-11.0,-10.0,-9.0,0.798096,0.477783,-0.367004,-0.005554,0.007634,-0.015267,-0.038168,6.140552,7.669409,2.739502,0.451001,0.155518,0.053833,0.244043,-0.118433,0.394775,please
1616135528.8582702,1,-4.0,3.0,-8.0,-11.0,-7.0,0.797852,0.478149,-0.367004,-0.005798,0.015267,-0.007634,-0.030534,6.195581,7.68855,2.70481,0.509619,0.168677,0.026318,0.297876,-0.111255,0.43186,please
1616135528.8681917,1,-7.0,4.0,-7.0,-13.0,-6.0,0.797668,0.478516,-0.367004,-0.00592,0.015267,-0.007634,-0.030534,6.238647,7.718457,2.667725,0.556274,0.193799,-0.003589,0.342139,-0.092114,0.470142,please
1616135528.8781328,1,-4.0,1.0,-10.0,-11.0,-12.0,0.797424,0.478943,-0.366882,-0.005981,0.015267,0.0,-0.022901,6.255395,7.760327,2.639014,0.576611,0.230884,-0.025122,0.356494,-0.063403,0.503638,please
1616135528.8881936,1,-4.0,1.0,-7.0,-11.0,-6.0,0.797302,0.479248,-0.36676,-0.006042,0.007634,0.007634,-0.022901,6.257788,7.798608,2.631836,0.582593,0.265576,-0.028711,0.351709,-0.044263,0.533545,please
1616135528.8980885,1,-3.0,5.0,-4.0,-12.0,-10.0,0.797241,0.479492,-0.366516,-0.006104,0.007634,0.007634,-0.022901,6.239844,7.842871,2.628247,0.569434,0.30625,-0.031104,0.328979,-0.015552,0.556274,please
1616135528.908357,1,-5.0,5.0,-10.0,-9.0,-7.0,0.797241,0.479675,-0.366272,-0.006165,0.0,0.015267,-0.022901,6.207544,7.859619,2.624658,0.541919,0.319409,-0.034692,0.307446,0.002393,0.549097,please
1616135528.9182055,1,-5.0,3.0,-7.0,-10.0,-6.0,0.797302,0.479797,-0.366028,-0.006165,-0.007634,0.015267,-0.022901,6.165674,7.850049,2.613892,0.503638,0.307446,-0.046655,0.290698,0.019141,0.514404,please
1616135528.9281354,1,-3.0,4.0,-7.0,-8.0,-6.0,0.797363,0.479919,-0.365723,-0.006226,0.0,0.015267,-0.015267,6.116626,7.821338,2.606714,0.459375,0.276343,-0.056226,0.275146,0.025122,0.461768,please
1616135528.9384837,1,-6.0,3.0,-7.0,-12.0,-8.0,0.797424,0.480042,-0.36554,-0.006165,0.0,0.015267,-0.015267,6.080737,7.785449,2.600732,0.424683,0.238062,-0.063403,0.266772,0.022729,0.410327,please
1616135528.9481423,1,-5.0,2.0,-9.0,-12.0,-7.0,0.797363,0.480225,-0.365356,-0.006042,0.007634,0.007634,-0.007634,6.046045,7.76272,2.604321,0.392383,0.214136,-0.057422,0.247632,0.016748,0.375635,please
1616135528.9583418,1,-4.0,1.0,-10.0,-9.0,-8.0,0.797363,0.480408,-0.365234,-0.005859,0.007634,0.007634,-0.007634,6.014941,7.765112,2.611499,0.361279,0.214136,-0.050244,0.220117,0.022729,0.358887,please
1616135528.9681451,1,-4.0,1.0,-7.0,-10.0,-8.0,0.797241,0.480652,-0.365112,-0.005676,0.015267,0.007634,0.0,6.001782,7.796216,2.623462,0.349316,0.244043,-0.034692,0.192603,0.031104,0.379224,please
1616135528.9782982,1,-3.0,4.0,-8.0,-12.0,-6.0,0.797119,0.480896,-0.365051,-0.005432,0.015267,0.007634,0.0,5.988623,7.850049,2.618677,0.336157,0.297876,-0.035889,0.165088,0.065796,0.41272,please
1616135528.9880588,1,-3.0,1.0,-11.0,-12.0,-8.0,0.797058,0.481079,-0.36499,-0.00531,0.007634,0.007634,0.0,5.98623,7.923022,2.63064,0.333765,0.368457,-0.021533,0.130396,0.093311,0.470142,please
1616135528.9982412,1,-5.0,3.0,-10.0,-13.0,-7.0,0.797058,0.48114,-0.364929,-0.005188,0.0,0.007634,0.0,5.985034,7.985229,2.631836,0.332568,0.430664,-0.020337,0.107666,0.126807,0.517993,please
1616135529.0081992,1,1.0,0.0,-7.0,-2.0,-6.0,0.797058,0.48114,-0.364868,-0.005127,-0.007634,0.007634,0.0,5.979053,8.021118,2.631836,0.326587,0.467749,-0.020337,0.090918,0.14834,0.543115,please
1616135529.0174718,1,-4.0,4.0,-7.0,-9.0,-6.0,0.797119,0.481018,-0.364807,-0.005066,-0.015267,0.007634,0.0,5.959912,8.048633,2.636621,0.307446,0.49646,-0.017944,0.065796,0.169873,0.553882,please
1616135529.0283206,1,-3.0,3.0,-12.0,-12.0,-7.0,0.797241,0.480896,-0.364746,-0.005005,-0.015267,0.0,0.0,5.941968,8.052221,2.641406,0.289502,0.501245,-0.016748,0.050244,0.178247,0.5479,please
1616135529.0382197,1,-4.0,1.0,-9.0,-12.0,-6.0,0.797302,0.480713,-0.364807,-0.005005,-0.015267,-0.007634,0.007634,5.924024,8.042651,2.658154,0.269165,0.494067,-0.002393,0.028711,0.169873,0.534741,please
1616135529.0477304,1,-3.0,1.0,-11.0,-9.0,-8.0,0.797363,0.48053,-0.36499,-0.005005,-0.015267,-0.007634,0.007634,5.896509,8.015137,2.665332,0.239258,0.468945,0.002393,0.013159,0.163892,0.498853,please
1616135529.0580735,1,-3.0,3.0,-10.0,-14.0,-7.0,0.797363,0.480408,-0.365234,-0.004944,-0.007634,-0.015267,0.015267,5.877368,7.976855,2.671314,0.215332,0.433057,0.008374,0.003589,0.14834,0.459375,please
1616135529.0683117,1,-4.0,1.0,-10.0,-9.0,-6.0,0.797241,0.480286,-0.36554,-0.004883,-0.007634,-0.022901,0.015267,5.857031,7.961304,2.673706,0.19021,0.421094,0.014355,-0.013159,0.147144,0.437842,please
1616135529.0774002,1,-3.0,4.0,-6.0,-10.0,-6.0,0.797119,0.480225,-0.365906,-0.004761,0.0,-0.022901,0.015267,5.848657,7.9625,2.676099,0.175854,0.424683,0.020337,-0.028711,0.149536,0.433057,please
1616135529.0873733,1,-6.0,2.0,-11.0,-11.0,-7.0,0.796997,0.480164,-0.366333,-0.004639,0.0,-0.022901,0.015267,5.833106,7.980444,2.676099,0.153125,0.446216,0.025122,-0.056226,0.166284,0.437842,please
1616135529.097477,1,-4.0,4.0,-7.0,-10.0,-11.0,0.796814,0.480103,-0.366699,-0.004639,-0.007634,-0.022901,0.015267,5.829516,8.00437,2.667725,0.145947,0.472534,0.021533,-0.068188,0.185425,0.453394,please
1616135529.1081853,1,-5.0,4.0,-10.0,-10.0,-8.0,0.796753,0.479919,-0.367126,-0.0047,-0.015267,-0.022901,0.015267,5.840283,8.028296,2.648584,0.150732,0.498853,0.004785,-0.0646,0.210547,0.471338,please
1616135529.117413,1,-6.0,4.0,-6.0,-13.0,-6.0,0.796692,0.479736,-0.367493,-0.004883,-0.022901,-0.022901,0.007634,5.853442,8.033081,2.615088,0.160303,0.50603,-0.026318,-0.04187,0.234473,0.47373,please
1616135529.1281302,1,-7.0,3.0,-7.0,-10.0,-6.0,0.796631,0.479553,-0.367859,-0.005005,-0.022901,-0.022901,0.007634,5.868994,8.015137,2.582788,0.172266,0.490479,-0.056226,-0.00957,0.245239,0.460571,please
1616135529.1379926,1,-5.0,4.0,-8.0,-11.0,-9.0,0.796631,0.47937,-0.368164,-0.005127,-0.022901,-0.022901,0.007634,5.889331,7.985229,2.555274,0.187817,0.462964,-0.08374,0.026318,0.245239,0.441431,please
1616135529.1473818,1,-4.0,4.0,-8.0,-9.0,-6.0,0.79657,0.479187,-0.36853,-0.005249,-0.015267,-0.022901,0.007634,5.906079,7.946948,2.540918,0.200977,0.427075,-0.095703,0.055029,0.230884,0.418701,please
1616135529.1575084,1,-7.0,4.0,-8.0,-8.0,-2.0,0.796509,0.479004,-0.368835,-0.00531,-0.015267,-0.022901,0.007634,5.913257,7.912256,2.531348,0.204565,0.394775,-0.104077,0.07417,0.217725,0.393579,please
1616135529.1674068,1,-9.0,5.0,-8.0,-9.0,-7.0,0.796387,0.478943,-0.369141,-0.005371,-0.007634,-0.015267,0.007634,5.916846,7.887134,2.525366,0.204565,0.372046,-0.10647,0.082544,0.206958,0.375635,please
1616135529.1774108,1,-5.0,4.0,-8.0,-10.0,-6.0,0.796265,0.478943,-0.369446,-0.005432,-0.007634,-0.015267,0.0,5.926416,7.87876,2.526562,0.210547,0.363672,-0.101685,0.087329,0.197388,0.373242,please
1616135529.1873262,1,-5.0,3.0,-8.0,-9.0,-8.0,0.796143,0.478943,-0.36969,-0.005493,-0.007634,-0.015267,0.0,5.94436,7.893115,2.538525,0.226099,0.379224,-0.084937,0.082544,0.186621,0.399561,please
1616135529.1976285,1,-3.0,4.0,-8.0,-13.0,-6.0,0.796082,0.478943,-0.369873,-0.005493,-0.007634,-0.015267,0.0,5.968286,7.917041,2.549292,0.247632,0.403149,-0.072974,0.08374,0.183032,0.433057,please
1616135529.207382,1,-3.0,4.0,-7.0,-9.0,-9.0,0.796021,0.478943,-0.369995,-0.005554,-0.007634,-0.007634,0.0,5.988623,7.933789,2.567236,0.267969,0.419897,-0.052637,0.080151,0.168677,0.46416,please
1616135529.217403,1,-6.0,5.0,-8.0,-9.0,-8.0,0.796021,0.478943,-0.370056,-0.005676,-0.007634,-0.007634,-0.007634,5.98982,7.9625,2.597144,0.269165,0.448608,-0.022729,0.053833,0.161499,0.494067,please
1616135529.227596,1,-4.0,3.0,-11.0,-59.0,-3.0,0.796082,0.478821,-0.369934,-0.005798,-0.022901,0.0,-0.007634,5.974267,8.010351,2.66294,0.256006,0.49646,0.039478,-0.008374,0.144751,0.539526,please
1616135529.2373116,1,-4.0,5.0,-8.0,-10.0,-6.0,0.796326,0.478577,-0.369751,-0.006042,-0.030534,0.0,-0.007634,5.961108,8.060596,2.745483,0.246436,0.546704,0.114844,-0.076563,0.118433,0.593359,please
1616135529.2479155,1,-3.0,3.0,-7.0,-20.0,-7.0,0.796692,0.47821,-0.369446,-0.006348,-0.038168,0.007634,-0.015267,5.953931,8.097681,2.823242,0.244043,0.583789,0.18064,-0.130396,0.090918,0.637622,please
1616135529.257429,1,-4.0,3.0,-10.0,-10.0,-9.0,0.797058,0.477783,-0.369141,-0.006653,-0.038168,0.007634,-0.015267,5.950342,8.123999,2.902197,0.245239,0.611304,0.247632,-0.177051,0.055029,0.678296,please
1616135529.2673054,1,-5.0,1.0,-11.0,-21.0,-6.0,0.797485,0.477295,-0.368896,-0.006958,-0.045802,0.007634,-0.007634,5.965894,8.169458,2.990723,0.26438,0.657959,0.322998,-0.223706,0.016748,0.745288,please
1616135529.2772882,1,-6.0,1.0,-8.0,-12.0,-8.0,0.797974,0.476624,-0.368652,-0.007263,-0.053435,0.0,-0.007634,5.98982,8.224487,3.051733,0.290698,0.716577,0.368457,-0.251221,0.005981,0.818262,please
1616135529.2874885,1,-7.0,4.0,-10.0,-10.0,-6.0,0.798523,0.475891,-0.368469,-0.007568,-0.061069,0.007634,0.0,6.071167,8.248413,3.101978,0.374438,0.745288,0.401953,-0.218921,-0.031104,0.898413,please
1616135529.297367,1,-4.0,5.0,-8.0,-9.0,-6.0,0.799072,0.475037,-0.368408,-0.007629,-0.053435,0.007634,0.015267,6.195581,8.244824,3.13667,0.49646,0.748877,0.419897,-0.141162,-0.084937,0.977368,please
1616135529.307454,1,-3.0,4.0,-10.0,-8.0,-6.0,0.799622,0.474182,-0.368347,-0.007324,-0.045802,0.022901,0.022901,6.343921,8.224487,3.158203,0.638818,0.739307,0.424683,-0.037085,-0.143555,1.053931,please
1616135529.3172622,1,-5.0,4.0,-6.0,-13.0,-9.0,0.80011,0.473389,-0.368286,-0.006592,-0.038168,0.038168,0.038168,6.534131,8.219702,3.180933,0.819458,0.747681,0.43186,0.086133,-0.205762,1.168774,please
1616135529.327252,1,-3.0,7.0,-4.0,-12.0,-6.0,0.800659,0.472534,-0.368225,-0.005554,-0.030534,0.053435,0.053435,6.761426,8.241236,3.195288,1.033594,0.784766,0.429468,0.230884,-0.257202,1.321899,please
1616135529.33747,1,-4.0,3.0,-8.0,-13.0,37.0,0.80127,0.471558,-0.368164,-0.004028,-0.030534,0.068702,0.068702,7.035376,8.250806,3.218018,1.2896,0.815869,0.433057,0.404346,-0.328979,1.497754,please
1616135529.3474166,1,-5.0,1.0,-12.0,-11.0,-6.0,0.802002,0.470398,-0.368042,-0.002136,-0.038168,0.091603,0.083969,7.352393,8.212524,3.225195,1.586279,0.80271,0.417505,0.632837,-0.421094,1.659253,please
1616135529.3575983,1,-1.0,5.0,-10.0,-10.0,-7.0,0.802856,0.469116,-0.36792,0.000183,-0.038168,0.10687,0.10687,7.704102,8.100073,3.213233,1.91167,0.71897,0.379224,0.921143,-0.541919,1.780078,please
1616135529.3674395,1,-5.0,1.0,-10.0,-9.0,-6.0,0.803711,0.467651,-0.367737,0.003113,-0.030534,0.129771,0.122137,8.080933,7.949341,3.195288,2.258594,0.604126,0.332568,1.240552,-0.675903,1.891333,please
1616135529.377511,1,-5.0,4.0,-10.0,-12.0,-8.0,0.804688,0.466125,-0.367554,0.006592,-0.022901,0.152672,0.137405,8.435034,7.76272,3.154614,2.576807,0.458179,0.260791,1.564746,-0.79314,1.958325,please
1616135529.3875103,1,-4.0,4.0,-6.0,-9.0,-7.0,0.805664,0.4646,-0.36731,0.010559,-0.015267,0.183206,0.160305,8.746069,7.550977,3.076855,2.84956,0.289502,0.151929,1.887744,-0.874487,1.973877,please
1616135529.39739,1,0.0,1.0,-11.0,-10.0,-6.0,0.806641,0.462952,-0.366943,0.015076,-0.007634,0.206107,0.183206,8.984131,7.290185,2.953638,3.045752,0.078955,-0.004785,2.197583,-0.911572,1.9021,please
1616135529.4075568,1,-6.0,4.0,-11.0,-17.0,-9.0,0.807739,0.461304,-0.366455,0.020142,0.0,0.236641,0.198473,9.133667,6.96958,2.774194,3.149829,-0.187817,-0.221313,2.496655,-0.900806,1.717871,please
1616135529.417472,1,-6.0,0.0,-27.0,-10.0,-8.0,0.808777,0.459778,-0.365784,0.025818,0.015267,0.267176,0.21374,9.20664,6.576001,2.544507,3.174951,-0.526367,-0.489282,2.796924,-0.864917,1.419995,please
1616135529.427377,1,-4.0,4.0,-10.0,-9.0,-8.0,0.809753,0.458374,-0.364868,0.031982,0.038168,0.29771,0.221374,9.203052,6.129785,2.275342,3.124707,-0.916357,-0.796728,3.086426,-0.801514,1.028809,please
1616135529.437436,1,-7.0,4.0,-7.0,-8.0,-7.0,0.810608,0.457336,-0.363525,0.038574,0.068702,0.335878,0.221374,9.098974,5.665625,2.004981,2.976367,-1.325488,-1.104175,3.314917,-0.720166,0.562256,please
1616135529.4475265,1,-3.0,1.0,-11.0,-11.0,-8.0,0.811462,0.456726,-0.361633,0.045532,0.099237,0.374046,0.21374,8.909961,5.142847,1.742993,2.750268,-1.798023,-1.404443,3.511108,-0.657959,0.003589,please
1616135529.4573348,1,-5.0,5.0,-8.0,-10.0,-6.0,0.812195,0.456665,-0.359131,0.052795,0.145038,0.412214,0.198473,8.628833,4.573413,1.47981,2.439233,-2.32439,-1.703516,3.669019,-0.604126,-0.648389,please
1616135529.4673462,1,-3.0,4.0,-10.0,-13.0,-8.0,0.812744,0.457336,-0.355835,0.060242,0.198473,0.450382,0.167939,8.242432,3.999194,1.239355,2.033691,-2.865112,-1.978662,3.751563,-0.552686,-1.367358,please
1616135529.4772966,1,-4.0,2.0,-6.0,-8.0,-8.0,0.813049,0.458923,-0.351685,0.067749,0.259542,0.473282,0.129771,7.738794,3.477612,1.052734,1.524072,-3.367554,-2.193994,3.708496,-0.500049,-2.112647,please
1616135529.4872236,1,-4.0,4.0,-7.0,-10.0,-6.0,0.81311,0.461548,-0.34668,0.07489,0.312977,0.48855,0.076336,7.10835,3.151025,0.971387,0.905591,-3.695337,-2.296875,3.445312,-0.415112,-2.774194,please
1616135529.4972956,1,-7.0,4.0,-7.0,-11.0,-10.0,0.813049,0.465027,-0.340637,0.081116,0.343511,0.48855,0.0,6.325976,3.105567,1.024023,0.15791,-3.762329,-2.262183,2.889038,-0.278735,-3.295776,please
1616135529.5075002,1,-6.0,1.0,-7.0,-10.0,-6.0,0.813171,0.469116,-0.333557,0.085815,0.320611,0.473282,-0.091603,5.445508,3.344824,1.189111,-0.659155,-3.570923,-2.116235,2.089917,-0.095703,-3.643897,please
1616135529.5174234,1,-3.0,3.0,-10.0,-12.0,-11.0,0.813721,0.473145,-0.325684,0.088562,0.267176,0.450382,-0.183206,4.514795,3.728833,1.402051,-1.500147,-3.251514,-1.929614,1.172363,0.098096,-3.892725,please
1616135529.5274868,1,-4.0,3.0,-11.0,-10.0,-6.0,0.814758,0.477112,-0.317078,0.089172,0.198473,0.419847,-0.282443,3.541016,4.280322,1.638916,-2.355493,-2.783765,-1.727441,0.147144,0.33855,-4.017138,please
1616135529.537421,1,-6.0,1.0,-8.0,-16.0,-7.0,0.816345,0.480835,-0.3078,0.087402,0.122137,0.389313,-0.396947,2.585181,4.9646,1.839893,-3.162988,-2.201172,-1.570728,-0.891235,0.651978,-4.011157,please
1616135529.5473316,1,-3.0,4.0,-6.0,-10.0,-6.0,0.818298,0.484314,-0.297974,0.083435,0.061069,0.351145,-0.48855,1.750171,5.640503,1.984644,-3.819751,-1.638916,-1.476221,-1.789648,0.976172,-3.909473,please
1616135529.5574462,1,-7.0,4.0,-8.0,-12.0,-9.0,0.820435,0.487671,-0.287964,0.078003,0.030534,0.320611,-0.549618,1.081445,6.191992,2.095898,-4.294678,-1.209448,-1.416406,-2.472729,1.233374,-3.776685,please
1616135529.567377,1,-5.0,3.0,-8.0,-7.0,-6.0,0.822205,0.491394,-0.278015,0.071838,0.053435,0.282443,-0.580153,0.519189,6.7052,2.172461,-4.652368,-0.821851,-1.378125,-3.0302,1.472632,-3.585278,please
1616135529.5773888,1,-5.0,4.0,-6.0,-8.0,-7.0,0.823181,0.496033,-0.268188,0.065613,0.137405,0.259542,-0.580153,0.00957,7.164575,2.252612,-4.955029,-0.492871,-1.313525,-3.519482,1.655664,-3.373535,please
1616135529.5872643,1,-5.0,3.0,-10.0,-11.0,-8.0,0.822876,0.502258,-0.258728,0.060059,0.290076,0.221374,-0.534351,-0.44502,7.594043,2.405737,-5.208642,-0.200977,-1.136475,-3.984839,1.715479,-3.101978,please
1616135529.597463,1,-5.0,1.0,-8.0,-8.0,-6.0,0.82074,0.51062,-0.250061,0.055542,0.473282,0.167939,-0.465649,-0.881665,8.193384,2.623462,-5.459863,0.251221,-0.839795,-4.532739,1.741797,-2.643799,please
1616135529.6072314,1,-6.0,4.0,-7.0,-9.0,-8.0,0.816833,0.520752,-0.242615,0.052063,0.618321,0.091603,-0.374046,-1.256104,9.114527,2.869897,-5.671607,1.024023,-0.460571,-5.160791,1.817163,-1.866211,please
1616135529.617389,1,-8.0,1.0,-8.0,-10.0,-7.0,0.811584,0.531738,-0.236755,0.049255,0.687023,0.0,-0.274809,-1.534839,10.300049,3.128296,-5.813965,2.06958,-0.029907,-5.80918,1.914062,-0.809888,please
1616135529.6273558,1,-5.0,3.0,-7.0,-8.0,-7.0,0.805847,0.542358,-0.23291,0.046509,0.656489,-0.10687,-0.19084,-1.701123,11.466431,3.421387,-5.873779,3.111548,0.449805,-6.376221,1.908081,0.287109,please
1616135529.6372795,1,-6.0,4.0,-10.0,-8.0,-7.0,0.800232,0.551697,-0.230957,0.043335,0.580153,-0.206107,-0.137405,-1.774097,12.364843,3.647485,-5.864209,3.90708,0.858936,-6.759033,1.825537,1.167578,please
1616135529.647194,1,-6.0,1.0,-11.0,-12.0,-6.0,0.794983,0.559631,-0.230713,0.039124,0.473282,-0.312977,-0.122137,-1.717871,12.983325,3.764722,-5.740991,4.439429,1.146045,-6.903784,1.728638,1.818359,please
1616135529.657239,1,-6.0,4.0,-10.0,-8.0,-6.0,0.790283,0.566101,-0.231873,0.033875,0.366412,-0.40458,-0.137405,-1.481006,13.287183,3.787451,-5.4479,4.671509,1.323096,-6.759033,1.599438,2.233472,please
1616135529.667292,1,-5.0,4.0,-7.0,-11.0,-6.0,0.786255,0.571045,-0.234253,0.027466,0.251908,-0.473282,-0.152672,-1.128101,13.339819,3.682178,-5.044751,4.665527,1.349414,-6.386987,1.516895,2.433252,please
1616135529.677307,1,-6.0,3.0,-6.0,-13.0,-11.0,0.782715,0.57489,-0.237305,0.020203,0.175573,-0.51145,-0.183206,-0.683081,13.106543,3.380713,-4.550683,4.380811,1.162793,-5.772095,1.520483,2.36626,please
1616135529.6874487,1,-7.0,4.0,-8.0,-10.0,-6.0,0.779236,0.578369,-0.241028,0.012451,0.152672,-0.541985,-0.206107,-0.108862,12.706983,2.950049,-3.931006,3.932202,0.84458,-4.950244,1.552783,2.168872,please
1616135529.6971362,1,-7.0,4.0,-10.0,-9.0,-7.0,0.775269,0.582031,-0.245178,0.004761,0.175573,-0.549618,-0.21374,0.596948,12.350489,2.441626,-3.182129,3.529053,0.459375,-4.00398,1.606616,2.042065,please
1616135529.707098,1,-5.0,3.0,-8.0,-13.0,-6.0,0.770935,0.585938,-0.249695,-0.002441,0.198473,-0.541985,-0.206107,1.384106,12.174634,1.867407,-2.360278,3.308936,0.017944,-3.027808,1.719067,2.094702,please
1616135529.7173066,1,-8.0,3.0,-11.0,-9.0,-8.0,0.766174,0.590027,-0.254333,-0.008972,0.221374,-0.519084,-0.183206,2.228687,12.244019,1.361377,-1.485791,3.338843,-0.345728,-2.110254,1.789648,2.409326,please
1616135529.727297,1,-7.0,1.0,-11.0,-10.0,-7.0,0.761414,0.593994,-0.259094,-0.014648,0.206107,-0.480916,-0.152672,3.098389,12.442602,0.881665,-0.596948,3.502734,-0.685474,-1.233374,1.841089,2.859131,please
1616135529.7372437,1,-6.0,2.0,-8.0,-12.0,-6.0,0.756958,0.597412,-0.263855,-0.019165,0.198473,-0.427481,-0.10687,4.111646,12.590942,0.606519,0.421094,3.628345,-0.831421,-0.324194,1.632935,3.354394,please
1616135529.747308,1,-7.0,4.0,-8.0,-11.0,-7.0,0.752808,0.600525,-0.268494,-0.022217,0.21374,-0.358779,-0.068702,5.138062,12.58855,0.489282,1.436743,3.6104,-0.827832,0.540723,1.229785,3.738403,please
1616135529.7571774,1,-6.0,0.0,-10.0,-10.0,-8.0,0.748718,0.603516,-0.272949,-0.023865,0.251908,-0.29771,-0.038168,6.049634,12.472509,0.447412,2.325586,3.487183,-0.75127,1.280029,0.762036,3.988428,please
1616135529.7673154,1,-5.0,3.0,-6.0,-10.0,-6.0,0.74469,0.606628,-0.277039,-0.024475,0.267176,-0.251908,-0.015267,6.796118,12.328955,0.462964,3.043359,3.341235,-0.618481,1.843481,0.294287,4.160693,please
1616135529.7771764,1,-6.0,1.0,-5.0,-9.0,-7.0,0.741028,0.609375,-0.280884,-0.024231,0.244275,-0.206107,0.015267,7.427759,12.281103,0.58977,3.636719,3.296973,-0.384009,2.219116,-0.189014,4.390381,please
1616135529.787193,1,-8.0,2.0,-9.0,-10.0,-7.0,0.737915,0.611572,-0.284485,-0.023499,0.221374,-0.167939,0.038168,7.950537,12.349292,0.735718,4.117627,3.372339,-0.147144,2.455981,-0.598145,4.685864,please
1616135529.797148,1,-7.0,4.0,-11.0,-11.0,-7.0,0.735657,0.612671,-0.287781,-0.022583,0.129771,-0.145038,0.053435,8.421875,12.547876,0.897217,4.543506,3.585278,0.077759,2.605518,-0.931909,5.083032,please
1616135529.8072524,1,-6.0,3.0,-10.0,-10.0,-7.0,0.73468,0.612488,-0.290894,-0.02179,0.030534,-0.122137,0.053435,8.931494,12.693823,1.124512,5.004077,3.74917,0.334961,2.783765,-1.307544,5.453882,please
1616135529.817302,1,-6.0,3.0,-10.0,-8.0,-6.0,0.734924,0.610779,-0.293823,-0.021057,-0.083969,-0.099237,0.061069,9.492554,12.641187,1.351807,5.511304,3.721655,0.556274,3.079248,-1.69873,5.67041,please
1616135529.8272572,1,-5.0,4.0,-10.0,-10.0,-7.0,0.736267,0.607849,-0.296631,-0.020203,-0.167939,-0.068702,0.068702,10.081128,12.418676,1.547998,6.040063,3.529053,0.714185,3.474023,-2.06958,5.750562,please
1616135529.8373911,1,-7.0,1.0,-10.0,-11.0,-8.0,0.738525,0.603821,-0.299316,-0.018982,-0.244275,-0.030534,0.083969,10.61587,12.121997,1.672412,6.507812,3.269458,0.773999,3.886743,-2.332764,5.751758,please
1616135529.8472335,1,-3.0,1.0,-7.0,-8.0,-7.0,0.741516,0.598877,-0.301819,-0.017456,-0.320611,0.007634,0.10687,11.059692,11.881543,1.739404,6.877466,3.073267,0.754858,4.233667,-2.45957,5.772095,please
1616135529.8572044,1,-7.0,4.0,-7.0,-9.0,-6.0,0.745544,0.592773,-0.304138,-0.015625,-0.412214,0.053435,0.137405,11.359961,11.639893,1.793237,7.096387,2.884253,0.692651,4.478906,-2.472729,5.740991,please
1616135529.8672092,1,-7.0,4.0,-6.0,-9.0,-7.0,0.750671,0.585327,-0.30603,-0.013489,-0.51145,0.10687,0.167939,11.484375,11.336035,1.826733,7.135864,2.642602,0.577808,4.628442,-2.372241,5.583081,please
1616135529.8771806,1,-8.0,3.0,-10.0,-13.0,-9.0,0.756897,0.576599,-0.307373,-0.011047,-0.610687,0.167939,0.198473,11.428149,10.852735,1.857837,6.99231,2.231079,0.425879,4.710986,-2.216724,5.188306,please
1616135529.8871648,1,-7.0,1.0,-10.0,-16.0,-11.0,0.763977,0.566772,-0.308167,-0.008301,-0.679389,0.221374,0.21374,11.198462,10.182813,1.892529,6.675293,1.644897,0.250024,4.731323,-2.043262,4.554273,please
1616135529.8971834,1,-6.0,4.0,-10.0,-10.0,-8.0,0.771606,0.556274,-0.30835,-0.005127,-0.709924,0.274809,0.229008,10.808472,9.365747,1.95354,6.200366,0.921143,0.082544,4.671509,-1.894922,3.724048,please
1616135529.9073565,1,-5.0,1.0,-8.0,-12.0,-6.0,0.77948,0.54541,-0.308044,-0.001648,-0.709924,0.305344,0.244275,10.351489,8.407519,2.071973,5.662036,0.0646,-0.037085,4.582983,-1.859033,2.755054,please
1616135529.9166312,1,-8.0,0.0,-8.0,-10.0,-9.0,0.787048,0.534546,-0.307678,0.00238,-0.687023,0.320611,0.274809,9.834692,7.421777,2.193994,5.062696,-0.808691,-0.14834,4.443017,-1.867407,1.748975,please
1616135529.9264908,1,-8.0,1.0,-8.0,-13.0,-7.0,0.794128,0.52417,-0.307434,0.006897,-0.618321,0.312977,0.29771,9.30354,6.470727,2.345923,4.446607,-1.646094,-0.215332,4.256396,-1.945166,0.783569,please
1616135529.9364183,1,-5.0,3.0,-7.0,-9.0,-6.0,0.800415,0.514404,-0.307434,0.01178,-0.541985,0.290076,0.320611,8.726929,5.626147,2.489478,3.785058,-2.372241,-0.270361,3.992017,-2.016943,-0.102881,please
1616135529.94638,1,-4.0,1.0,-7.0,-9.0,-8.0,0.805908,0.505371,-0.3078,0.017151,-0.473282,0.267176,0.351145,8.21731,4.946655,2.635425,3.184521,-2.932105,-0.300269,3.715674,-2.086328,-0.81228,please
1616135529.956396,1,-7.0,0.0,-6.0,-9.0,-8.0,0.810791,0.496887,-0.308472,0.023193,-0.419847,0.267176,0.396947,7.850049,4.432251,2.824439,2.721558,-3.323291,-0.270361,3.472827,-2.188013,-1.290796,please
1616135529.9666014,1,-8.0,3.0,-10.0,-11.0,-8.0,0.815247,0.488647,-0.309204,0.030212,-0.366412,0.29771,0.442748,7.554565,4.005176,3.021826,2.32439,-3.618774,-0.22251,3.25271,-2.289697,-1.648486,please
1616135529.9765365,1,-6.0,3.0,-10.0,-13.0,-9.0,0.819458,0.480774,-0.30957,0.038269,-0.312977,0.335878,0.473282,7.236352,3.59126,3.101978,1.903296,-3.89751,-0.288306,3.07207,-2.296875,-2.042065,please
1616135529.9862971,1,-9.0,4.0,-11.0,-9.0,-6.0,0.823059,0.473999,-0.309204,0.046936,-0.236641,0.381679,0.465649,6.849951,3.299365,3.103174,1.42478,-4.062598,-0.417505,2.843579,-2.188013,-2.412915,please
1616135529.9964788,1,-3.0,3.0,-8.0,-10.0,-8.0,0.82605,0.468567,-0.308044,0.055908,-0.129771,0.419847,0.435115,6.439624,2.97876,3.02063,0.937891,-4.269556,-0.614893,2.660547,-2.054028,-2.859131,please
1616135530.0064125,1,-3.0,5.0,-4.0,-10.0,-7.0,0.828125,0.465149,-0.305908,0.065002,0.0,0.435115,0.389313,6.004175,2.885449,2.973975,0.446216,-4.274341,-0.750073,2.369849,-1.859033,-3.154614,please
1616135530.0164404,1,-5.0,3.0,-8.0,-9.0,-7.0,0.829468,0.463257,-0.30304,0.073608,0.076336,0.427481,0.343511,5.517285,3.070874,2.940479,-0.076563,-4.02312,-0.851758,1.928418,-1.546802,-3.28501,please
1616135530.0263944,1,-3.0,3.0,-8.0,-13.0,-7.0,0.830261,0.462646,-0.299805,0.081482,0.129771,0.396947,0.290076,5.008862,3.430957,2.922534,-0.607715,-3.618774,-0.91875,1.390088,-1.18313,-3.311328,please
1616135530.036584,1,-7.0,4.0,-7.0,-14.0,-6.0,0.830688,0.462769,-0.296692,0.088135,0.137405,0.335878,0.251908,4.490869,3.885547,2.91416,-1.138867,-3.135474,-0.963013,0.795532,-0.806299,-3.281421,please
1616135530.046586,1,-8.0,0.0,-10.0,-12.0,-9.0,0.830811,0.463196,-0.293884,0.093628,0.129771,0.274809,0.21374,3.980054,4.328174,2.921338,-1.654468,-2.674902,-0.979761,0.197388,-0.478516,-3.25271,please
1616135530.0564687,1,-6.0,3.0,-8.0,-9.0,-6.0,0.830811,0.463806,-0.291504,0.098022,0.114504,0.21374,0.175573,3.466846,4.789941,2.826831,-2.170068,-2.202368,-1.089819,-0.375635,-0.076563,-3.255103,please
1616135530.0666056,1,-7.0,0.0,-7.0,-15.0,-7.0,0.830566,0.464844,-0.28949,0.101196,0.10687,0.152672,0.129771,2.969189,5.227783,2.678491,-2.665332,-1.764526,-1.242944,-0.911572,0.334961,-3.288599,please
1616135530.0764103,1,-9.0,3.0,-3.0,-12.0,-7.0,0.830139,0.466309,-0.287598,0.103271,0.114504,0.114504,0.083969,2.453589,5.572314,2.555274,-3.16897,-1.431958,-1.360181,-1.428369,0.661548,-3.385498,please
1616135530.0863554,1,-4.0,5.0,-7.0,-9.0,-6.0,0.82959,0.468262,-0.285583,0.104431,0.122137,0.083969,0.030534,1.936792,5.821143,2.438037,-3.664233,-1.207056,-1.464258,-1.903296,0.91875,-3.543408,please
1616135530.096486,1,11.0,4.0,-6.0,-10.0,-7.0,0.828796,0.471008,-0.283142,0.104736,0.175573,0.068702,-0.030534,1.473828,5.973071,2.3854,-4.092505,-1.095801,-1.492969,-2.310034,1.049145,-3.704907,please
1616135530.1063955,1,-8.0,4.0,-7.0,-8.0,-7.0,0.827637,0.474854,-0.280273,0.104492,0.244275,0.061069,-0.091603,1.038379,6.075952,2.313623,-4.480103,-1.052734,-1.526465,-2.658154,1.15083,-3.886743,please
1616135530.1164043,1,-3.0,1.0,-7.0,-18.0,-7.0,0.825806,0.480164,-0.276917,0.10376,0.328244,0.045802,-0.137405,0.632837,6.291284,2.247827,-4.824634,-0.916357,-1.528857,-3.032593,1.282422,-3.950146,please
1616135530.1265054,1,-7.0,4.0,-7.0,-9.0,-6.0,0.823303,0.486755,-0.273254,0.1026,0.396947,0.022901,-0.167939,0.299072,6.61189,2.228687,-5.089014,-0.692651,-1.463062,-3.408227,1.398462,-3.86521,please
1616135530.1364803,1,-4.0,1.0,-6.0,-10.0,-8.0,0.820312,0.494202,-0.269531,0.101013,0.442748,-0.007634,-0.19084,0.00957,7.147827,2.192798,-5.301953,-0.263184,-1.396069,-3.831714,1.611401,-3.584082,please
1616135530.146707,1,-6.0,1.0,-6.0,-10.0,-8.0,0.816895,0.502197,-0.26593,0.098511,0.450382,-0.045802,-0.221374,-0.209351,7.845263,2.150928,-5.435937,0.317017,-1.31831,-4.254004,1.878174,-3.122314,please
1616135530.1563833,1,21.0,3.0,-10.0,-12.0,-7.0,0.813477,0.510132,-0.262573,0.095032,0.412214,-0.091603,-0.251908,-0.299072,8.553467,2.162891,-5.434741,0.907983,-1.184326,-4.579394,2.075562,-2.544507,please
1616135530.16636,1,-5.0,5.0,-7.0,-9.0,-7.0,0.810181,0.517456,-0.259766,0.090637,0.358779,-0.145038,-0.274809,-0.256006,9.223389,2.228687,-5.299561,1.467847,-0.998901,-4.779175,2.188013,-1.894922,please
1616135530.1764934,1,-5.0,4.0,-7.0,-8.0,-7.0,0.807251,0.524048,-0.25769,0.085327,0.290076,-0.198473,-0.290076,-0.099292,9.788037,2.31123,-5.051929,1.927222,-0.803906,-4.830615,2.223901,-1.263281,please
1616135530.1864154,1,-5.0,1.0,-10.0,-10.0,-6.0,0.804626,0.529724,-0.256226,0.079407,0.229008,-0.236641,-0.29771,0.179443,10.174438,2.390186,-4.684668,2.21792,-0.62207,-4.69065,2.173657,-0.716577,please
1616135530.1963887,1,-5.0,7.0,-8.0,-10.0,-6.0,0.802124,0.534729,-0.255432,0.073059,0.198473,-0.267176,-0.312977,0.573022,10.419678,2.400952,-4.207349,2.378223,-0.514404,-4.370044,2.109058,-0.253613,please
1616135530.20641,1,-5.0,4.0,-8.0,-11.0,-7.0,0.7995,0.539673,-0.255127,0.066589,0.198473,-0.290076,-0.312977,1.107764,10.529737,2.359082,-3.593652,2.405737,-0.455786,-3.859229,1.997803,0.13877,please
1616135530.2166405,1,-5.0,4.0,-8.0,-12.0,-6.0,0.796448,0.544678,-0.255493,0.060486,0.221374,-0.305344,-0.29771,1.746582,10.663721,2.306445,-2.886646,2.463159,-0.398364,-3.27544,1.866211,0.584985,please
1616135530.2265933,1,-6.0,4.0,-8.0,-12.0,-7.0,0.793091,0.549805,-0.256348,0.054749,0.244275,-0.312977,-0.267176,2.422485,10.960401,2.25979,-2.152124,2.688061,-0.326587,-2.733521,1.759741,1.177148,please
1616135530.2362454,1,-5.0,1.0,-7.0,-12.0,-6.0,0.78949,0.55481,-0.257751,0.049438,0.236641,-0.328244,-0.236641,3.1594,11.444898,2.191602,-1.366162,3.109155,-0.272754,-2.213135,1.709497,1.94397,please
1616135530.2466006,1,-5.0,3.0,-10.0,-10.0,-8.0,0.785828,0.559448,-0.259644,0.044495,0.221374,-0.335878,-0.206107,3.941772,12.104053,2.15332,-0.544312,3.713281,-0.189014,-1.739404,1.664038,2.884253,please
1616135530.2565129,1,-5.0,1.0,-7.0,-9.0,-6.0,0.78241,0.563477,-0.261963,0.039734,0.175573,-0.335878,-0.175573,4.703809,12.785937,2.130591,0.247632,4.348511,-0.099292,-1.303955,1.604224,3.83291,please
1616135530.2662446,1,-7.0,1.0,-8.0,-8.0,-6.0,0.779602,0.566406,-0.264771,0.035339,0.10687,-0.328244,-0.137405,5.384497,13.325464,2.148535,0.946265,4.853345,0.010767,-0.915161,1.484595,4.62605,please
1616135530.276231,1,-4.0,3.0,-5.0,-12.0,-8.0,0.777466,0.568115,-0.267822,0.031433,0.030534,-0.312977,-0.091603,5.935987,13.662817,2.221509,1.503735,5.170362,0.153125,-0.599341,1.29917,5.191895,please
1616135530.2864754,1,-4.0,5.0,-6.0,-10.0,-6.0,0.776123,0.568542,-0.271118,0.028259,-0.030534,-0.282443,-0.030534,6.360669,13.747754,2.369849,1.92124,5.24812,0.346924,-0.346924,1.026416,5.492163,please
1616135530.2962525,1,-7.0,3.0,-11.0,-12.0,-7.0,0.775513,0.56781,-0.274597,0.026001,-0.076336,-0.244275,0.030534,6.701612,13.564722,2.594751,2.238257,5.073462,0.592163,-0.123218,0.656763,5.53523,please
1616135530.3063145,1,-12.0,3.0,-7.0,-12.0,-7.0,0.775452,0.566162,-0.27832,0.024658,-0.10687,-0.229008,0.083969,6.877466,13.144824,2.715576,2.373437,4.673902,0.716577,0.061011,0.374438,5.275635,please
1616135530.3162656,1,-3.0,1.0,-10.0,-9.0,-6.0,0.775635,0.563965,-0.28241,0.023804,-0.137405,-0.221374,0.122137,7.037768,12.651953,2.865112,2.481103,4.209741,0.861328,0.230884,0.062207,4.955029,please
1616135532.3333597,1,-5.0,6.0,-10.0,-10.0,-6.0,0.814148,0.475098,-0.328491,0.058838,-0.007634,0.0,0.0,6.107056,7.560547,3.385498,0.317017,0.35769,0.124414,0.040674,0.023926,0.490479,please
1616135532.3434029,1,-3.0,4.0,-31.0,-10.0,-6.0,0.814209,0.475037,-0.32843,0.059021,-0.007634,0.007634,0.0,6.0927,7.537817,3.385498,0.301465,0.336157,0.122021,0.038281,0.016748,0.465356,please
1616135532.3535943,1,-6.0,4.0,-8.0,-10.0,-9.0,0.81427,0.474976,-0.328369,0.059143,-0.007634,0.007634,0.0,6.066382,7.531836,3.387891,0.27395,0.331372,0.123218,0.017944,0.020337,0.446216,please
1616135532.36333,1,-6.0,3.0,-6.0,-10.0,-7.0,0.81427,0.474915,-0.328308,0.059265,-0.007634,0.0,0.0,6.044848,7.522265,3.390283,0.252417,0.322998,0.124414,0.004785,0.019141,0.427075,please
1616135532.3734462,1,-6.0,5.0,-10.0,-9.0,-6.0,0.814331,0.474854,-0.328308,0.059387,-0.007634,0.0,0.0,6.013745,7.504321,3.377124,0.220117,0.30625,0.108862,-0.005981,0.029907,0.391187,please
1616135532.3834436,1,-3.0,4.0,-8.0,-9.0,-8.0,0.814392,0.474792,-0.328247,0.059448,-0.007634,0.0,0.0,5.992212,7.49834,3.36875,0.198584,0.301465,0.099292,-0.015552,0.039478,0.37085,please
1616135532.3933666,1,-5.0,3.0,-7.0,-12.0,-6.0,0.814392,0.474731,-0.328247,0.059509,-0.007634,0.0,0.0,5.979053,7.492358,3.35918,0.185425,0.29668,0.088525,-0.019141,0.049048,0.356494,please
1616135532.4035726,1,-7.0,3.0,-8.0,-9.0,-8.0,0.814453,0.47467,-0.328308,0.059509,-0.007634,-0.007634,0.0,5.973071,7.485181,3.348413,0.178247,0.290698,0.076563,-0.016748,0.056226,0.343335,please
1616135532.4133177,1,-7.0,4.0,-11.0,-12.0,-7.0,0.814453,0.474548,-0.328369,0.059509,-0.007634,-0.007634,0.0,5.977857,7.474414,3.354394,0.181836,0.281128,0.082544,-0.011963,0.045459,0.340942,please
1616135532.425556,1,-3.0,6.0,-6.0,-9.0,-7.0,0.814453,0.474487,-0.328491,0.059509,-0.007634,-0.007634,0.0,5.97666,7.469629,3.341235,0.178247,0.277539,0.069385,-0.007178,0.055029,0.331372,please
1616135532.4340694,1,-7.0,3.0,-10.0,-14.0,-6.0,0.814453,0.474426,-0.328552,0.059448,-0.007634,-0.007634,0.0,5.985034,7.478003,3.331665,0.186621,0.287109,0.059814,0.0,0.066992,0.340942,please
1616135532.4432318,1,20.0,1.0,-6.0,-7.0,-6.0,0.814453,0.474426,-0.328674,0.059387,-0.007634,-0.007634,0.0,5.979053,7.485181,3.300561,0.179443,0.294287,0.028711,0.004785,0.096899,0.331372,please
1616135532.453242,1,-5.0,0.0,-6.0,-8.0,-6.0,0.814392,0.474426,-0.328796,0.059326,-0.007634,-0.007634,0.0,5.981445,7.48877,3.306543,0.18064,0.297876,0.037085,0.0,0.092114,0.337354,please
1616135532.4632163,1,-4.0,4.0,-8.0,-8.0,-6.0,0.814331,0.474426,-0.328918,0.059326,-0.007634,-0.007634,0.0,5.982642,7.491162,3.299365,0.18064,0.300269,0.031104,0.002393,0.098096,0.337354,please
1616135532.4732342,1,-5.0,5.0,-7.0,-11.0,-6.0,0.814331,0.474426,-0.328979,0.059387,0.0,-0.007634,0.007634,5.977857,7.479199,3.292187,0.174658,0.289502,0.025122,0.004785,0.098096,0.322998,please
1616135532.483446,1,-6.0,5.0,-8.0,-10.0,-6.0,0.814209,0.474487,-0.329102,0.059509,0.0,-0.007634,0.007634,5.963501,7.469629,3.292187,0.15791,0.281128,0.027515,-0.004785,0.095703,0.308643,please
1616135532.4934225,1,-8.0,0.0,-7.0,-10.0,-51.0,0.814148,0.474548,-0.329224,0.05957,0.0,-0.007634,0.007634,5.955127,7.47561,3.295776,0.147144,0.287109,0.033496,-0.019141,0.095703,0.308643,please
1616135532.50354,1,-3.0,4.0,-8.0,-12.0,-6.0,0.814026,0.474609,-0.329346,0.059631,0.0,-0.015267,0.007634,5.956323,7.478003,3.301758,0.145947,0.289502,0.043066,-0.025122,0.089722,0.312231,please
1616135532.5133405,1,-9.0,5.0,-8.0,-8.0,-6.0,0.813904,0.47467,-0.329529,0.059692,0.0,-0.015267,0.007634,5.965894,7.489966,3.299365,0.153125,0.302661,0.044263,-0.026318,0.094507,0.326587,please
1616135532.523485,1,-4.0,5.0,-7.0,-7.0,-7.0,0.813782,0.474731,-0.329773,0.059692,0.0,-0.015267,0.007634,6.000586,7.48877,3.30415,0.184229,0.301465,0.052637,-0.005981,0.080151,0.346924,please
1616135532.5334427,1,-5.0,4.0,-10.0,-9.0,-6.0,0.81366,0.474731,-0.330017,0.059753,0.0,-0.015267,0.007634,6.036475,7.480395,3.314917,0.216528,0.295483,0.066992,0.013159,0.058618,0.367261,please
1616135532.5434442,1,-5.0,5.0,-8.0,-11.0,-8.0,0.813599,0.474731,-0.3302,0.059875,0.0,-0.007634,0.007634,6.085523,7.485181,3.34602,0.261987,0.301465,0.100488,0.029907,0.025122,0.409131,please
1616135532.5533469,1,-4.0,5.0,-8.0,-8.0,-6.0,0.813599,0.47467,-0.330322,0.059998,-0.007634,-0.007634,0.007634,6.139356,7.506714,3.384302,0.313428,0.325391,0.13877,0.04187,-0.003589,0.470142,please
1616135532.563409,1,-7.0,1.0,-7.0,-10.0,-29.0,0.813599,0.474548,-0.330444,0.059998,-0.007634,-0.007634,0.0,6.17644,7.534228,3.41062,0.34812,0.355298,0.165088,0.043066,-0.015552,0.521582,please
1616135532.5734034,1,-3.0,4.0,-8.0,-12.0,-9.0,0.813721,0.474304,-0.330566,0.059998,-0.022901,-0.007634,0.0,6.211133,7.592847,3.434546,0.38042,0.416309,0.185425,0.033496,-0.005981,0.592163,please
1616135532.5833712,1,-5.0,4.0,-6.0,-9.0,-8.0,0.813843,0.473938,-0.33075,0.059814,-0.038168,-0.015267,0.0,6.236255,7.638306,3.448901,0.404346,0.465356,0.196191,0.026318,0.005981,0.645996,please
1616135532.5933225,1,-3.0,4.0,-10.0,-8.0,-7.0,0.814087,0.473389,-0.330933,0.05957,-0.045802,-0.015267,0.0,6.257788,7.645483,3.451294,0.423486,0.477319,0.19021,0.039478,0.013159,0.66394,please
1616135532.6034105,1,-5.0,1.0,-8.0,-10.0,-7.0,0.814331,0.472778,-0.331238,0.059448,-0.045802,-0.007634,0.007634,6.27334,7.62395,3.440527,0.435449,0.462964,0.172266,0.063403,0.017944,0.65437,please
1616135532.6132772,1,-3.0,5.0,-7.0,-9.0,-6.0,0.814575,0.472229,-0.331482,0.059448,-0.038168,-0.007634,0.015267,6.286499,7.626343,3.434546,0.443823,0.472534,0.159106,0.071777,0.033496,0.661548,please
1616135532.623376,1,-7.0,5.0,-6.0,-10.0,-6.0,0.814819,0.471619,-0.331726,0.059631,-0.038168,0.0,0.022901,6.312818,7.613183,3.434546,0.462964,0.467749,0.150732,0.092114,0.033496,0.667529,please
1616135532.6332717,1,-4.0,5.0,-9.0,-8.0,-6.0,0.815063,0.471008,-0.33197,0.059937,-0.030534,0.007634,0.030534,6.352295,7.585669,3.44292,0.495264,0.451001,0.150732,0.123218,0.019141,0.674707,please
1616135532.643291,1,-3.0,4.0,-6.0,-7.0,-7.0,0.815247,0.470459,-0.332214,0.060608,-0.022901,0.015267,0.038168,6.410913,7.544995,3.463257,0.543115,0.421094,0.163892,0.166284,-0.016748,0.685474,please
1616135532.6533864,1,-3.0,6.0,-7.0,-9.0,-6.0,0.815369,0.469971,-0.332397,0.061462,-0.007634,0.022901,0.045802,6.520972,7.546191,3.515893,0.642407,0.435449,0.210547,0.212939,-0.065796,0.771606,please
1616135532.663388,1,-5.0,1.0,-8.0,-9.0,-8.0,0.815491,0.469482,-0.332581,0.0625,-0.007634,0.030534,0.053435,6.671704,7.579688,3.608008,0.77998,0.482104,0.295483,0.258398,-0.136377,0.917554,please
1616135532.6733403,1,-5.0,4.0,-6.0,-8.0,-6.0,0.815735,0.468872,-0.332642,0.063721,-0.015267,0.038168,0.061069,6.852344,7.638306,3.696533,0.947461,0.556274,0.373242,0.318213,-0.19021,1.098193,please
1616135532.6833248,1,-6.0,3.0,-6.0,-10.0,-6.0,0.81604,0.468018,-0.332703,0.065002,-0.030534,0.045802,0.061069,7.03418,7.692139,3.769507,1.116138,0.629248,0.433057,0.387598,-0.229687,1.274048,please
1616135532.6932938,1,-5.0,4.0,-6.0,-9.0,-6.0,0.816589,0.466919,-0.332764,0.066406,-0.045802,0.061069,0.068702,7.221997,7.704102,3.828125,1.287207,0.66394,0.471338,0.484497,-0.271558,1.417603,please
1616135532.7033052,1,-4.0,4.0,-7.0,-8.0,-7.0,0.817261,0.465576,-0.332703,0.067932,-0.053435,0.076336,0.076336,7.394263,7.658643,3.856836,1.443921,0.643604,0.474927,0.611304,-0.311035,1.500147,please
1616135532.7132845,1,-3.0,0.0,-8.0,-12.0,-7.0,0.817993,0.464111,-0.33252,0.069824,-0.053435,0.099237,0.083969,7.541406,7.552173,3.858032,1.574316,0.565845,0.447412,0.756055,-0.349316,1.516895,please
1616135532.7234454,1,-4.0,4.0,-10.0,-10.0,-6.0,0.818787,0.462524,-0.332214,0.072021,-0.053435,0.114504,0.099237,7.669409,7.408618,3.834106,1.684375,0.45459,0.391187,0.913965,-0.378027,1.488184,please
1616135532.7334783,1,-5.0,4.0,-8.0,-7.0,-6.0,0.819641,0.460999,-0.331726,0.074585,-0.045802,0.137405,0.10687,7.761523,7.212427,3.779077,1.757349,0.290698,0.301465,1.082642,-0.400757,1.387695,please
1616135532.7434435,1,-6.0,5.0,-7.0,-12.0,-7.0,0.820435,0.459473,-0.331177,0.077576,-0.030534,0.160305,0.122137,7.833301,6.931299,3.691748,1.808789,0.045459,0.179443,1.284814,-0.437842,1.207056,please
1616135532.753332,1,-4.0,3.0,-8.0,-8.0,-6.0,0.821167,0.458069,-0.330444,0.081055,-0.007634,0.183206,0.129771,7.876367,6.573608,3.592456,1.829126,-0.27395,0.045459,1.502539,-0.501245,0.953442,please
1616135532.7634058,1,-4.0,4.0,-7.0,-13.0,-9.0,0.821777,0.456909,-0.329529,0.085022,0.022901,0.206107,0.137405,7.870386,6.172852,3.506323,1.800415,-0.636426,-0.071777,1.696338,-0.593359,0.645996,please
1616135532.7733886,1,-5.0,3.0,-10.0,-9.0,-6.0,0.822266,0.456177,-0.328247,0.089294,0.061069,0.221374,0.137405,7.774683,5.71228,3.427368,1.685571,-1.064697,-0.18064,1.853052,-0.715381,0.244043,please
1616135532.783359,1,-4.0,3.0,-8.0,-11.0,-6.0,0.822632,0.455811,-0.326599,0.093872,0.091603,0.244275,0.122137,7.574903,5.208642,3.357983,1.470239,-1.539624,-0.278735,1.952344,-0.856543,-0.247632,please
1616135532.7933269,1,-3.0,4.0,-8.0,-10.0,-8.0,0.822815,0.455933,-0.324524,0.09845,0.137405,0.251908,0.099237,7.279419,4.663135,3.287402,1.165186,-2.062402,-0.372046,2.006177,-1.016846,-0.826636,please
1616135532.803392,1,-4.0,5.0,-7.0,-9.0,-8.0,0.822815,0.456726,-0.32196,0.102966,0.183206,0.259542,0.068702,6.89541,4.12959,3.245532,0.781177,-2.585181,-0.433057,1.989429,-1.193897,-1.446314,please
1616135532.8132992,1,-5.0,4.0,-9.0,-12.0,-8.0,0.822632,0.458252,-0.31897,0.107117,0.221374,0.251908,0.030534,6.439624,3.686963,3.209644,0.333765,-3.031396,-0.478516,1.881763,-1.332666,-2.050439,please
1616135532.8234153,1,-4.0,4.0,-10.0,-9.0,-8.0,0.822205,0.460327,-0.315796,0.110596,0.244275,0.229008,-0.015267,5.93479,3.324487,3.189307,-0.151929,-3.408227,-0.501245,1.701123,-1.448706,-2.624658,please
1616135532.8333132,1,-5.0,5.0,-3.0,-10.0,-6.0,0.821655,0.462952,-0.312561,0.11322,0.259542,0.19084,-0.061069,5.374927,3.073267,3.183325,-0.685474,-3.688159,-0.500049,1.423584,-1.525269,-3.155811,please
1616135532.843589,1,-4.0,4.0,-8.0,-12.0,-8.0,0.820923,0.466064,-0.309326,0.114563,0.251908,0.137405,-0.114504,4.72893,2.967993,3.185718,-1.294385,-3.835303,-0.479712,1.006079,-1.537231,-3.637915,please
1616135532.8532646,1,-1.0,4.0,-7.0,-8.0,-9.0,0.82019,0.469482,-0.306152,0.11438,0.236641,0.068702,-0.19084,4.054224,2.975171,3.238354,-1.918848,-3.885547,-0.403149,0.495264,-1.539624,-4.038672,please
1616135532.8634484,1,-5.0,1.0,-7.0,-12.0,-6.0,0.819458,0.473206,-0.30304,0.112366,0.21374,0.0,-0.267176,3.31731,3.099585,3.226392,-2.591162,-3.83291,-0.382812,-0.094507,-1.429565,-4.414307,please
1616135532.8733306,1,-4.0,1.0,-7.0,-10.0,-7.0,0.818665,0.477478,-0.300049,0.108276,0.198473,-0.068702,-0.358779,2.554077,3.403442,3.130688,-3.273047,-3.621167,-0.435449,-0.757251,-1.158008,-4.70022,please
1616135532.8836708,1,-3.0,3.0,-7.0,-9.0,-6.0,0.817749,0.482239,-0.297058,0.102356,0.175573,-0.129771,-0.435115,1.91167,3.860425,2.991919,-3.816162,-3.271851,-0.519189,-1.375732,-0.784766,-4.798316,please
1616135532.8933034,1,-5.0,5.0,-5.0,-8.0,-6.0,0.816589,0.487427,-0.294067,0.09491,0.175573,-0.175573,-0.503817,1.423584,4.396362,2.837598,-4.189404,-2.857934,-0.608911,-1.890137,-0.376831,-4.72893,please
1616135532.903487,1,-4.0,4.0,-11.0,-11.0,-6.0,0.815125,0.493347,-0.290894,0.086426,0.198473,-0.198473,-0.557252,1.009668,4.994507,2.622266,-4.472925,-2.393775,-0.747681,-2.332764,0.099292,-4.563843,please
1616135532.913347,1,-3.0,3.0,-6.0,-9.0,-6.0,0.813171,0.500061,-0.287476,0.077393,0.236641,-0.206107,-0.587786,0.668726,5.646484,2.396167,-4.671509,-1.886548,-0.881665,-2.719165,0.590967,-4.289893,please
1616135532.9232397,1,-1.0,3.0,-7.0,-8.0,-6.0,0.810608,0.50769,-0.283691,0.068115,0.29771,-0.206107,-0.610687,0.354102,6.385791,2.132983,-4.830615,-1.301563,-1.037183,-3.084033,1.132886,-3.911865,please
1616135532.9334085,1,-5.0,3.0,-26.0,-8.0,-6.0,0.807373,0.516174,-0.279663,0.058838,0.343511,-0.206107,-0.610687,0.065796,7.327271,1.933203,-4.953833,-0.517993,-1.110156,-3.511108,1.681982,-3.296973,please
1616135532.9435928,1,-6.0,4.0,-7.0,-8.0,-7.0,0.803894,0.524841,-0.27533,0.0495,0.343511,-0.206107,-0.59542,-0.215332,8.470922,1.765723,-5.062696,0.467749,-1.148438,-3.993213,2.268164,-2.463159,please
1616135532.9533231,1,-3.0,3.0,-10.0,-9.0,-7.0,0.800232,0.533386,-0.270935,0.040039,0.328244,-0.206107,-0.587786,-0.526367,9.53562,1.574316,-5.194287,1.381714,-1.209448,-4.428662,2.817261,-1.667627,please
1616135532.9635088,1,-5.0,5.0,-10.0,-13.0,-6.0,0.796509,0.541687,-0.266846,0.030273,0.305344,-0.236641,-0.572519,-0.840991,10.491455,1.443921,-5.328271,2.192798,-1.208252,-4.824634,3.246728,-0.90918,please
1616135532.9732728,1,-4.0,4.0,-7.0,-14.0,-9.0,0.792725,0.549377,-0.263367,0.020264,0.267176,-0.282443,-0.541985,-1.11853,11.355176,1.388892,-5.42876,2.92373,-1.135278,-5.161987,3.552979,-0.163892,please
1616135532.983177,1,-5.0,1.0,-10.0,-10.0,-8.0,0.789001,0.556213,-0.260681,0.009888,0.221374,-0.343511,-0.519084,-1.325488,12.09209,1.369751,-5.463452,3.541016,-1.033594,-5.386889,3.759937,0.527563,please
1616135532.9932835,1,-4.0,4.0,-6.0,-10.0,-9.0,0.785339,0.562317,-0.258728,-0.000854,0.183206,-0.374046,-0.519084,-1.385303,12.67229,1.369751,-5.358179,4.012353,-0.91875,-5.427564,3.850854,1.158008,please
1616135533.0034306,1,-3.0,3.0,-8.0,-10.0,-6.0,0.781677,0.568115,-0.257019,-0.01178,0.183206,-0.389313,-0.526718,-1.211841,13.038355,1.330273,-5.017236,4.274341,-0.848169,-5.169165,3.818555,1.684375,please
1616135533.0133934,1,-5.0,3.0,-11.0,-9.0,-9.0,0.777344,0.574402,-0.255371,-0.022217,0.259542,-0.358779,-0.541985,-0.84458,13.253687,1.226196,-4.484888,4.390381,-0.827832,-4.681079,3.688159,2.130591,please
1616135533.0233371,1,-5.0,1.0,-8.0,-8.0,-6.0,0.772217,0.581604,-0.253601,-0.031738,0.335878,-0.328244,-0.526718,-0.34812,13.546778,0.961816,-3.824536,4.585376,-0.946265,-4.04585,3.623559,2.650977,please
1616135533.0332513,1,-5.0,0.0,-8.0,-12.0,-8.0,0.766296,0.589539,-0.252136,-0.039917,0.412214,-0.290076,-0.48855,0.343335,13.890112,0.66394,-2.982349,4.837793,-1.07666,-3.268262,3.478809,3.264673,please
1616135533.0433245,1,-5.0,-1.0,-8.0,-16.0,-11.0,0.759705,0.5979,-0.251221,-0.046387,0.480916,-0.259542,-0.419847,1.263281,14.189184,0.384009,-1.933203,5.05791,-1.171167,-2.331567,3.172559,3.895117,please
1616135533.0532672,1,-5.0,5.0,-7.0,-12.0,-7.0,0.752686,0.606384,-0.251099,-0.050842,0.534351,-0.221374,-0.335878,2.4177,14.438013,0.173462,-0.681885,5.240942,-1.181934,-1.26687,2.666528,4.537524,please
1616135533.0633404,1,-7.0,-9.0,-7.0,-11.0,-10.0,0.745422,0.614746,-0.252014,-0.053406,0.572519,-0.206107,-0.251908,3.615185,14.686841,0.038281,0.576611,5.440722,-1.10896,-0.261987,2.058814,5.181128,please
1616135533.0732296,1,-5.0,3.0,-10.0,-10.0,-7.0,0.738098,0.622559,-0.253967,-0.05481,0.564885,-0.221374,-0.167939,4.676294,15.078028,-0.086133,1.67002,5.798413,-1.024023,0.533545,1.516895,5.903687,please
1616135533.0831835,1,-4.0,1.0,-7.0,-12.0,-6.0,0.731262,0.629211,-0.257202,-0.055847,0.496183,-0.274809,-0.099237,5.640503,15.560132,-0.072974,2.642602,6.26018,-0.814673,1.124512,0.91875,6.687256,please
1616135533.0926273,1,-5.0,4.0,-7.0,-9.0,-6.0,0.725525,0.633911,-0.261597,-0.057007,0.381679,-0.320611,-0.038168,6.608301,16.038647,0.088525,3.596045,6.731519,-0.492871,1.626953,0.224902,7.468432,please
1616135533.1032014,1,-5.0,4.0,-8.0,22.0,-8.0,0.721558,0.636169,-0.266846,-0.058228,0.198473,-0.343511,0.007634,7.69812,16.353271,0.384009,4.649976,7.050928,-0.087329,2.193994,-0.595752,8.13357,please
1616135533.1132915,1,-4.0,1.0,-6.0,-9.0,-6.0,0.718994,0.636719,-0.272339,-0.058716,0.152672,-0.290076,0.030534,9.070264,16.243214,0.821851,5.964697,6.956421,0.421094,3.017041,-1.676001,8.498438,please
1616135533.1226556,1,-5.0,1.0,-11.0,-10.0,-10.0,0.717163,0.636597,-0.277405,-0.057983,0.114504,-0.21374,0.045802,10.32876,16.098461,1.058716,7.152612,6.834399,0.710596,3.822144,-2.497852,8.802295,please
1616135533.1333036,1,-3.0,4.0,-7.0,-9.0,-7.0,0.716248,0.635864,-0.281799,-0.05603,0.061069,-0.122137,0.068702,11.383886,16.114014,1.29917,8.125196,6.877466,0.980957,4.40354,-3.153418,9.213819,please
1616135533.1423895,1,-7.0,1.0,-11.0,-12.0,-6.0,0.716919,0.63385,-0.285339,-0.053162,-0.053435,-0.030534,0.114504,12.102857,16.313793,1.530054,8.753247,7.109546,1.199878,4.676294,-3.530249,9.707886,please
1616135533.1533177,1,-7.0,3.0,-10.0,-9.0,-7.0,0.719604,0.629822,-0.287964,-0.049805,-0.229008,0.061069,0.167939,12.472509,16.398731,1.728638,9.024805,7.23396,1.329077,4.74209,-3.628345,9.992602,please
1616135533.1625457,1,-6.0,3.0,-8.0,-8.0,-6.0,0.724487,0.623596,-0.289978,-0.046021,-0.412214,0.137405,0.229008,12.513184,16.119995,1.875781,8.957812,7.003076,1.345825,4.703809,-3.489575,9.837085,please
1616135533.1724596,1,-2.0,3.0,-9.0,-13.0,-7.0,0.731201,0.615173,-0.291626,-0.041809,-0.572519,0.19084,0.290076,12.252393,15.374707,1.958325,8.576197,6.318799,1.242944,4.610498,-3.174951,9.14563,please
1616135533.1826658,1,-5.0,4.0,-7.0,-10.0,-9.0,0.739136,0.605225,-0.293152,-0.03717,-0.671756,0.236641,0.351145,11.757129,14.256177,2.003784,7.950537,5.274438,1.06709,4.46814,-2.793335,8.022314,please
1616135533.1934328,1,-4.0,4.0,-7.0,-10.0,-6.0,0.747559,0.594299,-0.294678,-0.032043,-0.717557,0.259542,0.396947,11.147021,12.888819,2.044458,7.20166,3.995605,0.869702,4.310229,-2.458374,6.627441,please
1616135533.2025476,1,-3.0,6.0,-7.0,-11.0,-7.0,0.756104,0.582825,-0.296326,-0.026428,-0.725191,0.274809,0.435115,10.516577,11.359961,2.109058,6.426465,2.568433,0.689062,4.172656,-2.252612,5.085425,please
1616135533.2132635,1,-1.0,1.0,-8.0,-10.0,11.0,0.764343,0.57135,-0.298157,-0.020203,-0.694656,0.274809,0.465649,9.844263,9.871778,2.147339,5.603418,1.193897,0.488086,3.997998,-2.088721,3.563745,please
1616135533.222539,1,-7.0,5.0,-10.0,-9.0,-6.0,0.772095,0.559875,-0.300232,-0.013794,-0.671756,0.267176,0.496183,9.173144,8.478101,2.136572,4.780371,-0.075366,0.247632,3.820947,-1.948755,2.123413,please
1616135533.2324574,1,-7.0,3.0,-22.0,-10.0,-9.0,0.779297,0.548706,-0.302429,-0.007324,-0.656489,0.251908,0.496183,8.527148,7.428955,2.105469,3.986035,-0.995313,0.0,3.574512,-1.76333,0.990527,please
1616135533.2426326,1,-3.0,3.0,-7.0,-10.0,-6.0,0.786194,0.53772,-0.304382,-0.00116,-0.625954,0.251908,0.473282,7.997192,6.52815,2.129395,3.318506,-1.764526,-0.185425,3.366357,-1.67959,0.046655,please
1616135533.2525704,1,-5.0,4.0,-6.0,-8.0,-8.0,0.79303,0.526794,-0.305786,0.0047,-0.648855,0.274809,0.450382,7.522265,5.845068,2.073169,2.720361,-2.314819,-0.453394,3.191699,-1.504932,-0.710596,please
1616135533.2623467,1,-5.0,3.0,-10.0,-10.0,-6.0,0.799988,0.515625,-0.30658,0.010315,-0.671756,0.305344,0.419847,7.138257,5.166772,2.000195,2.226294,-2.855542,-0.745288,3.11394,-1.38291,-1.430762,please
1616135533.2723272,1,-3.0,1.0,-6.0,-12.0,-7.0,0.806885,0.504517,-0.306641,0.01593,-0.648855,0.343511,0.396947,6.793725,4.362866,1.906885,1.78606,-3.519482,-1.059912,3.135474,-1.358984,-2.238257,please
1616135533.282344,1,-4.0,4.0,-7.0,-9.0,-7.0,0.813721,0.493652,-0.305969,0.021729,-0.625954,0.389313,0.366412,6.573608,3.468042,1.870996,1.483398,-4.274341,-1.315918,3.273047,-1.507324,-3.033789,please
1616135533.2924635,1,-3.0,4.0,-6.0,-8.0,-6.0,0.819946,0.483704,-0.304749,0.02832,-0.503817,0.435115,0.358779,6.404932,2.351904,1.747778,1.238159,-5.251709,-1.644897,3.574512,-1.759741,-3.99082,please
1616135533.3025465,1,-3.0,4.0,-10.0,-12.0,-6.0,0.824829,0.475891,-0.303101,0.036194,-0.320611,0.458015,0.366412,6.212329,1.332666,1.558765,0.973779,-6.145337,-2.001392,3.862817,-1.952344,-4.895215,please
1616135533.3125136,1,-4.0,4.0,-6.0,-10.0,-6.0,0.827881,0.470764,-0.301514,0.044983,-0.099237,0.442748,0.358779,6.019727,0.569434,1.34104,0.711792,-6.803296,-2.332764,4.082934,-2.026514,-5.607007,please
1616135533.3225236,1,-4.0,1.0,-10.0,-10.0,-8.0,0.828979,0.468689,-0.300232,0.054016,0.099237,0.374046,0.343511,5.770898,0.418701,1.221411,0.395972,-6.878662,-2.505029,3.993213,-1.863818,-5.857031,please
1616135533.3323567,1,-5.0,1.0,-10.0,-11.0,-6.0,0.828552,0.469055,-0.299194,0.0625,0.229008,0.305344,0.312977,5.504126,0.817065,1.258496,0.070581,-6.433642,-2.473926,3.6104,-1.547998,-5.662036,please
1616135533.3427956,1,-5.0,0.0,-9.0,-9.0,-7.0,0.827271,0.470764,-0.29834,0.070068,0.274809,0.236641,0.282443,5.234961,1.577905,1.455884,-0.248828,-5.645288,-2.253808,3.001489,-1.196289,-5.153613,please
1616135533.3525212,1,-6.0,0.0,-10.0,-9.0,-9.0,0.825928,0.472595,-0.297546,0.076599,0.244275,0.198473,0.259542,4.947852,2.518188,1.775293,-0.577808,-4.684668,-1.910474,2.241846,-0.868506,-4.48728,please
1616135533.362427,1,-5.0,1.0,-12.0,-9.0,-7.0,0.825073,0.473816,-0.296631,0.082031,0.175573,0.167939,0.229008,4.538721,3.391479,2.18562,-1.019238,-3.793433,-1.488184,1.366162,-0.65437,-3.91665,please
1616135533.3725498,1,-5.0,3.0,-10.0,-13.0,-7.0,0.824829,0.474304,-0.295227,0.086182,0.10687,0.160305,0.183206,3.935791,4.015943,2.569629,-1.63772,-3.152222,-1.111353,0.453394,-0.534741,-3.654663,please
1616135533.3825824,1,-3.0,4.0,-10.0,-9.0,-7.0,0.825134,0.47467,-0.292969,0.089294,0.091603,0.175573,0.10687,3.1594,4.320996,2.841187,-2.409326,-2.842383,-0.858936,-0.404346,-0.482104,-3.770703,please
1616135533.3924522,1,-5.0,4.0,-7.0,-8.0,-8.0,0.825317,0.475952,-0.289795,0.091064,0.137405,0.160305,0.015267,2.132983,4.501636,2.884253,-3.403442,-2.679688,-0.829028,-1.307544,-0.297876,-4.200171,please
1616135533.40264,1,-5.0,1.0,-7.0,-12.0,-8.0,0.82489,0.478882,-0.286011,0.091187,0.198473,0.099237,-0.083969,0.885254,4.695435,2.708398,-4.59375,-2.534936,-0.991724,-2.307642,0.071777,-4.812671,please
1616135533.4124572,1,-4.0,0.0,-7.0,-9.0,-8.0,0.82373,0.483521,-0.282166,0.089539,0.267176,0.015267,-0.167939,-0.271558,5.09021,2.570825,-5.675195,-2.220313,-1.085034,-3.33645,0.483301,-5.190698,please
1616135533.4223738,1,-6.0,3.0,-8.0,-9.0,-8.0,0.821838,0.489441,-0.278503,0.086182,0.305344,-0.068702,-0.229008,-1.246533,5.76731,2.4823,-6.559253,-1.646094,-1.101782,-4.349707,0.964209,-5.203857,please
1616135533.4325788,1,-4.0,1.0,-10.0,-12.0,-7.0,0.819458,0.496094,-0.275085,0.081421,0.312977,-0.129771,-0.282443,-2.025317,6.52456,2.445215,-7.235156,-1.003687,-1.046753,-5.24812,1.410425,-4.989722,please
1616135533.442677,1,-3.0,0.0,-10.0,-11.0,-7.0,0.816956,0.50293,-0.271851,0.075562,0.305344,-0.175573,-0.320611,-2.581592,7.193286,2.457178,-7.678979,-0.456982,-0.935498,-5.930005,1.738208,-4.675097,please
1616135533.4523506,1,-5.0,4.0,-10.0,-10.0,-6.0,0.814209,0.51001,-0.268555,0.06897,0.328244,-0.198473,-0.366412,-2.964404,7.687354,2.4177,-7.938574,-0.088525,-0.869702,-6.363061,1.99541,-4.391577,please
1616135533.4626193,1,-7.0,1.0,-8.0,-10.0,-8.0,0.810913,0.517883,-0.265198,0.062012,0.381679,-0.206107,-0.396947,-3.209644,8.034277,2.32439,-8.053418,0.124414,-0.839795,-6.597534,2.191602,-4.151123,please
1616135533.472362,1,-3.0,4.0,-10.0,-10.0,-7.0,0.806824,0.526794,-0.261658,0.05481,0.465649,-0.221374,-0.435115,-3.374732,8.424268,2.231079,-8.077344,0.374438,-0.787158,-6.770996,2.367456,-3.811377,please
1616135533.4823864,1,-5.0,4.0,-8.0,-8.0,-6.0,0.801941,0.536743,-0.257874,0.046936,0.519084,-0.251908,-0.480916,-3.48479,9.107348,2.10188,-8.030688,0.907983,-0.746484,-6.974365,2.659351,-3.183325,please
1616135533.4924634,1,-8.0,3.0,-7.0,-2.0,-6.0,0.796692,0.546936,-0.254272,0.037964,0.48855,-0.29771,-0.526718,-3.469238,10.038061,1.979858,-7.84646,1.686768,-0.689062,-7.128686,2.993115,-2.255005,please
1616135533.5024602,1,-4.0,5.0,-8.0,-9.0,-6.0,0.791748,0.556152,-0.25116,0.027588,0.389313,-0.358779,-0.557252,-3.227588,10.960401,1.896118,-7.425366,2.465552,-0.604126,-7.052124,3.226392,-1.197485,please
1616135533.512426,1,-4.0,5.0,-7.0,-8.0,-6.0,0.787415,0.56366,-0.24884,0.016235,0.267176,-0.412214,-0.580153,-2.721558,11.599218,1.831519,-6.741089,2.97876,-0.526367,-6.616675,3.274243,-0.271558,please
1616135533.5226274,1,-6.0,4.0,-7.0,-9.0,-6.0,0.783569,0.569824,-0.247437,0.004028,0.183206,-0.458015,-0.603053,-2.006177,11.864795,1.695142,-5.85105,3.131885,-0.539526,-5.829516,3.192895,0.37085,please
1616135533.5324605,1,-3.0,4.0,-7.0,-10.0,-6.0,0.77948,0.575684,-0.246704,-0.008545,0.206107,-0.496183,-0.633588,-1.216626,11.803784,1.402051,-4.889234,2.966797,-0.708203,-4.81626,3.085229,0.690259,please
1616135533.5425055,1,-4.0,5.0,-9.0,-8.0,-8.0,0.774475,0.582153,-0.246521,-0.021057,0.259542,-0.526718,-0.648855,-0.44502,11.71167,1.028809,-3.946558,2.772998,-0.936694,-3.787451,2.987134,0.930713,please
1616135533.5523446,1,-7.0,5.0,-7.0,-10.0,-8.0,0.768433,0.589355,-0.246948,-0.033386,0.328244,-0.549618,-0.648855,0.326587,11.820532,0.660352,-3.006274,2.781372,-1.135278,-2.823242,2.880664,1.333862,please
1616135533.5625396,1,-5.0,4.0,-10.0,-11.0,-8.0,0.761658,0.596985,-0.247864,-0.045227,0.366412,-0.557252,-0.625954,1.081445,12.276319,0.320605,-2.088721,3.143848,-1.2896,-1.979858,2.795727,2.040869,please
1616135533.5723624,1,-5.0,3.0,-10.0,-12.0,-7.0,0.754761,0.604187,-0.249084,-0.056396,0.351145,-0.541985,-0.580153,1.851856,12.939062,0.044263,-1.163989,3.725244,-1.384106,-1.201074,2.653369,2.941675,please
1616135533.582344,1,-4.0,4.0,-7.0,-12.0,-7.0,0.74823,0.610657,-0.250427,-0.06665,0.312977,-0.503817,-0.534351,2.711987,13.647265,-0.156714,-0.162695,4.364062,-1.417603,-0.393579,2.384204,3.903491,please
1616135533.5924425,1,-5.0,1.0,-10.0,-8.0,-8.0,0.742249,0.616333,-0.251892,-0.075439,0.282443,-0.435115,-0.48855,3.814966,14.140137,-0.290698,1.061108,4.800708,-1.400854,0.614893,1.878174,4.713379,please
1616135533.6024537,1,-6.0,3.0,-10.0,-9.0,-9.0,0.736755,0.621399,-0.253479,-0.082031,0.29771,-0.351145,-0.412214,5.208642,14.40332,-0.397168,2.546899,5.022021,-1.368555,1.860229,1.161597,5.362964,please
1616135533.61237,1,-6.0,3.0,-7.0,-10.0,-10.0,0.731323,0.626404,-0.255615,-0.085938,0.343511,-0.259542,-0.328244,6.7375,14.655737,-0.507227,4.128394,5.245728,-1.335059,3.149829,0.374438,6.022119,please
1616135533.6224394,1,-5.0,4.0,-6.0,-10.0,-7.0,0.725891,0.63147,-0.258118,-0.087341,0.389313,-0.183206,-0.229008,8.222095,15.14502,-0.575415,5.629736,5.718262,-1.252515,4.261182,-0.386401,6.901392,please
1616135533.6324432,1,-5.0,5.0,-9.0,-11.0,-6.0,0.720886,0.636108,-0.260986,-0.086548,0.381679,-0.114504,-0.129771,9.514087,15.9573,-0.553882,6.904981,6.525757,-1.086231,5.035181,-1.059912,8.058203,please
1616135533.6423106,1,-7.0,3.0,-7.0,-10.0,-8.0,0.717102,0.639526,-0.263855,-0.084167,0.29771,-0.045802,-0.030534,10.516577,16.891602,-0.43186,7.862012,7.467237,-0.849365,5.449097,-1.607813,9.272436,please
1616135533.652404,1,-5.0,3.0,-6.0,-12.0,-7.0,0.71521,0.64093,-0.266602,-0.080627,0.152672,0.022901,0.076336,11.225977,17.609375,-0.242847,8.50083,8.202954,-0.596948,5.612988,-2.007373,10.213916,please
1616135533.6624854,1,-4.0,3.0,-6.0,-10.0,-6.0,0.716003,0.639526,-0.269287,-0.076111,-0.083969,0.083969,0.19084,11.606397,18.136938,-0.014355,8.780762,8.759229,-0.375635,5.523267,-2.159302,10.896997,please
1616135533.6724195,1,-7.0,1.0,-10.0,-8.0,-6.0,0.719299,0.635376,-0.27179,-0.070679,-0.251908,0.160305,0.29771,11.775073,18.410889,0.340942,8.822632,9.076245,-0.098096,5.264868,-2.201172,11.296557,please
1616135533.6825948,1,-4.0,4.0,-7.0,-10.0,-7.0,0.724548,0.629089,-0.274109,-0.064087,-0.396947,0.236641,0.40458,11.655444,18.04961,0.650781,8.552271,8.771192,0.080151,4.946655,-2.056421,11.015429,please
1616135533.6924694,1,-5.0,4.0,-8.0,-8.0,-6.0,0.731079,0.621216,-0.276367,-0.05603,-0.473282,0.312977,0.51145,11.302539,17.177515,0.92832,8.023511,7.97207,0.189014,4.572217,-1.808789,10.185205,please
1616135533.70229,1,-7.0,3.0,-6.0,-10.0,-6.0,0.738342,0.612427,-0.278625,-0.046631,-0.503817,0.366412,0.603053,10.725927,16.014721,1.229785,7.2531,6.896606,0.301465,4.074561,-1.545605,9.014038,please
1616135533.7124135,1,-8.0,3.0,-9.0,-10.0,-6.0,0.745667,0.603088,-0.280823,-0.036133,-0.503817,0.40458,0.679389,9.941162,14.701197,1.509717,6.26377,5.687158,0.384009,3.460864,-1.260889,7.62395,please
1616135533.7223685,1,-4.0,4.0,-11.0,-8.0,-6.0,0.752869,0.593567,-0.283264,-0.02478,-0.496183,0.412214,0.748092,9.048731,13.43313,1.788452,5.156006,4.536328,0.466553,2.752661,-1.001294,6.227881,please
1616135533.7321131,1,-4.0,4.0,-8.0,-10.0,-6.0,0.759888,0.583557,-0.286011,-0.013123,-0.496183,0.396947,0.801527,8.127588,12.216504,2.105469,4.017138,3.451294,0.583789,2.012158,-0.83501,4.861719,please
1616135533.7423463,1,-5.0,4.0,-10.0,-12.0,-6.0,0.766785,0.573059,-0.289062,-0.001465,-0.503817,0.366412,0.839695,7.236352,11.047729,2.422485,2.908179,2.426074,0.697437,1.312329,-0.748877,3.541016,please
1616135533.752414,1,-4.0,3.0,-7.0,-7.0,-6.0,0.773438,0.562134,-0.292542,0.009766,-0.534351,0.320611,0.839695,6.401343,9.870581,2.659351,1.857837,1.404443,0.730933,0.733325,-0.705811,2.21792,please
1616135533.7623055,1,-7.0,1.0,-8.0,-8.0,-6.0,0.779846,0.550903,-0.296387,0.020325,-0.541985,0.274809,0.824427,5.67041,8.725733,2.83042,0.919946,0.42229,0.701025,0.29668,-0.715381,0.955835,please
1616135533.7722423,1,-6.0,1.0,-3.0,-12.0,-6.0,0.786011,0.539429,-0.300354,0.030029,-0.564885,0.229008,0.793893,5.018433,7.675391,2.884253,0.072974,-0.456982,0.556274,-0.014355,-0.691455,-0.209351,please
1616135533.7824016,1,-3.0,4.0,-10.0,-12.0,-8.0,0.791748,0.528015,-0.304504,0.038696,-0.564885,0.183206,0.740458,4.470532,6.719556,2.928516,-0.65437,-1.242944,0.410327,-0.235669,-0.727344,-1.246533,please
1616135533.7922103,1,-6.0,1.0,-7.0,-7.0,-7.0,0.79718,0.516907,-0.308472,0.046021,-0.572519,0.145038,0.664122,3.993213,5.884546,2.883057,-1.291992,-1.912866,0.185425,-0.372046,-0.722559,-2.167676,please
1616135533.8023517,1,-5.0,3.0,-10.0,-7.0,-7.0,0.802185,0.506287,-0.312073,0.052002,-0.557252,0.114504,0.572519,3.590064,5.067481,2.780176,-1.831519,-2.574414,-0.086133,-0.397168,-0.741699,-3.045752,please
1616135533.8124197,1,-5.0,3.0,-7.0,-9.0,-6.0,0.807007,0.495972,-0.315308,0.056702,-0.572519,0.091603,0.48855,3.227588,4.250415,2.606714,-2.310034,-3.24314,-0.421094,-0.333765,-0.762036,-3.915454,please
1616135533.8223343,1,-16.0,3.0,-7.0,-12.0,-6.0,0.811646,0.486084,-0.318176,0.060486,-0.549618,0.083969,0.412214,2.982349,3.509912,2.484692,-2.654565,-3.844873,-0.698633,-0.210547,-0.860132,-4.639209,please
1616135534.6411688,1,9.0,4.0,-6.0,-9.0,-6.0,0.808289,0.49176,-0.319275,0.053162,-0.038168,-0.022901,0.0,5.926416,8.070166,3.093604,0.355298,0.611304,0.031104,0.021533,0.204565,0.675903,please
1616135534.650637,1,-4.0,3.0,-7.0,-9.0,-6.0,0.80835,0.491455,-0.319641,0.053101,-0.022901,-0.022901,0.007634,5.943164,8.013941,3.076855,0.367261,0.559863,0.013159,0.059814,0.191406,0.638818,please
1616135534.661148,1,-5.0,7.0,-5.0,-7.0,-6.0,0.808289,0.491272,-0.320007,0.053162,-0.015267,-0.015267,0.015267,5.943164,7.980444,3.066089,0.361279,0.529956,0.003589,0.070581,0.185425,0.608911,please
1616135534.670614,1,-4.0,4.0,-7.0,-9.0,-6.0,0.808228,0.49115,-0.320374,0.053406,-0.007634,-0.007634,0.022901,5.93479,7.976855,3.076855,0.344531,0.531152,0.016748,0.050244,0.178247,0.604126,please
1616135534.680507,1,-4.0,5.0,-7.0,-10.0,-6.0,0.808167,0.491089,-0.320557,0.05365,-0.007634,-0.007634,0.022901,5.914453,8.006763,3.10437,0.319409,0.564648,0.045459,0.003589,0.178247,0.624463,please
1616135534.690835,1,-5.0,1.0,-8.0,-9.0,-6.0,0.808167,0.491028,-0.320679,0.053894,-0.007634,0.0,0.015267,5.876172,8.040258,3.131885,0.277539,0.600537,0.072974,-0.056226,0.183032,0.636426,please
1616135534.7004983,1,-5.0,3.0,-7.0,-10.0,-9.0,0.808289,0.490784,-0.320679,0.053955,-0.022901,0.0,0.007634,5.831909,8.062988,3.143848,0.23208,0.626855,0.080151,-0.105273,0.200977,0.632837,please
1616135534.710531,1,-1.0,4.0,-6.0,-12.0,-7.0,0.808472,0.490479,-0.320679,0.053894,-0.030534,0.0,0.007634,5.791235,8.064184,3.157007,0.191406,0.630444,0.087329,-0.142358,0.206958,0.614893,please
1616135534.7206545,1,-4.0,4.0,-8.0,-7.0,-6.0,0.808716,0.490112,-0.320679,0.053772,-0.038168,-0.007634,0.0,5.762525,8.022314,3.164185,0.162695,0.590967,0.087329,-0.149536,0.193799,0.568237,please
1616135534.7304008,1,-1.0,1.0,-6.0,-8.0,-7.0,0.80896,0.489685,-0.320679,0.053589,-0.038168,-0.007634,0.0,5.746973,7.952929,3.170166,0.147144,0.525171,0.086133,-0.133984,0.165088,0.508423,please
1616135534.7406452,1,-5.0,3.0,-8.0,-10.0,-7.0,0.809204,0.489258,-0.32074,0.053406,-0.030534,-0.007634,0.0,5.732617,7.873975,3.167773,0.132788,0.449805,0.076563,-0.110059,0.137573,0.440234,please
1616135534.7507036,1,-5.0,2.0,-7.0,-10.0,-11.0,0.809387,0.488892,-0.320801,0.053345,-0.022901,-0.007634,0.0,5.730225,7.801001,3.161792,0.129199,0.38042,0.0646,-0.080151,0.113647,0.381616,please
1616135534.7605114,1,-4.0,3.0,-10.0,-7.0,-9.0,0.809509,0.488647,-0.320862,0.053345,-0.015267,-0.007634,0.0,5.737402,7.757935,3.158203,0.135181,0.339746,0.056226,-0.055029,0.098096,0.351709,please
1616135534.7707734,1,-4.0,4.0,-8.0,-12.0,-7.0,0.80957,0.488525,-0.320984,0.053345,-0.015267,-0.007634,0.007634,5.746973,7.741187,3.139062,0.142358,0.324194,0.035889,-0.033496,0.105273,0.337354,please
1616135534.7807684,1,-3.0,6.0,-7.0,-9.0,-6.0,0.809631,0.488342,-0.321167,0.053406,-0.015267,-0.007634,0.007634,5.781665,7.73999,3.129492,0.173462,0.326587,0.025122,-0.004785,0.107666,0.354102,please
1616135534.790517,1,-3.0,1.0,-8.0,-9.0,-6.0,0.809631,0.48822,-0.321289,0.053467,-0.015267,-0.007634,0.007634,5.80918,7.738794,3.105567,0.198584,0.327783,0.0,0.025122,0.124414,0.361279,please
1616135534.8005867,1,-3.0,33.0,-8.0,-12.0,-8.0,0.809631,0.488159,-0.32135,0.053589,-0.007634,0.0,0.007634,5.836694,7.754346,3.086426,0.223706,0.344531,-0.017944,0.045459,0.141162,0.382812,please
1616135534.8105955,1,-4.0,3.0,-8.0,-9.0,-8.0,0.809692,0.488037,-0.32135,0.05365,-0.015267,0.0,0.0,5.86062,7.775879,3.082837,0.246436,0.368457,-0.023926,0.057422,0.154321,0.411523,please
1616135534.8204825,1,-3.0,1.0,-7.0,-9.0,-6.0,0.809814,0.487854,-0.32135,0.053711,-0.022901,0.007634,0.007634,5.886939,7.796216,3.085229,0.272754,0.38999,-0.025122,0.069385,0.160303,0.442627,please
1616135534.8304124,1,-5.0,1.0,-6.0,-9.0,-6.0,0.809937,0.48761,-0.321411,0.053772,-0.022901,0.007634,0.007634,5.906079,7.803393,3.078052,0.289502,0.400757,-0.035889,0.08374,0.171069,0.456982,please
1616135534.8405669,1,-5.0,3.0,-10.0,-9.0,-7.0,0.810059,0.487305,-0.321411,0.053894,-0.022901,0.007634,0.007634,5.935987,7.773486,3.087622,0.317017,0.375635,-0.031104,0.113647,0.14834,0.45459,please
1616135534.8505104,1,-4.0,4.0,-7.0,-10.0,-7.0,0.810242,0.487,-0.321533,0.054077,-0.022901,0.007634,0.007634,5.962305,7.75315,3.118726,0.339746,0.358887,-0.005981,0.12561,0.114844,0.462964,please
1616135534.8604052,1,-3.0,5.0,-6.0,-10.0,-7.0,0.810425,0.486633,-0.321594,0.05426,-0.022901,0.007634,0.015267,5.985034,7.755542,3.13667,0.358887,0.367261,0.004785,0.132788,0.105273,0.483301,please
1616135534.870437,1,-3.0,-3.0,-5.0,-9.0,-6.0,0.810608,0.486267,-0.321655,0.054443,-0.030534,0.0,0.015267,6.006567,7.778272,3.157007,0.376831,0.394775,0.019141,0.129199,0.105273,0.519189,please
1616135534.8804414,1,-4.0,5.0,-11.0,-9.0,-8.0,0.810791,0.48584,-0.321777,0.054565,-0.038168,0.0,0.015267,6.047241,7.820142,3.186914,0.413916,0.442627,0.043066,0.126807,0.101685,0.583789,please
1616135534.8902876,1,-7.0,5.0,-7.0,-9.0,-7.0,0.811096,0.485168,-0.321899,0.054749,-0.045802,0.007634,0.015267,6.109448,7.852441,3.232373,0.471338,0.484497,0.077759,0.13877,0.08374,0.660352,please
1616135534.900595,1,-5.0,3.0,-10.0,-7.0,-7.0,0.811523,0.484436,-0.322021,0.054993,-0.053435,0.015267,0.022901,6.202759,7.882349,3.286206,0.557471,0.523975,0.118433,0.172266,0.052637,0.752466,please
1616135534.9105031,1,-5.0,3.0,-7.0,-9.0,-6.0,0.812012,0.483521,-0.322083,0.055359,-0.053435,0.022901,0.022901,6.322388,7.890723,3.342432,0.671118,0.544312,0.15791,0.234473,0.007178,0.845776,please
1616135534.920432,1,-5.0,4.0,-6.0,-10.0,-15.0,0.812561,0.482544,-0.322083,0.055908,-0.061069,0.038168,0.030534,6.457568,7.890723,3.393872,0.799121,0.557471,0.19021,0.314624,-0.037085,0.940283,please
1616135534.9305758,1,-3.0,4.0,-8.0,-9.0,-7.0,0.813171,0.481445,-0.322021,0.056702,-0.061069,0.045802,0.038168,6.609497,7.881152,3.421387,0.94148,0.564648,0.197388,0.419897,-0.066992,1.030005,please
1616135534.9405904,1,-5.0,4.0,-10.0,-11.0,-6.0,0.813843,0.480286,-0.321899,0.057739,-0.061069,0.061069,0.053435,6.778174,7.873975,3.469238,1.09939,0.576611,0.221313,0.527563,-0.110059,1.138867,please
1616135534.9505162,1,-3.0,1.0,-7.0,-12.0,-6.0,0.814514,0.479004,-0.321777,0.059143,-0.061069,0.076336,0.068702,6.948047,7.841675,3.525464,1.254907,0.567041,0.252417,0.637622,-0.168677,1.233374,please
1616135534.960544,1,-4.0,1.0,-11.0,-10.0,-6.0,0.815247,0.477539,-0.321716,0.060913,-0.061069,0.083969,0.091603,7.093994,7.76272,3.564941,1.38291,0.515601,0.263184,0.753662,-0.226099,1.275244,please
1616135534.970518,1,-3.0,5.0,-6.0,-9.0,-7.0,0.81604,0.476074,-0.321594,0.06311,-0.045802,0.099237,0.10687,7.226782,7.650269,3.617578,1.494165,0.433057,0.287109,0.861328,-0.305054,1.2896,please
1616135534.980307,1,-5.0,3.0,-10.0,-12.0,-9.0,0.816711,0.474609,-0.321411,0.065735,-0.038168,0.114504,0.122137,7.334448,7.49834,3.66543,1.577905,0.314624,0.305054,0.966602,-0.391187,1.260889,please
1616135534.990593,1,-3.0,3.0,-7.0,-7.0,-7.0,0.817444,0.473145,-0.321106,0.068726,-0.022901,0.137405,0.129771,7.430151,7.328467,3.704907,1.64729,0.179443,0.313428,1.071875,-0.47373,1.210644,please
1616135535.0005198,1,-7.0,1.0,-10.0,-12.0,-7.0,0.818176,0.47168,-0.320679,0.072083,-0.015267,0.152672,0.137405,7.506714,7.153809,3.762329,1.697534,0.04187,0.33855,1.158008,-0.567041,1.154419,please
1616135535.0105927,1,-6.0,5.0,-8.0,18.0,-8.0,0.819031,0.470154,-0.320007,0.075684,-0.015267,0.175573,0.145038,7.576098,6.944458,3.844873,1.740601,-0.128003,0.384009,1.244141,-0.691455,1.079053,please
1616135535.0205443,1,-5.0,3.0,-8.0,-10.0,-6.0,0.820007,0.468384,-0.319153,0.079529,-0.022901,0.19084,0.145038,7.626343,6.677686,3.93938,1.765723,-0.351709,0.435449,1.338647,-0.846973,0.958228,please
1616135535.0304503,1,-4.0,5.0,-8.0,-10.0,-6.0,0.821045,0.466553,-0.318054,0.083496,-0.022901,0.206107,0.145038,7.633521,6.339136,4.002783,1.751367,-0.647192,0.452197,1.452295,-1.006079,0.752466,please
1616135535.0403976,1,-3.0,5.0,-7.0,-8.0,-6.0,0.822205,0.464661,-0.316772,0.087585,-0.015267,0.229008,0.137405,7.597632,5.890527,4.048242,1.693945,-1.052734,0.446216,1.592261,-1.202271,0.437842,please
1616135535.0506322,1,-4.0,1.0,-9.0,-9.0,-6.0,0.823364,0.46283,-0.315247,0.091919,0.007634,0.244275,0.137405,7.495947,5.329468,4.076953,1.574316,-1.570728,0.423486,1.746582,-1.439136,0.002393,please
1616135535.060449,1,-4.0,5.0,-7.0,-8.0,-5.0,0.824402,0.461304,-0.313354,0.096497,0.045802,0.259542,0.129771,7.283008,4.703809,4.109253,1.347021,-2.156909,0.404346,1.850659,-1.704712,-0.540723,please
1616135535.07048,1,-7.0,0.0,-10.0,-11.0,-6.0,0.825134,0.46051,-0.311157,0.101257,0.099237,0.267176,0.114504,6.96001,4.030298,4.079346,1.013257,-2.799316,0.332568,1.926025,-1.948755,-1.208252,please
1616135535.0803354,1,-4.0,4.0,-7.0,-12.0,-6.0,0.825378,0.460693,-0.308533,0.106079,0.175573,0.267176,0.091603,6.52815,3.418994,4.037476,0.579004,-3.391479,0.263184,1.904492,-2.155713,-1.903296,please
1616135535.090592,1,-3.0,1.0,-6.0,-11.0,-6.0,0.825134,0.461975,-0.305603,0.110718,0.251908,0.251908,0.061069,6.004175,2.922534,4.001587,0.058618,-3.885547,0.215332,1.765723,-2.316016,-2.580395,please
1616135535.1004934,1,-4.0,7.0,-7.0,-10.0,-7.0,0.824402,0.464417,-0.302368,0.114868,0.312977,0.221374,0.015267,5.385694,2.610303,3.980054,-0.545508,-4.212134,0.19978,1.470239,-2.399756,-3.185718,please
1616135535.1103342,1,-5.0,5.0,-10.0,-8.0,-7.0,0.823242,0.467896,-0.298889,0.11792,0.351145,0.183206,-0.045802,4.65835,2.562451,3.926221,-1.245337,-4.295874,0.168677,0.982153,-2.329175,-3.691748,please
1616135535.1205912,1,-7.0,5.0,-7.0,-12.0,-6.0,0.821838,0.472412,-0.295227,0.119202,0.358779,0.10687,-0.129771,3.82334,2.813672,3.730029,-2.034888,-4.105664,0.011963,0.321802,-1.996606,-4.110449,please
1616135535.1304758,1,-4.0,5.0,-10.0,-8.0,-6.0,0.820129,0.477722,-0.291687,0.118225,0.328244,0.022901,-0.229008,3.008667,3.307739,3.411816,-2.786157,-3.695337,-0.245239,-0.397168,-1.459473,-4.379614,please
1616135535.140597,1,-3.0,5.0,-7.0,-10.0,-6.0,0.818481,0.483337,-0.288452,0.114868,0.274809,-0.061069,-0.320611,2.271753,3.97168,3.013452,-3.44292,-3.131885,-0.575415,-1.107764,-0.778784,-4.488477,please
1616135535.1505313,1,-4.0,3.0,-10.0,-9.0,-7.0,0.816956,0.489014,-0.285461,0.109192,0.21374,-0.129771,-0.40458,1.638916,4.701416,2.509815,-3.977661,-2.516992,-1.004883,-1.720264,0.013159,-4.494458,please
1616135535.1604152,1,-5.0,4.0,-8.0,-8.0,-7.0,0.81543,0.494812,-0.282471,0.101685,0.167939,-0.167939,-0.480916,1.134082,5.379712,1.96311,-4.366455,-1.965503,-1.472632,-2.172461,0.806299,-4.439429,please
1616135535.1703217,1,-4.0,4.0,-6.0,-9.0,-6.0,0.813904,0.500671,-0.279419,0.09314,0.145038,-0.183206,-0.534351,0.758447,5.959912,1.454687,-4.612891,-1.516895,-1.899707,-2.470337,1.50852,-4.335351,please
1616135535.1806333,1,-3.0,4.0,-10.0,-12.0,-7.0,0.812256,0.506897,-0.27594,0.084167,0.167939,-0.167939,-0.564885,0.387598,6.49585,0.996509,-4.841382,-1.11853,-2.274146,-2.743091,2.142554,-4.210938,please
1616135535.190506,1,-4.0,6.0,-7.0,-7.0,-7.0,0.810242,0.513855,-0.271667,0.074829,0.21374,-0.152672,-0.603053,-0.015552,7.093994,0.617285,-5.083032,-0.667529,-2.560059,-3.078052,2.729932,-3.987231,please
1616135535.200443,1,0.0,5.0,-7.0,-7.0,-6.0,0.8078,0.521606,-0.266541,0.065369,0.267176,-0.122137,-0.633588,-0.403149,7.724439,0.346924,-5.291186,-0.191406,-2.726343,-3.432153,3.219214,-3.648682,please
1616135535.2105098,1,-4.0,4.0,-6.0,-12.0,-7.0,0.804871,0.530151,-0.260742,0.055664,0.312977,-0.114504,-0.656489,-0.759644,8.478101,0.166284,-5.450293,0.398364,-2.790942,-3.81377,3.652271,-3.122314,please
1616135535.2204666,1,-7.0,-1.0,-7.0,-7.0,-7.0,0.801453,0.539062,-0.2547,0.045776,0.335878,-0.129771,-0.671756,-1.079053,9.32268,0.123218,-5.562744,1.082642,-2.708398,-4.221704,3.970483,-2.4177,please
1616135535.2303584,1,-5.0,3.0,20.0,-12.0,-6.0,0.797791,0.548035,-0.248596,0.035461,0.335878,-0.160305,-0.679389,-1.323096,10.213916,0.189014,-5.590259,1.817163,-2.511011,-4.582983,4.166675,-1.569531,please
1616135535.2405715,1,-5.0,1.0,-8.0,-10.0,-7.0,0.794006,0.556641,-0.24292,0.024841,0.328244,-0.19084,-0.671756,-1.427173,11.082422,0.372046,-5.477808,2.537329,-2.196387,-4.823438,4.19419,-0.628052,please
1616135535.2505133,1,-4.0,4.0,-8.0,-8.0,-6.0,0.790039,0.56488,-0.237793,0.014099,0.320611,-0.221374,-0.656489,-1.380518,11.862402,0.611304,-5.218213,3.180933,-1.825537,-4.894019,4.075757,0.319409,please
1616135535.2605147,1,-4.0,1.0,-7.0,-10.0,-6.0,0.785889,0.572571,-0.233459,0.003479,0.305344,-0.259542,-0.618321,-1.222607,12.529932,0.815869,-4.856934,3.725244,-1.48938,-4.801904,3.896313,1.193897,please
1616135535.270369,1,-5.0,5.0,-5.0,-11.0,-7.0,0.781372,0.579956,-0.230164,-0.006714,0.328244,-0.29771,-0.580153,-0.946265,13.104151,1.012061,-4.39397,4.191797,-1.155615,-4.577002,3.63313,2.009766,please
1616135535.2803442,1,-5.0,3.0,-7.0,-8.0,-6.0,0.776367,0.58728,-0.228088,-0.016357,0.351145,-0.351145,-0.51145,-0.594556,13.735791,1.10896,-3.875977,4.725342,-0.910376,-4.275537,3.422583,2.857934,please
1616135535.2904274,1,-6.0,1.0,-7.0,-10.0,-6.0,0.770996,0.594055,-0.227783,-0.025574,0.328244,-0.419847,-0.427481,-0.198584,14.515772,1.111353,-3.342432,5.423975,-0.752466,-3.957324,3.30415,3.814966,please
1616135535.3002894,1,-5.0,4.0,-7.0,-10.0,-7.0,0.765564,0.599976,-0.229492,-0.034302,0.290076,-0.496183,-0.320611,0.313428,15.313696,1.019238,-2.726343,6.156104,-0.691455,-3.532642,3.226392,4.785156,please
1616135535.3104663,1,-5.0,0.0,-12.0,-8.0,-7.0,0.760254,0.604797,-0.233276,-0.042236,0.251908,-0.557252,-0.206107,0.968994,16.033863,0.917554,-2.006177,6.828418,-0.645996,-3.006274,3.084033,5.701514,please
1616135535.3205433,1,-6.0,1.0,-10.0,-8.0,-6.0,0.755188,0.608459,-0.238708,-0.048828,0.221374,-0.572519,-0.091603,1.807593,16.531519,0.893628,-1.142456,7.296167,-0.531152,-2.363867,2.749072,6.453979,please
1616135535.3303237,1,-3.0,5.0,-10.0,-9.0,-6.0,0.750549,0.611084,-0.245483,-0.053467,0.206107,-0.541985,0.022901,2.853149,16.722925,1.004883,-0.117236,7.47561,-0.293091,-1.617383,2.15332,6.97915,please
1616135535.340363,1,-4.0,6.0,-8.0,-9.0,-6.0,0.746338,0.613037,-0.253052,-0.055847,0.229008,-0.480916,0.129771,4.036279,16.689428,1.317114,1.004883,7.444507,0.137573,-0.880469,1.284814,7.348804,please
1616135535.3505173,1,-4.0,5.0,-5.0,-10.0,-6.0,0.74292,0.613708,-0.261169,-0.056091,0.19084,-0.419847,0.236641,5.301953,16.371216,1.69873,2.173657,7.146631,0.618481,-0.113647,0.293091,7.487573,please
1616135535.3604212,1,-4.0,6.0,-6.0,-11.0,-7.0,0.739563,0.614441,-0.269348,-0.053894,0.282443,-0.335878,0.290076,6.628638,15.875952,2.093506,3.372339,6.683667,1.114941,0.665137,-0.768018,7.499536,please
1616135535.3704543,1,-4.0,6.0,-8.0,-10.0,-7.0,0.73584,0.615723,-0.277283,-0.050232,0.343511,-0.274809,0.29771,8.037867,15.390259,2.448804,4.643994,6.236255,1.586279,1.491772,-1.845874,7.571313,please
1616135535.3804593,1,-1.0,7.0,-8.0,-7.0,-6.0,0.732178,0.616943,-0.284912,-0.045471,0.351145,-0.221374,0.29771,9.491358,15.125879,2.826831,5.951538,6.017334,2.077954,2.260986,-2.899805,7.899096,please
1616135535.3902535,1,-3.0,4.0,-7.0,-12.0,-9.0,0.729309,0.617371,-0.292114,-0.040283,0.282443,-0.183206,0.305344,10.850342,15.134253,3.079248,7.160986,6.078345,2.421289,2.927319,-3.701318,8.473315,please
1616135535.40047,1,-4.0,4.0,-9.0,-7.0,-6.0,0.727722,0.61615,-0.299255,-0.035156,0.122137,-0.167939,0.335878,12.013135,15.240723,3.119922,8.168262,6.245825,2.515796,3.495557,-4.145142,9.090601,please
1616135535.410318,1,-4.0,3.0,-10.0,-9.0,-6.0,0.728027,0.612366,-0.306641,-0.030457,-0.091603,-0.160305,0.381679,12.939062,15.139038,2.98833,8.927905,6.217114,2.380615,4.020728,-4.283911,9.459058,please
1616135535.4203155,1,-5.0,7.0,-7.0,-10.0,-7.0,0.730286,0.605957,-0.314209,-0.025879,-0.305344,-0.129771,0.427481,13.562329,14.661718,2.652173,9.371729,5.828321,1.984644,4.535132,-4.10686,9.394458,please
1616135535.4304397,1,-5.0,5.0,-10.0,-7.0,-6.0,0.734253,0.597595,-0.321289,-0.02124,-0.458015,-0.045802,0.450382,13.856616,13.76211,2.223901,9.480591,5.028003,1.446314,5.020825,-3.752759,8.827417,please
1616135535.4402544,1,-8.0,4.0,-4.0,-9.0,-6.0,0.739563,0.588074,-0.326965,-0.016052,-0.549618,0.076336,0.435115,13.868579,12.561035,1.826733,9.31311,3.933398,0.900806,5.444312,-3.365161,7.875171,please
1616135535.4502015,1,-5.0,3.0,-10.0,-9.0,-9.0,0.746033,0.577881,-0.330688,-0.010315,-0.610687,0.221374,0.412214,13.631714,11.277417,1.492969,8.912354,2.759839,0.381616,5.755347,-2.953638,6.732715,please
1616135535.4603348,1,-3.0,3.0,-7.0,-7.0,-6.0,0.753479,0.567261,-0.332275,-0.003967,-0.656489,0.366412,0.381679,13.196264,9.944751,1.238159,8.332153,1.54082,-0.089722,5.964697,-2.564844,5.443115,please
1616135535.46969,1,-4.0,6.0,-10.0,-8.0,-6.0,0.76178,0.556519,-0.331543,0.002869,-0.671756,0.51145,0.328244,12.537109,8.59773,1.024023,7.554565,0.30625,-0.550293,6.054419,-2.170068,4.009961,please
1616135535.48026,1,-7.0,1.0,-8.0,-8.0,-7.0,0.770569,0.546021,-0.328491,0.009583,-0.70229,0.618321,0.259542,11.700903,7.493555,0.92832,6.637012,-0.690259,-0.911572,5.912061,-1.788452,2.680884,please
1616135535.4904747,1,-5.0,4.0,-5.0,-10.0,-6.0,0.779907,0.535583,-0.323425,0.015747,-0.687023,0.70229,0.175573,10.822827,6.424072,0.959424,5.713477,-1.662842,-1.167578,5.700317,-1.558765,1.353003,please
1616135535.4995632,1,-4.0,5.0,-7.0,-10.0,-7.0,0.789368,0.525269,-0.316956,0.02124,-0.717557,0.725191,0.122137,9.863403,5.603418,1.008472,4.740893,-2.390186,-1.412817,5.334253,-1.296777,0.178247,please
1616135535.5102105,1,-5.0,3.0,-6.0,-10.0,-7.0,0.798889,0.514526,-0.310242,0.025635,-0.755725,0.694656,0.091603,8.953028,4.877271,1.137671,3.836499,-3.023022,-1.585083,4.925122,-1.156811,-0.874487,please
1616135535.5195854,1,-4.0,5.0,-10.0,-11.0,-7.0,0.808228,0.503296,-0.304138,0.029358,-0.770992,0.625954,0.099237,8.145533,4.079346,1.326685,3.037378,-3.718066,-1.693945,4.566236,-1.204663,-1.897314,please
1616135535.530416,1,-5.0,4.0,-8.0,-13.0,-6.0,0.816895,0.491943,-0.299316,0.032898,-0.725191,0.534351,0.137405,7.446899,3.1271,1.524072,2.336353,-4.555469,-1.776489,4.310229,-1.440332,-2.951245,please
1616135535.5395234,1,-5.0,3.0,-8.0,-10.0,-6.0,0.824463,0.480957,-0.295837,0.036865,-0.641221,0.458015,0.19084,6.869092,2.067188,1.661646,1.740601,-5.490967,-1.887744,4.18103,-1.78606,-4.007568,please
1616135535.549605,1,-5.0,4.0,-8.0,-7.0,-6.0,0.830383,0.471497,-0.293762,0.042175,-0.465649,0.40458,0.267176,6.396558,1.092212,1.740601,1.225,-6.337939,-2.009766,4.109253,-2.125806,-4.927515,please
1616135535.560263,1,-1.0,4.0,-9.0,-56.0,-6.0,0.834473,0.464417,-0.29248,0.048889,-0.259542,0.374046,0.328244,5.996997,0.480908,1.759741,0.768018,-6.834399,-2.135376,3.992017,-2.28252,-5.540015,please
1616135535.5695722,1,-4.0,6.0,-7.0,-10.0,-6.0,0.836609,0.460266,-0.291504,0.056824,-0.045802,0.351145,0.358779,5.593848,0.342139,1.733423,0.300269,-6.879858,-2.247827,3.725244,-2.16648,-5.821143,please
1616135535.580305,1,-3.0,6.0,-2.0,-8.0,-6.0,0.837097,0.458923,-0.290344,0.065369,0.137405,0.328244,0.366412,5.147632,0.678296,1.664038,-0.203369,-6.479102,-2.354297,3.270654,-1.76333,-5.807983,please
1616135535.589458,1,-3.0,5.0,-4.0,-10.0,-8.0,0.836365,0.459839,-0.289001,0.073669,0.244275,0.29771,0.335878,4.670312,1.39248,1.513306,-0.730933,-5.727832,-2.503833,2.667725,-1.105371,-5.590259,please
1616135535.5994864,1,-3.0,4.0,-7.0,-9.0,-6.0,0.834778,0.462341,-0.287537,0.08136,0.305344,0.259542,0.312977,4.207349,2.189209,1.366162,-1.233374,-4.916748,-2.622266,2.022925,-0.441431,-5.316308,please
1616135535.6104586,1,-1.0,5.0,-4.0,-10.0,-9.0,0.832764,0.465393,-0.286377,0.088379,0.320611,0.206107,0.29771,3.720459,3.032593,1.294385,-1.759741,-4.067383,-2.650977,1.284814,0.156714,-4.998096,please
1616135535.6196606,1,-3.0,3.0,-6.0,-9.0,-6.0,0.830505,0.46875,-0.285645,0.094482,0.312977,0.137405,0.290076,3.135474,3.820947,1.269263,-2.381812,-3.280225,-2.624658,0.45459,0.668726,-4.760034,please
1616135535.6295671,1,-4.0,5.0,-7.0,-11.0,-6.0,0.828003,0.472168,-0.2854,0.099609,0.29771,0.068702,0.267176,2.44043,4.481299,1.324292,-3.112744,-2.623462,-2.508618,-0.453394,1.027612,-4.646387,please
1616135535.63976,1,-3.0,6.0,-6.0,-9.0,-6.0,0.8255,0.475708,-0.285339,0.103699,0.29771,0.022901,0.236641,1.699927,4.995703,1.472632,-3.883154,-2.121021,-2.294482,-1.37334,1.211841,-4.634424,please
1616135535.6495156,1,-5.0,3.0,-7.0,-10.0,-6.0,0.82312,0.479431,-0.285034,0.106445,0.282443,-0.015267,0.167939,0.964209,5.451489,1.624561,-4.634424,-1.687964,-2.076758,-2.256201,1.345825,-4.661939,please
1616135535.6596367,1,-3.0,6.0,-8.0,-8.0,-6.0,0.820557,0.484131,-0.283813,0.108093,0.351145,-0.015267,0.061069,0.312231,5.703906,1.898511,-5.276831,-1.481006,-1.727441,-3.008667,1.239355,-4.734912,please
1616135535.6695244,1,-5.0,6.0,-4.0,-8.0,-7.0,0.817871,0.490051,-0.281189,0.108337,0.40458,0.0,-0.068702,-0.368457,5.969482,2.06958,-5.915649,-1.288403,-1.471436,-3.736011,1.211841,-4.834204,please
1616135535.6796613,1,-5.0,4.0,-6.0,-13.0,-7.0,0.815002,0.49762,-0.276917,0.106812,0.473282,0.015267,-0.221374,-1.02522,6.346313,2.204761,-6.489868,-1.022827,-1.238159,-4.45857,1.242944,-4.822241,please
1616135535.6894453,1,-3.0,6.0,-8.0,-7.0,-6.0,0.81189,0.506592,-0.271057,0.103333,0.519084,0.007634,-0.366412,-1.606616,6.800903,2.299268,-6.945654,-0.710596,-1.030005,-5.115332,1.315918,-4.678687,please
1616135535.6995409,1,-4.0,3.0,-7.0,-7.0,-6.0,0.808472,0.516357,-0.264648,0.098145,0.526718,-0.038168,-0.450382,-2.124609,7.50791,2.338745,-7.310523,-0.165088,-0.861328,-5.792432,1.527661,-4.279126,please
1616135535.7103488,1,-5.0,3.0,-7.0,-8.0,-7.0,0.804871,0.526123,-0.258667,0.091431,0.480916,-0.114504,-0.480916,-2.513403,8.317798,2.308838,-7.536621,0.480908,-0.752466,-6.361865,1.820752,-3.713281,please
1616135535.7197146,1,0.0,5.0,-5.0,-7.0,-7.0,0.801331,0.535278,-0.253662,0.083435,0.419847,-0.206107,-0.48855,-2.751465,9.131274,2.307642,-7.610791,1.138867,-0.614893,-6.791333,2.071973,-3.027808,please
1616135535.7294464,1,-9.0,5.0,-7.0,-10.0,-6.0,0.797852,0.543579,-0.249756,0.074341,0.351145,-0.282443,-0.496183,-2.829224,9.928003,2.348315,-7.525855,1.790845,-0.436646,-7.062891,2.257397,-2.244238,please
1616135535.7396357,1,-3.0,4.0,-7.0,-7.0,-9.0,0.794617,0.551086,-0.24646,0.064026,0.274809,-0.328244,-0.534351,-2.762231,10.675684,2.37583,-7.291382,2.400952,-0.279932,-7.151416,2.415308,-1.418799,please
1616135535.7496076,1,-6.0,1.0,-7.0,-9.0,-6.0,0.791687,0.557861,-0.243347,0.052795,0.229008,-0.358779,-0.580153,-2.536133,11.249903,2.310034,-6.889429,2.844775,-0.228491,-6.96958,2.560059,-0.679492,please
1616135535.7596595,1,-4.0,5.0,-7.0,-9.0,-8.0,0.788696,0.564331,-0.240234,0.040894,0.198473,-0.366412,-0.625954,-2.170068,11.69253,2.174854,-6.335547,3.160596,-0.250024,-6.559253,2.67251,-0.003589,please
1616135535.7694485,1,-3.0,6.0,-7.0,-9.0,-6.0,0.785645,0.570618,-0.237183,0.028687,0.198473,-0.366412,-0.656489,-1.68916,11.982031,1.99541,-5.662036,3.328076,-0.318213,-5.95752,2.721558,0.567041,please
1616135535.7796493,1,-4.0,2.0,-7.0,-7.0,-7.0,0.782166,0.577087,-0.234131,0.016724,0.236641,-0.358779,-0.664122,-1.132886,12.169848,1.794434,-4.910767,3.398657,-0.401953,-5.236157,2.696435,1.05752,please
1616135535.7895908,1,0.0,7.0,-7.0,-10.0,-6.0,0.778076,0.583923,-0.231384,0.00531,0.274809,-0.358779,-0.648855,-0.509619,12.293066,1.542017,-4.098486,3.411816,-0.523975,-4.422681,2.635425,1.47981,please
1616135535.799602,1,9.0,5.0,-7.0,-11.0,-6.0,0.773376,0.590942,-0.229309,-0.00531,0.320611,-0.358779,-0.603053,0.160303,12.439013,1.268066,-3.253906,3.457275,-0.655566,-3.582886,2.548096,1.905689,please
1616135535.8094451,1,-4.0,8.0,-7.0,-9.0,-6.0,0.768005,0.598145,-0.22821,-0.015015,0.351145,-0.381679,-0.541985,0.850561,12.706983,0.949854,-2.40813,3.635522,-0.815869,-2.763428,2.488281,2.416504,please
1616135535.8196688,1,-5.0,7.0,-7.0,-7.0,-6.0,0.762207,0.605286,-0.22821,-0.023865,0.374046,-0.396947,-0.473282,1.561157,13.142431,0.606519,-1.564746,3.992017,-0.990527,-1.983447,2.453589,3.066089,please
1616135535.8295276,1,-5.0,5.0,-11.0,-8.0,-7.0,0.756165,0.612061,-0.229126,-0.031982,0.366412,-0.412214,-0.427481,2.329175,13.754931,0.34812,-0.681885,4.539917,-1.079053,-1.245337,2.335156,3.901099,please
1616135535.839645,1,-5.0,5.0,-7.0,-7.0,-6.0,0.750366,0.618164,-0.230652,-0.03949,0.328244,-0.412214,-0.389313,3.110352,14.362646,0.110059,0.196191,5.092603,-1.156811,-0.517993,2.168872,4.725342,please
1616135535.8494298,1,2.0,5.0,-6.0,-7.0,-6.0,0.745117,0.623413,-0.2323,-0.046326,0.274809,-0.381679,-0.358779,3.933398,14.905762,-0.008374,1.106567,5.590259,-1.131689,0.205762,1.850659,5.50293,please
1616135535.8594382,1,-5.0,4.0,-8.0,-8.0,-6.0,0.740601,0.627686,-0.233948,-0.052368,0.221374,-0.335878,-0.328244,4.984937,15.355566,0.120825,2.232275,6.002978,-0.882861,1.041968,1.209448,6.26377,please
1616135535.869396,1,-7.0,1.0,-10.0,-9.0,-8.0,0.737122,0.630737,-0.235657,-0.057129,0.183206,-0.274809,-0.290076,5.821143,15.530225,-0.016748,3.122314,6.153711,-0.929517,1.833911,0.864917,6.659741,please
1616135535.8794842,1,-3.0,5.0,-6.0,-8.0,-6.0,0.734131,0.633362,-0.237061,-0.060486,0.152672,-0.19084,-0.251908,6.848755,15.539795,0.057422,4.188208,6.144141,-0.777588,2.716773,0.240454,6.96001,please
1616135535.8893285,1,-5.0,5.0,-7.0,-9.0,-6.0,0.731812,0.635498,-0.238098,-0.061829,0.145038,-0.083969,-0.19084,7.899096,15.432129,0.19978,5.252905,6.0281,-0.571826,3.581689,-0.436646,7.156201,please
1616135535.8994884,1,-5.0,5.0,-6.0,-10.0,-6.0,0.730103,0.637207,-0.238892,-0.061096,0.152672,0.007634,-0.122137,8.95542,15.351977,0.425879,6.299658,5.946753,-0.295483,4.378418,-1.140064,7.39187,please
1616135535.9094968,1,-5.0,5.0,-6.0,-7.0,-8.0,0.729126,0.638306,-0.239624,-0.058533,0.10687,0.083969,-0.038168,9.797607,15.340014,0.623267,7.104761,5.943164,-0.0646,4.955029,-1.661646,7.645483,please
1616135535.9193425,1,-4.0,4.0,-10.0,-7.0,-6.0,0.728882,0.638611,-0.240601,-0.054382,0.076336,0.145038,0.053435,10.477099,15.279004,0.848169,7.719653,5.898901,0.175854,5.360571,-2.091113,7.828516,please
1616135535.9294877,1,-3.0,3.0,-8.0,-10.0,-6.0,0.729675,0.637573,-0.242004,-0.048889,-0.007634,0.183206,0.160305,10.894605,15.21919,1.075464,8.043848,5.867798,0.391187,5.506518,-2.342334,7.964892,please
1616135535.9395382,1,0.0,6.0,-4.0,-10.0,-6.0,0.73175,0.635071,-0.243713,-0.042603,-0.10687,0.198473,0.251908,11.048925,15.095972,1.333862,8.083325,5.784058,0.60293,5.415601,-2.455981,7.986426,please
1616135535.9494553,1,-3.0,6.0,-8.0,-8.0,-6.0,0.735046,0.630737,-0.245911,-0.035828,-0.229008,0.21374,0.328244,10.95083,14.7969,1.616186,7.850049,5.536426,0.799121,5.128491,-2.458374,7.780664,please
1616135535.9596534,1,-3.0,5.0,-7.0,-7.0,-6.0,0.739685,0.624817,-0.248169,-0.028992,-0.343511,0.221374,0.381679,10.640991,14.259766,1.893726,7.397851,5.059106,0.952246,4.737305,-2.377026,7.287793,please
1616135535.9693904,1,-4.0,4.0,-6.0,-8.0,-7.0,0.745239,0.617493,-0.250488,-0.022278,-0.435115,0.229008,0.412214,10.162476,13.427149,2.148535,6.772192,4.297071,1.051538,4.306641,-2.25979,6.462354,please
1616135535.9793518,1,1.0,5.0,-5.0,-8.0,-6.0,0.751404,0.609314,-0.252625,-0.015381,-0.480916,0.251908,0.435115,9.596631,12.383985,2.378223,6.059204,3.334058,1.105371,3.892725,-2.152124,5.408423,please
1616135535.9893389,1,-1.0,1.0,-6.0,-9.0,-7.0,0.757751,0.600769,-0.254517,-0.008484,-0.503817,0.259542,0.442748,8.933887,11.400635,2.555274,5.252905,2.435645,1.09939,3.422583,-1.993018,4.362866,please
1616135535.9994235,1,-3.0,5.0,-6.0,-8.0,-7.0,0.764221,0.591858,-0.256104,-0.002014,-0.534351,0.259542,0.427481,8.241236,10.450781,2.70481,4.427466,1.574316,1.056323,2.957227,-1.838696,3.325684,please
1616135536.0093524,1,-5.0,4.0,-7.0,-14.0,-25.0,0.770752,0.582764,-0.257324,0.003784,-0.564885,0.244275,0.396947,7.568921,9.681567,2.84956,3.637915,0.896021,1.003687,2.487085,-1.685571,2.451196,please
1616135536.0193074,1,-3.0,4.0,-4.0,-11.0,-6.0,0.777588,0.573059,-0.258484,0.008545,-0.625954,0.21374,0.366412,6.980347,9.054712,2.921338,2.944067,0.363672,0.86731,2.097095,-1.484595,1.715479,please
1616135536.0293734,1,1.0,5.0,-10.0,-8.0,45.0,0.784668,0.562805,-0.259521,0.012329,-0.687023,0.19084,0.335878,6.392969,8.469727,2.903394,2.264575,-0.123218,0.631641,1.747778,-1.223804,0.991724,please
1616135536.0394633,1,-3.0,3.0,-10.0,-8.0,-6.0,0.79187,0.551941,-0.260742,0.01532,-0.732824,0.160305,0.320611,5.840283,7.884741,2.801709,1.626953,-0.60293,0.305054,1.471436,-0.933105,0.25481,please
1616135536.0493324,1,-5.0,5.0,-8.0,-8.0,-8.0,0.79895,0.540771,-0.262329,0.017639,-0.755725,0.114504,0.312977,5.321094,7.268652,2.68208,1.02522,-1.107764,-0.035889,1.242944,-0.689062,-0.507227,please
1616135536.0594912,1,-3.0,3.0,-5.0,-7.0,-6.0,0.805908,0.529297,-0.264404,0.019653,-0.770992,0.076336,0.328244,4.769605,6.571216,2.581592,0.388794,-1.686768,-0.356494,1.003687,-0.52876,-1.354199,please
1616135536.0694962,1,-3.0,5.0,-6.0,-7.0,-53.0,0.812256,0.518127,-0.266907,0.021912,-0.694656,0.061069,0.358779,4.275537,5.616577,2.531348,-0.196191,-2.516992,-0.608911,0.86731,-0.595752,-2.373437,please
1616135536.0794916,1,-3.0,4.0,-7.0,-8.0,-6.0,0.817627,0.507996,-0.269653,0.025269,-0.587786,0.061069,0.40458,3.819751,4.70979,2.548096,-0.752466,-3.296973,-0.768018,0.715381,-0.766821,-3.30415,please
1616135536.089509,1,-1.0,5.0,-6.0,-8.0,-7.0,0.821838,0.499268,-0.272583,0.029846,-0.427481,0.068702,0.450382,3.374732,3.983643,2.558862,-1.307544,-3.898706,-0.897217,0.516797,-0.904395,-4.076953,please
1616135536.0993369,1,-1.0,6.0,-6.0,-9.0,-6.0,0.824524,0.492859,-0.275574,0.035461,-0.244275,0.061069,0.473282,2.926123,3.636719,2.623462,-1.8698,-4.135571,-0.925928,0.172266,-0.946265,-4.530347,please
1616135536.1094406,1,-3.0,4.0,-8.0,-8.0,-6.0,0.825928,0.488708,-0.277954,0.041565,-0.10687,0.068702,0.458015,2.45957,3.654663,2.695239,-2.438037,-4.029101,-0.907983,-0.301465,-0.840991,-4.710986,please
1616135536.119387,1,0.0,4.0,-13.0,-11.0,-6.0,0.826172,0.486572,-0.279846,0.047485,0.030534,0.061069,0.419847,2.009766,3.884351,2.752661,-2.973975,-3.733618,-0.869702,-0.821851,-0.648389,-4.736108,please
1616135536.1293912,1,-3.0,5.0,-7.0,-8.0,-8.0,0.825684,0.486206,-0.281128,0.052856,0.099237,0.045802,0.358779,1.612598,4.443017,2.777783,-3.440527,-3.133081,-0.838599,-1.400854,-0.295483,-4.505225,please
1616135536.9382665,1,-4.0,3.0,-6.0,-9.0,-6.0,0.809387,0.501343,-0.303711,0.035339,0.0,-0.007634,0.015267,5.372534,8.126391,3.069678,0.206958,0.382812,0.003589,0.027515,0.135181,0.411523,please
1616135536.948239,1,-1.0,6.0,-6.0,-10.0,-6.0,0.809204,0.501404,-0.303955,0.035706,0.007634,-0.007634,0.022901,5.388086,8.103662,3.033789,0.215332,0.363672,-0.026318,0.055029,0.14834,0.392383,please
1616135536.958518,1,-4.0,6.0,-6.0,-9.0,-6.0,0.809021,0.501587,-0.304199,0.036072,0.015267,0.0,0.015267,5.401245,8.084521,3.001489,0.22251,0.345728,-0.052637,0.078955,0.159106,0.373242,please
1616135536.9682636,1,-5.0,3.0,-7.0,-13.0,-7.0,0.808777,0.501892,-0.304382,0.036438,0.022901,0.0,0.015267,5.386889,8.057007,2.969189,0.203369,0.318213,-0.076563,0.08374,0.169873,0.334961,please
1616135536.9782634,1,-5.0,6.0,-4.0,-10.0,-7.0,0.808472,0.502258,-0.304443,0.036804,0.022901,0.0,0.007634,5.378516,8.04624,2.942871,0.191406,0.30625,-0.094507,0.086133,0.181836,0.313428,please
1616135536.9875686,1,-4.0,2.0,-5.0,-9.0,-7.0,0.808228,0.502625,-0.304443,0.037048,0.022901,0.0,0.0,5.368945,8.045044,2.951245,0.18064,0.303857,-0.078955,0.070581,0.169873,0.311035,please
1616135536.9982576,1,-3.0,6.0,-7.0,-8.0,-6.0,0.808105,0.50293,-0.304382,0.03717,0.015267,0.007634,-0.007634,5.36416,8.054614,2.987134,0.175854,0.309839,-0.038281,0.046655,0.139966,0.325391,please
1616135537.008288,1,-3.0,4.0,-8.0,-8.0,-6.0,0.807983,0.503235,-0.304077,0.03717,0.015267,0.007634,-0.015267,5.352197,8.070166,3.026611,0.169873,0.321802,0.002393,0.017944,0.113647,0.344531,please
1616135537.0174456,1,0.0,5.0,-6.0,-9.0,-6.0,0.807983,0.503479,-0.303711,0.037048,0.007634,0.015267,-0.022901,5.342627,8.080933,3.063696,0.166284,0.327783,0.039478,-0.002393,0.086133,0.358887,please
1616135537.0283904,1,-1.0,1.0,-7.0,-9.0,-6.0,0.808044,0.503662,-0.303284,0.036926,0.0,0.015267,-0.022901,5.346216,8.103662,3.105567,0.178247,0.345728,0.080151,-0.016748,0.057422,0.392383,please
1616135537.0382674,1,-3.0,4.0,-9.0,-9.0,-6.0,0.808105,0.503845,-0.302856,0.036804,0.0,0.015267,-0.022901,5.35459,8.168262,3.139062,0.193799,0.405542,0.112451,-0.040674,0.056226,0.456982,please
1616135537.0476968,1,-4.0,5.0,-10.0,43.0,20.0,0.808228,0.503906,-0.302429,0.036621,-0.007634,0.015267,-0.022901,5.368945,8.257983,3.171362,0.215332,0.491675,0.141162,-0.066992,0.069385,0.545508,please
1616135537.057561,1,-1.0,4.0,-7.0,-8.0,-7.0,0.808411,0.503845,-0.302063,0.036438,-0.015267,0.007634,-0.015267,5.400049,8.35249,3.191699,0.253613,0.583789,0.155518,-0.075366,0.093311,0.643604,please
1616135537.0676098,1,-1.0,5.0,-5.0,-9.0,-6.0,0.808594,0.503723,-0.301819,0.036255,-0.022901,0.007634,-0.015267,5.432349,8.429052,3.228784,0.290698,0.659155,0.186621,-0.086133,0.094507,0.732129,please
1616135537.0776825,1,-3.0,6.0,-6.0,-7.0,-6.0,0.808838,0.503418,-0.301636,0.036133,-0.030534,0.0,0.0,5.468237,8.481689,3.244336,0.328979,0.714185,0.194995,-0.077759,0.10647,0.799121,please
1616135537.0878575,1,-3.0,4.0,-7.0,-8.0,-6.0,0.809021,0.503113,-0.301697,0.036194,-0.030534,0.0,0.007634,5.517285,8.536718,3.271851,0.375635,0.772803,0.216528,-0.070581,0.10647,0.875684,please
1616135537.0982852,1,-4.0,5.0,-5.0,-10.0,-7.0,0.809204,0.502686,-0.301819,0.036316,-0.030534,0.0,0.022901,5.559155,8.585767,3.292187,0.413916,0.826636,0.230884,-0.065796,0.111255,0.942676,please
1616135537.1084971,1,-4.0,4.0,-7.0,-10.0,-6.0,0.809387,0.502258,-0.302063,0.036621,-0.030534,0.0,0.030534,5.601026,8.628833,3.29458,0.447412,0.87688,0.227295,-0.056226,0.132788,0.998901,please
1616135537.118363,1,-3.0,5.0,-8.0,-9.0,-6.0,0.80957,0.501709,-0.302429,0.037109,-0.030534,0.0,0.045802,5.653662,8.662329,3.311328,0.489282,0.921143,0.236865,-0.043066,0.137573,1.058716,please
1616135537.127668,1,-4.0,5.0,-6.0,-8.0,3.0,0.809753,0.501038,-0.302917,0.037842,-0.038168,0.0,0.061069,5.703906,8.680273,3.314917,0.523975,0.952246,0.233276,-0.026318,0.149536,1.100586,please
1616135537.1375847,1,-1.0,3.0,-4.0,-9.0,-6.0,0.809937,0.500305,-0.303528,0.038757,-0.038168,0.007634,0.076336,5.742188,8.683863,3.314917,0.543115,0.971387,0.226099,-0.016748,0.162695,1.123315,please
1616135537.147699,1,-3.0,3.0,-7.0,-10.0,-7.0,0.810181,0.499451,-0.304138,0.039856,-0.038168,0.007634,0.091603,5.77688,8.669507,3.314917,0.556274,0.974976,0.217725,-0.005981,0.169873,1.130493,please
1616135537.157654,1,-1.0,5.0,-6.0,-8.0,-6.0,0.810425,0.498535,-0.304871,0.041077,-0.038168,0.007634,0.099237,5.803198,8.650366,3.320899,0.558667,0.976172,0.214136,-0.004785,0.175854,1.130493,please
1616135537.1676605,1,0.0,5.0,-6.0,-9.0,-6.0,0.810669,0.497498,-0.305603,0.042358,-0.045802,0.007634,0.10687,5.833106,8.604907,3.320899,0.563452,0.953442,0.203369,0.008374,0.175854,1.111353,please
1616135537.1775854,1,-5.0,4.0,-6.0,-20.0,-6.0,0.810974,0.496338,-0.306519,0.043823,-0.053435,0.007634,0.114504,5.882154,8.543897,3.319702,0.582593,0.917554,0.19021,0.039478,0.16748,1.088623,please
1616135537.1876397,1,-3.0,1.0,-7.0,-7.0,-6.0,0.81134,0.495056,-0.307434,0.045288,-0.053435,0.007634,0.122137,5.939575,8.466138,3.318506,0.610107,0.866113,0.174658,0.084937,0.150732,1.058716,please
1616135537.1975243,1,0.0,6.0,-8.0,-8.0,-6.0,0.811707,0.493652,-0.308472,0.046936,-0.061069,0.007634,0.129771,6.01853,8.357275,3.289795,0.656763,0.787158,0.131592,0.168677,0.139966,1.009668,please
1616135537.2074845,1,-6.0,3.0,-6.0,-8.0,-6.0,0.812073,0.492188,-0.30957,0.048767,-0.061069,0.015267,0.137405,6.114233,8.218506,3.256299,0.715381,0.679492,0.082544,0.276343,0.11604,0.942676,please
1616135537.2175872,1,-3.0,7.0,-4.0,-9.0,-3.0,0.812439,0.490662,-0.310669,0.05072,-0.061069,0.022901,0.145038,6.239844,8.064184,3.22998,0.803906,0.558667,0.040674,0.409131,0.07417,0.88645,please
1616135537.2275832,1,-5.0,7.0,-5.0,-9.0,-8.0,0.812866,0.489075,-0.311829,0.052979,-0.053435,0.038168,0.152672,6.384595,7.897901,3.194092,0.907983,0.429468,-0.010767,0.562256,0.031104,0.830225,please
1616135537.237562,1,-1.0,3.0,-7.0,-9.0,-9.0,0.813232,0.487488,-0.312866,0.055542,-0.045802,0.045802,0.160305,6.538916,7.726831,3.162988,1.020435,0.29668,-0.059814,0.723755,-0.015552,0.778784,please
1616135537.2477882,1,-1.0,5.0,-8.0,-8.0,-6.0,0.813538,0.485962,-0.313843,0.05835,-0.038168,0.061069,0.167939,6.706397,7.534228,3.142651,1.146045,0.143555,-0.096899,0.898413,-0.084937,0.726147,please
1616135537.2574155,1,-3.0,4.0,-10.0,-7.0,-6.0,0.813904,0.484436,-0.314758,0.061462,-0.030534,0.076336,0.175573,6.863111,7.303345,3.123511,1.2573,-0.044263,-0.133984,1.07666,-0.169873,0.641211,please
1616135537.2675304,1,-4.0,5.0,-10.0,-11.0,-6.0,0.814148,0.483032,-0.315552,0.06488,-0.015267,0.083969,0.175573,6.970777,7.048535,3.093604,1.320703,-0.257202,-0.18064,1.233374,-0.247632,0.508423,please
1616135537.2776575,1,-4.0,6.0,-6.0,-9.0,-6.0,0.814392,0.48175,-0.316223,0.068359,-0.007634,0.099237,0.175573,7.031787,6.762622,3.074463,1.338647,-0.502441,-0.216528,1.36377,-0.343335,0.331372,please
1616135537.287552,1,-2.0,5.0,-6.0,-9.0,-6.0,0.814636,0.480408,-0.316711,0.07196,0.0,0.10687,0.167939,7.010254,6.442017,3.082837,1.275244,-0.781177,-0.226099,1.435547,-0.462964,0.093311,please
1616135537.2975209,1,-11.0,5.0,-6.0,-10.0,-7.0,0.815063,0.479004,-0.316956,0.075562,-0.007634,0.122137,0.160305,6.916944,6.069971,3.118726,1.143652,-1.112549,-0.214136,1.470239,-0.617285,-0.214136,please
1616135537.3076065,1,-3.0,9.0,-6.0,-8.0,-7.0,0.815613,0.4776,-0.316772,0.078857,-0.007634,0.129771,0.129771,6.748267,5.617774,3.176147,0.945068,-1.526465,-0.184229,1.482202,-0.821851,-0.616089,please
1616135537.3174534,1,0.0,4.0,-4.0,-39.0,-7.0,0.816406,0.476196,-0.316101,0.081909,-0.007634,0.145038,0.091603,6.519775,5.054321,3.296973,0.69624,-2.057617,-0.098096,1.484595,-1.131689,-1.112549,please
1616135537.3276176,1,-3.0,4.0,-7.0,-7.0,-8.0,0.817383,0.474976,-0.314819,0.084595,0.015267,0.167939,0.038168,6.224292,4.348511,3.45249,0.392383,-2.738306,0.016748,1.49895,-1.539624,-1.740601,please
1616135537.3375876,1,-5.0,5.0,-6.0,-13.0,-6.0,0.818298,0.474365,-0.312744,0.086792,0.061069,0.175573,-0.022901,5.803198,3.519482,3.543408,-0.019141,-3.556567,0.070581,1.514502,-1.957129,-2.554077,please
1616135537.3476124,1,-3.0,5.0,-7.0,-22.0,-6.0,0.818787,0.475037,-0.309814,0.088501,0.152672,0.183206,-0.10687,5.254102,2.673706,3.590064,-0.540723,-4.411914,0.094507,1.469043,-2.348315,-3.47522,please
1616135537.357468,1,-3.0,4.0,-8.0,-7.0,-6.0,0.818726,0.477417,-0.30603,0.089355,0.251908,0.175573,-0.198473,4.582983,1.967896,3.593652,-1.163989,-5.157202,0.096899,1.293188,-2.634228,-4.397559,please
1616135537.367505,1,-1.0,6.0,-6.0,-9.0,-6.0,0.817932,0.48175,-0.301453,0.08905,0.351145,0.145038,-0.29771,3.828125,1.434351,3.576904,-1.844678,-5.762525,0.107666,0.989331,-2.818457,-5.261279,please
1616135537.377698,1,0.0,4.0,-6.0,-8.0,-5.0,0.816467,0.487915,-0.296082,0.087341,0.435115,0.10687,-0.40458,3.006274,1.241748,3.613989,-2.56604,-6.059204,0.197388,0.458179,-2.873486,-5.903687,please
1616135537.3874834,1,-3.0,5.0,-7.0,-9.0,-6.0,0.814453,0.495667,-0.289734,0.083801,0.496183,0.068702,-0.526718,2.136572,1.399658,3.722852,-3.301758,-6.036475,0.382812,-0.291895,-2.814868,-6.281714,please
1616135537.3974955,1,-4.0,3.0,-8.0,-7.0,-6.0,0.812134,0.504456,-0.282471,0.078003,0.51145,0.030534,-0.656489,1.24773,1.802808,3.844873,-4.019531,-5.794824,0.596948,-1.169971,-2.653369,-6.455176,please
1616135537.4076693,1,-3.0,4.0,-6.0,-9.0,1.0,0.809631,0.513977,-0.274536,0.070007,0.503817,-0.030534,-0.763359,0.344531,2.400952,3.85564,-4.716968,-5.378516,0.710596,-2.095898,-2.305249,-6.477905,please
1616135537.417508,1,-1.0,5.0,-6.0,-8.0,-6.0,0.806702,0.523987,-0.266602,0.05957,0.473282,-0.129771,-0.847328,-0.611304,3.447705,3.657056,-5.43833,-4.525561,0.631641,-3.158203,-1.564746,-6.165674,please
1616135537.4276586,1,-4.0,4.0,-11.0,-7.0,-7.0,0.803223,0.534119,-0.25946,0.046387,0.396947,-0.267176,-0.900763,-1.568335,4.922729,3.194092,-6.138159,-3.249121,0.305054,-4.254004,-0.405542,-5.481397,please
1616135537.437502,1,-4.0,4.0,-6.0,-12.0,-6.0,0.799377,0.543701,-0.253784,0.030457,0.290076,-0.427481,-0.938931,-2.380615,6.641797,2.551685,-6.681274,-1.725049,-0.191406,-5.176343,0.985742,-4.457373,please
1616135537.4476943,1,-2.0,5.0,-6.0,-10.0,-5.0,0.795166,0.55249,-0.249512,0.012085,0.19084,-0.564885,-0.977099,-2.989526,8.364453,1.8052,-7.009058,-0.186621,-0.790747,-5.774487,2.423682,-3.246728,please
1616135537.457497,1,-4.0,4.0,-7.0,-10.0,-7.0,0.790894,0.560181,-0.246155,-0.007751,0.091603,-0.625954,-0.992366,-3.258691,9.938769,1.087427,-6.988721,1.216626,-1.37334,-5.914453,3.677392,-1.922436,please
1616135537.4674847,1,-3.0,5.0,-6.0,-8.0,-6.0,0.786682,0.566772,-0.243103,-0.027771,0.030534,-0.625954,-0.984733,-3.232373,11.270239,0.49646,-6.671704,2.39856,-1.848267,-5.663232,4.606909,-0.6125,please
1616135537.477632,1,-4.0,5.0,-8.0,-7.0,-6.0,0.782288,0.572937,-0.239746,-0.046753,0.053435,-0.557252,-0.954198,-3.093604,12.328955,-0.072974,-6.243433,3.324487,-2.31123,-5.176343,5.318701,0.519189,please
1616135537.4876008,1,-1.0,3.0,-7.0,-8.0,-11.0,0.777161,0.579834,-0.235901,-0.063904,0.145038,-0.465649,-0.908397,-2.911767,13.229761,-0.635229,-5.778076,4.100879,-2.753857,-4.587769,5.863013,1.533643,please
1616135537.4975028,1,-7.0,5.0,-8.0,-9.0,-6.0,0.771057,0.58783,-0.231689,-0.078796,0.259542,-0.366412,-0.839695,-2.659351,14.025293,-1.148438,-5.252905,4.782763,-3.122314,-3.93938,6.202759,2.490674,please
1616135537.507465,1,-3.0,5.0,8.0,-12.0,-6.0,0.763916,0.596924,-0.227722,-0.090881,0.389313,-0.282443,-0.725191,-2.253808,14.820826,-1.483398,-4.599731,5.476611,-3.282617,-3.276636,6.230273,3.51709,please
1616135537.5175323,1,-1.0,6.0,-4.0,-8.0,-6.0,0.756104,0.606506,-0.224487,-0.099976,0.48855,-0.221374,-0.580153,-1.71189,15.713257,-1.58269,-3.849658,6.284106,-3.183325,-2.678491,5.940772,4.684668,please
1616135537.5277302,1,0.0,4.0,-8.0,-6.0,-6.0,0.748169,0.615967,-0.222351,-0.106323,0.541985,-0.175573,-0.442748,-1.07666,16.673878,-1.520483,-3.05293,7.177734,-2.912964,-2.154517,5.437134,5.924024,please
1616135537.537448,1,-3.0,4.0,-8.0,-9.0,-7.0,0.740479,0.624939,-0.221252,-0.110413,0.549618,-0.145038,-0.312977,-0.309839,17.449072,-1.353003,-2.167676,7.899096,-2.538525,-1.612598,4.715772,6.977954,please
1616135537.5476232,1,-5.0,6.0,-6.0,-9.0,-6.0,0.733337,0.632812,-0.221436,-0.112549,0.534351,-0.129771,-0.19084,0.703418,18.019703,-1.055127,-1.082642,8.435034,-2.044458,-0.964209,3.741992,7.845263,please
1616135537.557503,1,-1.0,8.0,-4.0,-7.0,-6.0,0.727051,0.639404,-0.223022,-0.112854,0.496183,-0.122137,-0.083969,1.98584,18.438404,-0.703418,0.221313,8.833399,-1.513306,-0.166284,2.615088,8.571411,please
1616135537.567482,1,-4.0,5.0,-6.0,-8.0,-6.0,0.721558,0.644775,-0.225952,-0.111633,0.458015,-0.114504,0.0,3.447705,18.74585,-0.407935,1.662842,9.132471,-1.05752,0.758447,1.488184,9.189893,please
1616135537.5774095,1,-2.0,37.0,-7.0,-8.0,-6.0,0.716919,0.649048,-0.229797,-0.109131,0.40458,-0.099237,0.076336,5.083032,18.971949,-0.114844,3.241943,9.359766,-0.62207,1.787256,0.322998,9.755737,please
1616135537.5875566,1,-3.0,7.0,-6.0,-8.0,-7.0,0.713623,0.651672,-0.234436,-0.105103,0.305344,-0.061069,0.160305,6.930102,19.138233,0.238062,4.99331,9.539209,-0.160303,2.924927,-0.906787,10.321582,please
1616135537.5975573,1,0.0,5.0,-6.0,-8.0,-6.0,0.712463,0.651855,-0.239685,-0.099426,0.183206,0.007634,0.244275,8.907568,19.260254,0.695044,6.830811,9.689941,0.350513,4.088916,-2.148535,10.922119,please
1616135537.6074624,1,0.0,5.0,-6.0,-8.0,-7.0,0.712952,0.650696,-0.244629,-0.091858,0.076336,0.10687,0.312977,10.675684,19.349976,1.104175,8.427856,9.816748,0.775195,5.073462,-3.133081,11.507105,please
1616135537.6174834,1,-3.0,5.0,-6.0,-8.0,-7.0,0.715149,0.647766,-0.249146,-0.082886,-0.053435,0.198473,0.381679,12.040649,19.200439,1.451099,9.60022,9.715063,1.091016,5.785254,-3.773096,11.831299,please
1616135537.6273224,1,-3.0,3.0,-6.0,-61.0,-6.0,0.719177,0.642944,-0.253052,-0.072998,-0.206107,0.274809,0.450382,12.815845,18.763794,1.696338,10.168457,9.338232,1.253711,6.125,-3.970483,11.783447,please
1616135537.637575,1,0.0,6.0,-7.0,-8.0,-6.0,0.725159,0.635986,-0.256348,-0.062561,-0.389313,0.351145,0.519084,13.033569,17.950317,1.934399,10.169653,8.596533,1.349414,6.120215,-3.86521,11.25708,please
1616135537.6475987,1,-3.0,5.0,-4.0,-7.0,-6.0,0.733154,0.626648,-0.258911,-0.052002,-0.564885,0.40458,0.572519,12.760816,16.728907,2.13418,9.677979,7.460059,1.344629,5.877368,-3.51709,10.206738,please
1616135537.6575265,1,-3.0,8.0,-3.0,-9.0,-6.0,0.742676,0.615356,-0.260681,-0.041626,-0.725191,0.450382,0.587786,12.104053,15.172534,2.258594,8.810669,6.001782,1.213037,5.494555,-3.018237,8.705396,please
1616135537.6674292,1,-4.0,3.0,-8.0,-10.0,-6.0,0.753296,0.602417,-0.261719,-0.031677,-0.839695,0.480916,0.59542,11.243921,13.26206,2.355493,7.75315,4.204956,1.012061,5.110547,-2.572021,6.785352,please
1616135537.6773715,1,-4.0,5.0,-6.0,-8.0,-6.0,0.764526,0.588318,-0.26239,-0.021912,-0.908397,0.496183,0.603053,10.312012,11.038159,2.423682,6.632226,2.109058,0.757251,4.807886,-2.294482,4.539917,please
1616135537.6873384,1,3.0,6.0,-4.0,-9.0,-6.0,0.775635,0.573669,-0.262939,-0.012268,-0.900763,0.48855,0.603053,9.317896,8.692236,2.441626,5.457471,-0.092114,0.446216,4.538721,-2.174854,2.156909,please
1616135537.6974657,1,-3.0,7.0,-4.0,-7.0,-6.0,0.785828,0.559509,-0.263428,-0.00293,-0.839695,0.458015,0.580153,8.220899,6.531738,2.493066,4.195386,-2.100684,0.189014,4.142749,-2.207153,-0.082544,please
1616135537.707469,1,0.0,6.0,-6.0,-7.0,-6.0,0.794922,0.546021,-0.26416,0.005676,-0.763359,0.389313,0.564885,7.116724,4.586572,2.499048,2.939282,-3.890332,-0.087329,3.721655,-2.314819,-2.135376,please
1616135537.7173574,1,-3.0,5.0,-5.0,-10.0,-6.0,0.802856,0.533752,-0.265198,0.013367,-0.656489,0.320611,0.503817,6.170459,2.906982,2.568433,1.856641,-5.421582,-0.267969,3.355591,-2.583984,-3.867603,please
1616135537.7275803,1,-3.0,5.0,-6.0,-9.0,-6.0,0.809265,0.52301,-0.266479,0.020508,-0.534351,0.267176,0.473282,5.348608,1.526465,2.665332,0.911572,-6.662134,-0.379224,3.014648,-2.909375,-5.27085,please
1616135537.7373922,1,0.0,4.0,-7.0,-7.0,-4.0,0.814392,0.513916,-0.268066,0.027405,-0.40458,0.21374,0.442748,4.708594,0.510815,2.772998,0.153125,-7.547388,-0.441431,2.727539,-3.207251,-6.279321,please
1616135537.7474022,1,-1.0,4.0,-6.0,-8.0,-6.0,0.818115,0.506592,-0.269775,0.03418,-0.267176,0.183206,0.419847,4.215723,-0.076563,2.916553,-0.448608,-8.018725,-0.425879,2.430859,-3.423779,-6.857129,please
1616135537.7574563,1,1.0,7.0,-4.0,-9.0,-6.0,0.821106,0.500671,-0.270996,0.040527,-0.206107,0.175573,0.374046,3.825732,-0.248828,2.996704,-0.933105,-8.090503,-0.449805,2.122217,-3.435742,-7.08562,please
1616135537.7673526,1,-1.0,6.0,-6.0,-7.0,-6.0,0.823242,0.496277,-0.271606,0.046509,-0.10687,0.19084,0.320611,3.476416,-0.278735,2.915356,-1.357788,-8.037867,-0.610107,1.874585,-3.267066,-7.2531,please
1616135537.7773373,1,-1.0,8.0,-6.0,-7.0,-6.0,0.824402,0.493774,-0.271606,0.052124,0.0,0.183206,0.259542,3.061304,-0.226099,2.666528,-1.831519,-7.926611,-0.907983,1.61499,-2.918945,-7.474414,please
1616135537.7874584,1,0.0,5.0,-4.0,-7.0,-6.0,0.824524,0.493347,-0.271057,0.056824,0.114504,0.160305,0.175573,2.527759,-0.108862,2.341138,-2.402148,-7.779468,-1.246533,1.263281,-2.471533,-7.75315,please
1616135537.7973304,1,-4.0,7.0,-4.0,-8.0,-6.0,0.823608,0.495117,-0.269836,0.060303,0.229008,0.122137,0.083969,1.878174,0.102881,2.046851,-3.0625,-7.570117,-1.520483,0.765625,-1.998999,-8.024707,please
1616135537.8074238,1,-5.0,1.0,-6.0,-7.0,-7.0,0.821777,0.499023,-0.267761,0.062439,0.343511,0.099237,-0.022901,1.140064,0.418701,1.848267,-3.782666,-7.290185,-1.664038,0.113647,-1.558765,-8.231665,please
1616135537.8173618,1,-3.0,6.0,-4.0,-8.0,-6.0,0.819153,0.504944,-0.264587,0.062927,0.435115,0.068702,-0.145038,0.270361,0.979761,1.660449,-4.599731,-6.800903,-1.769312,-0.745288,-1.000098,-8.304639,please
1616135537.827439,1,-3.0,7.0,-5.0,-7.0,-5.0,0.815796,0.512634,-0.260498,0.061279,0.48855,0.015267,-0.267176,-0.681885,1.806396,1.460669,-5.462256,-6.077148,-1.857837,-1.775293,-0.311035,-8.182617,please
1616135537.8373036,1,-4.0,6.0,-6.0,-7.0,-6.0,0.81189,0.521667,-0.255737,0.057007,0.503817,-0.053435,-0.396947,-1.665234,3.003882,1.191504,-6.317603,-5.011255,-1.991821,-2.939282,0.594556,-7.744775,please
1616135537.8475404,1,0.0,5.0,-6.0,-7.0,-6.0,0.807556,0.531555,-0.250427,0.049744,0.480916,-0.145038,-0.534351,-2.557666,4.538721,0.869702,-7.038965,-3.629541,-2.161694,-4.102075,1.658057,-6.913354,please
1616135537.85734,1,-1.0,6.0,-4.0,-8.0,-6.0,0.803162,0.541565,-0.245056,0.03949,0.396947,-0.229008,-0.648855,-3.237158,6.261377,0.537134,-7.513892,-2.073169,-2.336353,-5.085425,2.744287,-5.726636,please
1616135537.8673658,1,-3.0,4.0,-5.0,-8.0,-6.0,0.799011,0.550842,-0.239441,0.027039,0.312977,-0.267176,-0.740458,-3.566138,7.893115,0.411523,-7.607202,-0.606519,-2.316016,-5.719458,3.508716,-4.307837,please
1616135537.877328,1,-1.0,4.0,-6.0,-7.0,-6.0,0.795532,0.55896,-0.233398,0.013306,0.221374,-0.267176,-0.801527,-3.648682,9.319092,0.330176,-7.432544,0.66394,-2.277734,-5.994605,4.069776,-2.890234,please
1616135537.8872786,1,1.0,4.0,-7.0,-7.0,-6.0,0.792603,0.565918,-0.226868,-0.000732,0.145038,-0.236641,-0.832061,-3.545801,10.37063,0.282324,-7.061694,1.575513,-2.231079,-5.932397,4.387988,-1.691553,please
1616135537.8974433,1,-3.0,5.0,-6.0,-7.0,-7.0,0.789917,0.572144,-0.21991,-0.014282,0.122137,-0.183206,-0.824427,-3.299365,11.174536,0.251221,-6.543701,2.253808,-2.183228,-5.62854,4.530347,-0.656763,please
1616135537.907343,1,-3.0,8.0,-7.0,-7.0,-6.0,0.78717,0.578247,-0.212708,-0.0271,0.137405,-0.145038,-0.816794,-3.006274,11.831299,0.19021,-5.980249,2.795727,-2.168872,-5.203857,4.597339,0.239258,please
1616135537.917395,1,-3.0,7.0,-6.0,-8.0,-6.0,0.783752,0.584717,-0.205444,-0.039246,0.198473,-0.129771,-0.801527,-2.660547,12.442602,0.119629,-5.366553,3.301758,-2.150928,-4.694238,4.588965,1.098193,please
1616135537.92733,1,-4.0,8.0,-5.0,-8.0,-6.0,0.779602,0.591736,-0.198547,-0.050537,0.267176,-0.122137,-0.778626,-2.16648,13.074244,0.163892,-4.614087,3.835303,-1.998999,-4.086524,4.380811,2.021729,please
1616135537.937327,1,0.0,5.0,-5.0,-39.0,-7.0,0.774902,0.598938,-0.192383,-0.060913,0.305344,-0.129771,-0.725191,-1.519287,13.668798,0.301465,-3.725244,4.341333,-1.740601,-3.365161,3.978858,2.929712,please
1616135537.947481,1,-3.0,4.0,-6.0,-10.0,-6.0,0.77002,0.605896,-0.187256,-0.069946,0.335878,-0.129771,-0.656489,-0.783569,14.207129,0.544312,-2.77898,4.805493,-1.372144,-2.617481,3.403442,3.775488,please
1616135537.957349,1,-3.0,5.0,-7.0,-8.0,-6.0,0.765076,0.612366,-0.183167,-0.07782,0.343511,-0.137405,-0.572519,-0.095703,14.787329,0.839795,-1.908081,5.324683,-0.95105,-1.959522,2.784961,4.614087,please
1616135537.9665468,1,0.0,5.0,-8.0,-7.0,-6.0,0.760376,0.618164,-0.180237,-0.084778,0.320611,-0.160305,-0.496183,0.508423,15.371119,1.086231,-1.149634,5.858228,-0.586182,-1.385303,2.233472,5.390479,please
1616135537.9775414,1,-3.0,5.0,-4.0,-7.0,-6.0,0.755981,0.623169,-0.178284,-0.091003,0.290076,-0.183206,-0.419847,1.050342,15.867579,1.282422,-0.479712,6.31521,-0.281128,-0.86731,1.733423,6.035278,please
1616135537.9872591,1,-1.0,5.0,-5.0,-9.0,-6.0,0.752014,0.62738,-0.177429,-0.096436,0.244275,-0.19084,-0.351145,1.630542,16.299438,1.418799,0.200977,6.715967,-0.047852,-0.317017,1.272852,6.587964,please
1616135537.9965715,1,-3.0,4.0,-6.0,-8.0,-6.0,0.748779,0.630554,-0.177429,-0.10083,0.198473,-0.183206,-0.274809,2.281323,16.604492,1.551587,0.922339,6.999487,0.161499,0.271558,0.797925,7.010254,please
1616135538.006743,1,1.0,8.0,-3.0,-7.0,-6.0,0.746216,0.632874,-0.178101,-0.104126,0.145038,-0.160305,-0.198473,2.962012,16.751637,1.64729,1.648486,7.131079,0.319409,0.880469,0.345728,7.263867,please
1616135538.0166223,1,-3.0,5.0,-4.0,-8.0,-6.0,0.744324,0.634399,-0.179382,-0.105957,0.114504,-0.122137,-0.122137,3.752759,16.703785,1.707104,2.452393,7.07605,0.427075,1.57312,-0.111255,7.332056,please
1616135538.0266693,1,-1.0,6.0,-5.0,-9.0,-6.0,0.743042,0.635437,-0.181152,-0.106018,0.099237,-0.068702,-0.038168,4.665527,16.512379,1.76333,3.347217,6.881055,0.520386,2.341138,-0.599341,7.278223,please
1616135538.0366664,1,-3.0,5.0,-8.0,-10.0,-6.0,0.742126,0.636108,-0.183533,-0.104065,0.099237,-0.015267,0.061069,5.520874,16.24082,1.782471,4.147534,6.613086,0.574219,3.021826,-1.010864,7.147827,please
1616135538.046772,1,0.0,6.0,-2.0,-9.0,-6.0,0.741516,0.636597,-0.186462,-0.100403,0.099237,0.038168,0.152672,6.205152,16.06377,1.789648,4.746875,6.444409,0.613696,3.501538,-1.29917,7.104761,please
1616135538.0564568,1,-3.0,4.0,-9.0,-8.0,-7.0,0.741272,0.636658,-0.189697,-0.095337,0.076336,0.068702,0.244275,6.69563,16.019506,1.826733,5.128491,6.414502,0.6771,3.74917,-1.481006,7.184912,please
1616135538.0666645,1,-2.0,4.0,-5.0,-7.0,-6.0,0.742004,0.635681,-0.193298,-0.089294,-0.007634,0.091603,0.328244,7.01145,15.986011,1.957129,5.31272,6.402539,0.808691,3.78147,-1.617383,7.27583,please
1616135538.0765932,1,-1.0,6.0,-10.0,-9.0,-6.0,0.744263,0.63269,-0.197327,-0.082642,-0.152672,0.099237,0.419847,7.162183,15.838867,2.094702,5.307935,6.288892,0.903198,3.66543,-1.630542,7.241138,please
1616135538.086608,1,-3.0,5.0,-8.0,-7.0,-6.0,0.747681,0.628052,-0.201782,-0.075317,-0.251908,0.10687,0.48855,7.21123,15.440503,2.211938,5.181128,5.938379,0.94148,3.489575,-1.565942,6.951636,please
1616135538.0967298,1,-3.0,4.0,-5.0,-7.0,-6.0,0.752014,0.622192,-0.206665,-0.067749,-0.335878,0.099237,0.549618,7.157397,14.710767,2.317212,4.937085,5.264868,0.94148,3.280225,-1.486987,6.323584,please
1616135538.1065345,1,-4.0,5.0,-8.0,-12.0,-6.0,0.756897,0.615295,-0.211914,-0.059937,-0.381679,0.091603,0.59542,7.003076,13.782446,2.388989,4.581787,4.404737,0.888843,3.037378,-1.376929,5.481397,please
1616135538.1166005,1,-4.0,5.0,-5.0,-8.0,-6.0,0.761963,0.607666,-0.217651,-0.052002,-0.419847,0.076336,0.633588,6.800903,12.787134,2.45957,4.169067,3.489575,0.825439,2.777783,-1.284814,4.566236,please
1616135538.126577,1,-3.0,5.0,-7.0,-7.0,-6.0,0.767151,0.599548,-0.223694,-0.043823,-0.442748,0.068702,0.671756,6.58916,11.781054,2.527759,3.7396,2.573218,0.753662,2.534936,-1.219019,3.640308,please
1616135538.136795,1,-3.0,5.0,-6.0,-7.0,-6.0,0.772278,0.591064,-0.22998,-0.035461,-0.442748,0.061069,0.70229,6.381006,10.80249,2.574414,3.310132,1.695142,0.659155,2.320801,-1.165186,2.740698,please
1616135538.1466846,1,-1.0,6.0,-6.0,-7.0,-6.0,0.777405,0.582214,-0.236511,-0.026794,-0.458015,0.061069,0.725191,6.188403,9.880152,2.635425,2.890234,0.884058,0.575415,2.125806,-1.146045,1.904492,please
1616135538.1566346,1,-3.0,5.0,-4.0,-8.0,-7.0,0.782288,0.57312,-0.243103,-0.018066,-0.458015,0.053435,0.740458,5.961108,9.030787,2.591162,2.435645,0.156714,0.387598,1.951147,-1.037183,1.104175,please
1616135538.1666882,1,-4.0,7.0,-6.0,-8.0,-6.0,0.786804,0.564209,-0.249878,-0.009338,-0.442748,0.038168,0.748092,5.724243,8.315405,2.5146,1.973877,-0.430664,0.178247,1.769312,-0.898413,0.41272,please
1616135538.176761,1,-4.0,7.0,-5.0,-8.0,-5.0,0.790894,0.55542,-0.256775,-0.000916,-0.419847,0.015267,0.740458,5.477808,7.714868,2.445215,1.507324,-0.898413,-0.014355,1.568335,-0.763232,-0.181836,please
1616135538.186538,1,-5.0,4.0,-6.0,-7.0,-6.0,0.794617,0.546814,-0.26355,0.00708,-0.427481,0.0,0.725191,5.126099,7.168164,2.356689,0.945068,-1.311133,-0.220117,1.295581,-0.595752,-0.788355,please
1616135538.196633,1,-3.0,5.0,-7.0,-12.0,-6.0,0.798279,0.538025,-0.270325,0.014343,-0.450382,-0.022901,0.70229,4.736108,6.733911,2.233472,0.354102,-1.607813,-0.460571,0.997705,-0.37085,-1.336255,please
1616135538.206708,1,-2.0,3.0,-7.0,-9.0,-6.0,0.801819,0.529175,-0.276611,0.020996,-0.450382,-0.022901,0.656489,4.446607,6.319995,2.302856,-0.117236,-1.881763,-0.507227,0.72854,-0.358887,-1.774097,please
1616135538.216546,1,-3.0,-4.0,-6.0,-8.0,-9.0,0.80542,0.520447,-0.282227,0.027283,-0.427481,0.007634,0.618321,4.157104,5.785254,2.332764,-0.575415,-2.278931,-0.595752,0.539526,-0.387598,-2.330371,please
1616135538.226646,1,-1.0,4.0,-7.0,-7.0,-6.0,0.808655,0.512512,-0.286682,0.033997,-0.366412,0.068702,0.587786,3.826929,5.293579,2.391382,-1.05752,-2.637817,-0.648389,0.317017,-0.442627,-2.86272,please
1616135538.236723,1,-3.0,4.0,-7.0,-7.0,-6.0,0.811462,0.505737,-0.289917,0.04071,-0.274809,0.114504,0.534351,3.434546,4.917944,2.495459,-1.579102,-2.893823,-0.642407,0.007178,-0.502441,-3.319702,please
1616135538.2464917,1,-5.0,5.0,-5.0,-7.0,-6.0,0.813782,0.500427,-0.291748,0.04718,-0.19084,0.152672,0.465649,2.995508,4.695435,2.558862,-2.119824,-3.015845,-0.66394,-0.352905,-0.476123,-3.69773,please
1616135538.2565172,1,0.0,7.0,-7.0,-8.0,-8.0,0.815369,0.496887,-0.292236,0.053101,-0.083969,0.175573,0.374046,2.490674,4.630835,2.518188,-2.696435,-3.005078,-0.768018,-0.762036,-0.307446,-4.025513,please
1616135538.2664652,1,-1.0,6.0,-7.0,-8.0,-7.0,0.816101,0.495361,-0.291809,0.057983,0.015267,0.160305,0.282443,2.031299,4.771997,2.45957,-3.198877,-2.819653,-0.860132,-1.189111,-0.069385,-4.182227,please
1616135538.2764945,1,-4.0,5.0,-8.0,-9.0,-7.0,0.816162,0.495422,-0.290894,0.061768,0.083969,0.129771,0.198473,1.668823,5.129687,2.399756,-3.584082,-2.442822,-0.930713,-1.613794,0.23208,-4.124804,please
1616135538.2867107,1,-1.0,5.0,-6.0,-8.0,-6.0,0.815613,0.496643,-0.289673,0.064331,0.122137,0.083969,0.129771,1.439136,5.687158,2.355493,-3.817358,-1.886548,-0.964209,-2.009766,0.574219,-3.831714,please
1616135538.2966473,1,-3.0,7.0,-6.0,-10.0,-6.0,0.814819,0.498474,-0.288452,0.065796,0.122137,0.053435,0.076336,1.378125,6.336743,2.356689,-3.871192,-1.251318,-0.94148,-2.318408,0.879272,-3.35918,please
1616135538.306551,1,-3.0,5.0,-6.0,-9.0,-6.0,0.813904,0.500549,-0.287354,0.066467,0.122137,0.022901,0.038168,1.464258,6.991113,2.418896,-3.770703,-0.618481,-0.850561,-2.527759,1.098193,-2.777783,please
1616135538.3164792,1,0.0,6.0,-7.0,-7.0,-6.0,0.812927,0.502747,-0.286194,0.066589,0.122137,0.007634,0.007634,1.649683,7.552173,2.479907,-3.566138,-0.08374,-0.759644,-2.613892,1.248926,-2.214331,please
1616135538.326592,1,-1.0,5.0,-4.0,-8.0,-6.0,0.811768,0.505188,-0.285156,0.066406,0.137405,-0.007634,-0.015267,1.957129,7.968482,2.580395,-3.237158,0.301465,-0.62207,-2.554077,1.262085,-1.683179,please
1616135538.336513,1,-2.0,5.0,-8.0,-7.0,-6.0,0.810547,0.50769,-0.284241,0.066162,0.152672,-0.015267,-0.030534,2.357886,8.293872,2.716773,-2.816064,0.595752,-0.446216,-2.396167,1.177148,-1.162793,please
1616135538.3465793,1,-3.0,4.0,-8.0,-7.0,-7.0,0.809204,0.510315,-0.283447,0.065918,0.160305,-0.015267,-0.038168,2.808887,8.579785,2.890234,-2.345923,0.851758,-0.229687,-2.19519,1.026416,-0.635229,please
1616135538.3564408,1,-2.0,5.0,-6.0,-7.0,-6.0,0.807922,0.512756,-0.282776,0.065552,0.145038,-0.030534,-0.045802,3.274243,8.908765,3.082837,-1.861426,1.152026,0.003589,-2.004981,0.875684,-0.062207,please
1616135538.3663266,1,0.0,6.0,-7.0,-8.0,-6.0,0.806824,0.514832,-0.282288,0.064819,0.10687,-0.045802,-0.053435,3.736011,9.328662,3.238354,-1.381714,1.545605,0.194995,-1.836304,0.800317,0.565845,please
1616135538.3764143,1,0.0,7.0,-6.0,-7.0,-7.0,0.806213,0.516113,-0.282043,0.063477,0.030534,-0.061069,-0.068702,4.191797,9.718653,3.349609,-0.906787,1.912866,0.330176,-1.635327,0.762036,1.153223,please
1616135538.3865628,1,0.0,5.0,-7.0,-8.0,-6.0,0.806152,0.516357,-0.282166,0.061584,-0.053435,-0.076336,-0.076336,4.632031,9.951929,3.404639,-0.448608,2.132983,0.391187,-1.358984,0.724951,1.588672,please
1616135538.396541,1,-3.0,4.0,-6.0,-10.0,-6.0,0.80658,0.515625,-0.282654,0.059509,-0.122137,-0.083969,-0.068702,5.050733,9.933985,3.389087,-0.019141,2.11145,0.366064,-0.977368,0.660352,1.787256,please
1616135538.4066248,1,-3.0,7.0,-6.0,-7.0,-6.0,0.807312,0.514343,-0.283447,0.057617,-0.137405,-0.076336,-0.053435,5.4479,9.670801,3.313721,0.381616,1.851856,0.272754,-0.502441,0.5479,1.758545,please
1616135538.416412,1,-3.0,4.0,-7.0,-7.0,-6.0,0.807983,0.512939,-0.284363,0.056335,-0.114504,-0.053435,-0.030534,5.763721,9.266455,3.22998,0.693848,1.45708,0.171069,-0.049048,0.393579,1.57312,please
