"Alphabet","timestamp","user_id","flex_1","flex_2","flex_3","flex_4","flex_5","Qw","Qx","Qy","Qz","GYRx","GYRy","GYRz","ACCx","ACCy","ACCz","ACCx_body","ACCy_body","ACCz_body","ACCx_world","ACCy_world","ACCz_world"
"Q","1617446386.2817004","7","-15","5","48","56","34","0.97052","0.013","0.240417","0.001465","0.007634","0","-0.007634","-4.822241","0.252417","8.781958","-0.248828","-0.001196","0.118433","-0.163892","-0.005981","0.220117"
"Q","1617446386.2716684","7","-16","0","48","55","37","0.97052","0.012817","0.240417","0.001526","0.007634","-0.007634","-0.007634","-4.833008","0.228491","8.80708","-0.259595","-0.021533","0.143555","-0.161499","-0.026318","0.246436"
"Q","1617446386.26169","7","-17","0","48","50","34","0.97052","0.012634","0.240479","0.001587","0.007634","-0.015267","0","-4.862915","0.193799","8.829809","-0.288306","-0.053833","0.166284","-0.177051","-0.059814","0.279932"
"Q","1617446386.2514827","7","-15","0","49","54","33","0.97052","0.012573","0.24054","0.001587","0","-0.015267","-0.007634","-4.873682","0.186621","8.859716","-0.297876","-0.059814","0.197388","-0.171069","-0.066992","0.311035"
"Q","1617446386.2419758","7","-15","4","47","57","32","0.970459","0.012512","0.240662","0.001648","0","-0.015267","-0.007634","-4.886841","0.19978","8.876465","-0.308643","-0.045459","0.215332","-0.172266","-0.052637","0.332568"
"Q","1617446386.231664","7","-16","1","46","54","36","0.970459","0.012512","0.240662","0.001709","-0.007634","-0.007634","-0.007634","-4.872485","0.197388","8.895605","-0.294287","-0.047852","0.234473","-0.150732","-0.055029","0.343335"
"Q","1617446386.2215636","7","-15","1","49","55","34","0.97052","0.012512","0.240601","0.00177","0","0","-0.007634","-4.837793","0.177051","8.897998","-0.260791","-0.068188","0.235669","-0.119629","-0.075366","0.327783"
"Q","1617446386.2116628","7","-14","0","47","56","33","0.97052","0.012512","0.240479","0.001831","0","0","0","-4.798316","0.153125","8.888428","-0.223706","-0.093311","0.224902","-0.092114","-0.100488","0.300269"
"Q","1617446386.2014835","7","-13","1","50","54","35","0.970581","0.012451","0.240356","0.001831","0","0","0","-4.756445","0.153125","8.874072","-0.184229","-0.092114","0.209351","-0.0646","-0.098096","0.267969"
"Q","1617446386.1918674","7","-19","0","48","55","31","0.970581","0.012451","0.240295","0.00177","0","0","0","-4.725342","0.173462","8.851343","-0.154321","-0.070581","0.186621","-0.049048","-0.075366","0.234473"
"Q","1617446386.181598","7","-16","0","48","54","35","0.970581","0.012512","0.240234","0.00177","-0.007634","-0.007634","0","-4.702612","0.210547","8.835791","-0.132788","-0.034692","0.169873","-0.038281","-0.039478","0.210547"
"Q","1617446386.1710072","7","-17","1","47","57","32","0.970581","0.012634","0.240173","0.001648","-0.015267","0","0","-4.678687","0.263184","8.829809","-0.110059","0.014355","0.163892","-0.020337","0.008374","0.196191"
"Q","1617446386.1608338","7","-16","3","47","53","35","0.970642","0.012756","0.240051","0.001526","-0.015267","0.007634","0","-4.647583","0.293091","8.828613","-0.080151","0.043066","0.161499","0.003589","0.038281","0.18064"
"Q","1617446386.1508706","7","-16","3","48","53","36","0.970703","0.012878","0.239868","0.001465","-0.007634","0.015267","0","-4.610498","0.293091","8.825025","-0.046655","0.040674","0.155518","0.031104","0.035889","0.160303"
"Q","1617446386.1417212","7","-15","1","48","55","35","0.970764","0.012939","0.239563","0.001465","-0.007634","0.015267","-0.007634","-4.581787","0.290698","8.827417","-0.023926","0.037085","0.155518","0.050244","0.0323","0.149536"
"Q","1617446386.1315114","7","-19","0","47","56","36","0.970825","0.013","0.239258","0.001465","-0.007634","0.015267","-0.007634","-4.579394","0.303857","8.836987","-0.026318","0.049048","0.162695","0.05144","0.044263","0.156714"
"Q","1617446386.1216166","7","-15","3","49","56","33","0.970886","0.013245","0.239075","0.001526","-0.015267","0","-0.007634","-4.616479","0.356494","8.841772","-0.066992","0.096899","0.165088","0.016748","0.090918","0.179443"
"Q","1617446386.1116922","7","-16","0","47","55","34","0.970886","0.013428","0.238953","0.001526","-0.015267","0","0","-4.636817","0.42229","8.847754","-0.089722","0.159106","0.171069","0","0.153125","0.196191"
"Q","1617446386.101834","7","-15","1","49","57","36","0.970947","0.01355","0.23877","0.001343","-0.015267","0.015267","0.007634","-4.606909","0.44502","8.834595","-0.062207","0.18064","0.155518","0.016748","0.175854","0.171069"
"Q","1617446386.0914977","7","-16","3","48","56","36","0.971008","0.013489","0.238464","0.00116","0","0.022901","0.015267","-4.556665","0.436646","8.804688","-0.017944","0.173462","0.123218","0.04187","0.169873","0.122021"
"Q","1617446386.0815835","7","-16","1","48","55","32","0.97113","0.013245","0.238037","0.000793","0.007634","0.022901","0.022901","-4.504028","0.38999","8.760425","0.026318","0.133984","0.07417","0.057422","0.131592","0.056226"
"Q","1617446386.071621","7","-15","4","48","56","35","0.971252","0.012878","0.23761","0.000427","0.007634","0.022901","0.022901","-4.465747","0.346924","8.724536","0.056226","0.099292","0.034692","0.065796","0.098096","0.007178"
"Q","1617446386.0616715","7","-15","4","48","57","33","0.971313","0.012573","0.237305","0.000122","0","0.015267","0.015267","-4.472925","0.350513","8.706592","0.044263","0.110059","0.013159","0.045459","0.108862","-0.005981"
"Q","1617446386.0515902","7","-15","5","50","54","33","0.971375","0.012512","0.237061","-0.000122","-0.007634","0.007634","0","-4.490869","0.387598","8.71018","0.021533","0.149536","0.014355","0.026318","0.14834","0.005981"
"Q","1617446386.0417955","7","-17","1","48","57","29","0.971375","0.012634","0.237","-0.000183","-0.022901","0","-0.015267","-4.506421","0.440234","8.719751","0.004785","0.19978","0.023926","0.015552","0.198584","0.022729"
"Q","1617446386.031712","7","-17","4","49","57","32","0.971436","0.012878","0.236877","-0.000122","-0.022901","0","-0.022901","-4.486084","0.483301","8.729321","0.023926","0.238062","0.0323","0.037085","0.236865","0.022729"
"Q","1617446386.0219138","7","-15","4","49","57","36","0.971436","0.013123","0.236816","0.000122","-0.022901","0.007634","-0.022901","-4.439429","0.49646","8.725733","0.069385","0.245239","0.028711","0.075366","0.244043","0"
"Q","1617446386.0117726","7","-16","3","48","51","12","0.971497","0.013306","0.236572","0.000366","-0.015267","0.015267","-0.022901","-4.347314","0.472534","8.705396","0.156714","0.216528","0.005981","0.142358","0.216528","-0.061011"
"Q","1617446386.0015736","7","-17","3","48","55","36","0.971558","0.013306","0.236145","0.000488","0","0.022901","-0.015267","-4.227685","0.437842","8.692236","0.267969","0.181836","-0.00957","0.234473","0.183032","-0.12561"
"Q","1617446385.9918313","7","-15","1","51","52","36","0.97168","0.013184","0.235718","0.000671","0.007634","0.022901","-0.007634","-4.160693","0.363672","8.680273","0.327783","0.108862","-0.025122","0.279932","0.111255","-0.168677"
"Q","1617446385.9817338","7","-17","3","48","52","33","0.971741","0.013","0.235474","0.000793","0.007634","0.007634","-0.007634","-4.163086","0.340942","8.692236","0.320605","0.088525","-0.015552","0.277539","0.090918","-0.15791"
"Q","1617446385.9717538","7","-16","4","48","55","33","0.971741","0.012939","0.235474","0.000793","0","-0.007634","0","-4.234863","0.352905","8.719751","0.248828","0.101685","0.010767","0.226099","0.102881","-0.101685"
"Q","1617446385.961603","7","-13","3","49","57","36","0.97168","0.012878","0.235718","0.000793","-0.007634","-0.015267","-0.007634","-4.304248","0.378027","8.766406","0.184229","0.128003","0.058618","0.19021","0.126807","-0.028711"
"Q","1617446385.9518747","7","-17","1","49","56","38","0.971619","0.012817","0.235962","0.000793","-0.007634","-0.015267","-0.007634","-4.368848","0.395972","8.803492","0.124414","0.147144","0.098096","0.155518","0.144751","0.033496"
"Q","1617446385.941774","7","-16","1","47","57","39","0.971558","0.012817","0.236206","0.000854","-0.007634","-0.007634","-0.007634","-4.421484","0.407935","8.825025","0.075366","0.159106","0.122021","0.123218","0.155518","0.077759"
"Q","1617446385.9317918","7","-16","5","48","54","36","0.971558","0.012817","0.236328","0.000916","-0.007634","0","-0.007634","-4.447803","0.405542","8.833399","0.05144","0.156714","0.131592","0.10647","0.153125","0.096899"
"Q","1617446385.9217958","7","-20","3","49","55","33","0.971558","0.012756","0.236267","0.000977","0","0.007634","-0.015267","-4.459765","0.398364","8.856128","0.038281","0.150732","0.153125","0.104077","0.147144","0.122021"
"Q","1617446385.9117055","7","-15","3","46","55","33","0.971558","0.012634","0.236206","0.00116","0","0","-0.015267","-4.47771","0.367261","8.890821","0.019141","0.120825","0.187817","0.102881","0.11604","0.160303"
"Q","1617446385.9018009","7","-19","5","50","57","41","0.971558","0.012512","0.236267","0.001343","0","-0.007634","-0.015267","-4.54231","0.328979","8.913549","-0.043066","0.08374","0.210547","0.058618","0.077759","0.208154"
"Q","1617446385.8918886","7","-15","4","48","57","37","0.971558","0.012451","0.236389","0.001526","0","-0.015267","-0.015267","-4.627246","0.33855","8.936279","-0.12561","0.093311","0.234473","-0.002393","0.086133","0.267969"
"Q","1617446385.8816793","7","-15","5","51","54","35","0.971497","0.01239","0.236633","0.001648","0","-0.015267","-0.007634","-4.68706","0.336157","8.960205","-0.18064","0.092114","0.260791","-0.039478","0.08374","0.31582"
"Q","1617446385.8720462","7","-16","5","48","56","36","0.971436","0.012268","0.236816","0.00177","0.007634","-0.015267","-0.015267","-4.720557","0.300269","8.961401","-0.211743","0.057422","0.263184","-0.065796","0.049048","0.331372"
"Q","1617446385.8617892","7","-15","4","47","54","35","0.971436","0.012146","0.236877","0.001953","0","-0.007634","-0.015267","-4.718164","0.275146","8.972168","-0.208154","0.034692","0.275146","-0.057422","0.026318","0.339746"
"Q","1617446385.8516653","7","-16","4","48","57","37","0.971436","0.012085","0.236877","0.002136","0","0","-0.022901","-4.713379","0.258398","8.988916","-0.203369","0.017944","0.291895","-0.045459","0.008374","0.352905"
"Q","1617446385.84184","7","-15","3","49","56","36","0.971436","0.012024","0.236877","0.002502","0","-0.007634","-0.022901","-4.731323","0.250024","9.000879","-0.221313","0.008374","0.303857","-0.056226","0","0.37085"
"Q","1617446385.831982","7","-17","4","48","55","17","0.971375","0.012085","0.237","0.002747","-0.007634","-0.015267","-0.015267","-4.758838","0.26438","9.004468","-0.246436","0.021533","0.308643","-0.076563","0.010767","0.387598"
"Q","1617446385.8216352","7","-13","-1","47","56","36","0.971375","0.012207","0.237122","0.002991","-0.007634","-0.007634","-0.015267","-4.771997","0.294287","8.988916","-0.257202","0.047852","0.294287","-0.092114","0.038281","0.38042"
"Q","1617446385.811682","7","-13","4","49","56","36","0.971375","0.012329","0.237122","0.003113","-0.007634","0","-0.007634","-4.750464","0.318213","8.945849","-0.235669","0.068188","0.251221","-0.093311","0.058618","0.332568"
"Q","1617446385.8017206","7","-16","5","47","56","33","0.971375","0.01239","0.236938","0.003235","-0.007634","0.015267","-0.007634","-4.703809","0.342139","8.884839","-0.192603","0.090918","0.189014","-0.08374","0.08374","0.258398"
"Q","1617446385.791618","7","-16","1","50","56","32","0.971497","0.012451","0.236633","0.003235","-0.007634","0.015267","-0.007634","-4.665527","0.367261","8.832202","-0.160303","0.114844","0.132788","-0.080151","0.108862","0.193799"
"Q","1617446385.7818122","7","-16","3","48","56","37","0.971558","0.012451","0.236206","0.003296","-0.007634","0.015267","-0.007634","-4.630835","0.379224","8.80708","-0.132788","0.126807","0.104077","-0.069385","0.122021","0.155518"
"Q","1617446385.7719748","7","-14","4","49","55","32","0.97168","0.012451","0.235901","0.003357","-0.007634","0.007634","-0.007634","-4.628442","0.367261","8.80708","-0.136377","0.113647","0.100488","-0.07417","0.108862","0.154321"
"Q","1617446385.761767","7","-17","4","49","57","35","0.97168","0.01239","0.235779","0.003418","0","0","-0.007634","-4.640405","0.344531","8.821436","-0.150732","0.092114","0.113647","-0.081348","0.087329","0.172266"
"Q","1617446385.7517416","7","-15","4","47","57","35","0.971741","0.012268","0.235657","0.003357","0","0","0","-4.628442","0.307446","8.831006","-0.139966","0.057422","0.122021","-0.068188","0.052637","0.173462"
"Q","1617446385.741841","7","-13","1","48","57","36","0.971741","0.012207","0.235474","0.003357","0","0.015267","0","-4.581787","0.278735","8.821436","-0.096899","0.029907","0.111255","-0.034692","0.025122","0.143555"
"Q","1617446385.731979","7","-17","3","48","55","39","0.971863","0.012085","0.235168","0.003357","0","0.015267","0","-4.543506","0.277539","8.802295","-0.0646","0.031104","0.088525","-0.016748","0.027515","0.108862"
"Q","1617446385.7217915","7","-13","4","49","56","35","0.971924","0.012024","0.234863","0.003296","0","0.015267","0","-4.526758","0.279932","8.779566","-0.052637","0.034692","0.063403","-0.016748","0.0323","0.080151"
"Q","1617446385.7118309","7","-15","4","51","57","37","0.971985","0.011902","0.234619","0.003296","0.007634","0.007634","0","-4.527954","0.266772","8.761621","-0.058618","0.023926","0.043066","-0.0323","0.021533","0.0646"
"Q","1617446385.7018263","7","-17","1","48","56","37","0.971985","0.011719","0.234497","0.003296","0.007634","0","0","-4.532739","0.251221","8.741284","-0.065796","0.011963","0.022729","-0.047852","0.00957","0.050244"
"Q","1617446385.6919188","7","-15","2","46","57","35","0.972046","0.011597","0.234375","0.003235","0","0.007634","0","-4.524365","0.265576","8.731714","-0.058618","0.028711","0.010767","-0.046655","0.027515","0.035889"
"Q","1617446385.6819828","7","-18","5","47","54","35","0.972107","0.011475","0.234131","0.003174","0","0.007634","0","-4.478906","0.257202","8.716162","-0.017944","0.023926","-0.005981","-0.017944","0.022729","0.002393"
"Q","1617446385.6718006","7","-15","0","46","55","35","0.972168","0.011292","0.233826","0.003174","0.007634","0.015267","-0.007634","-4.421484","0.224902","8.712573","0.0323","-0.004785","-0.011963","0.022729","-0.003589","-0.025122"
"Q","1617446385.661725","7","-15","4","46","55","32","0.972229","0.011169","0.233521","0.003235","0","0.015267","-0.007634","-4.348511","0.179443","8.730517","0.100488","-0.047852","0.002393","0.089722","-0.046655","-0.044263"
"Q","1617446385.6519356","7","-15","4","49","57","35","0.972351","0.011047","0.233154","0.003296","0","0.015267","-0.007634","-4.286304","0.151929","8.74248","0.155518","-0.072974","0.00957","0.142358","-0.070581","-0.063403"
"Q","1617446385.6418643","7","-17","3","48","54","34","0.972351","0.011108","0.233032","0.003296","-0.007634","0.007634","-0.007634","-4.256396","0.151929","8.75564","0.183032","-0.07417","0.022729","0.173462","-0.071777","-0.063403"
"Q","1617446385.631756","7","-15","1","46","56","37","0.972351","0.011169","0.232971","0.003296","-0.007634","0","0","-4.256396","0.184229","8.749659","0.181836","-0.043066","0.016748","0.168677","-0.040674","-0.068188"
"Q","1617446385.6219306","7","-15","3","51","56","37","0.972351","0.011353","0.233032","0.003296","-0.007634","0","0","-4.273145","0.214136","8.729321","0.166284","-0.016748","-0.002393","0.145947","-0.014355","-0.077759"
"Q","1617446385.6120615","7","-14","3","49","55","35","0.972351","0.011414","0.233032","0.003174","-0.007634","0","0.007634","-4.239648","0.23208","8.736499","0.19978","0","0.003589","0.179443","0.001196","-0.086133"
"Q","1617446385.601666","7","-13","3","49","56","32","0.972351","0.011475","0.232971","0.003052","-0.007634","0","0.007634","-4.265967","0.256006","8.722143","0.172266","0.022729","-0.00957","0.14834","0.023926","-0.084937"
"Q","1617446385.5921135","7","-16","4","49","55","34","0.972412","0.011414","0.23291","0.002808","0","0.007634","0.007634","-4.258789","0.248828","8.716162","0.179443","0.017944","-0.016748","0.151929","0.019141","-0.095703"
"Q","1617446385.5818818","7","-16","1","47","57","37","0.972412","0.011292","0.232788","0.002625","0","0.007634","0.007634","-4.2552","0.236865","8.73291","0.18064","0.00957","-0.001196","0.160303","0.010767","-0.082544"
"Q","1617446385.571705","7","-16","3","48","54","34","0.972412","0.01123","0.232727","0.002441","0","0.007634","0.007634","-4.264771","0.229687","8.758032","0.169873","0.003589","0.022729","0.161499","0.004785","-0.056226"
"Q","1617446385.5622034","7","-17","4","47","55","36","0.972473","0.011108","0.232666","0.002319","0","0","0","-4.276733","0.198584","8.78435","0.156714","-0.022729","0.047852","0.160303","-0.021533","-0.028711"
"Q","1617446385.5520177","7","-19","3","47","52","35","0.972412","0.010925","0.232727","0.002197","0.007634","-0.015267","0.007634","-4.317407","0.150732","8.810669","0.117236","-0.066992","0.075366","0.137573","-0.066992","0.011963"
"Q","1617446385.5418296","7","-15","4","46","56","32","0.972351","0.010803","0.232971","0.002075","0","-0.015267","0.007634","-4.358081","0.131592","8.833399","0.081348","-0.08374","0.100488","0.117236","-0.084937","0.050244"
"Q","1617446385.531987","7","-15","1","48","56","35","0.97229","0.010742","0.233276","0.001892","0","-0.015267","0.007634","-4.39397","0.153125","8.847754","0.050244","-0.059814","0.117236","0.096899","-0.061011","0.080151"
"Q","1617446385.5218816","7","-16","1","48","56","36","0.972229","0.010742","0.233582","0.001709","-0.007634","-0.015267","0.007634","-4.433447","0.189014","8.850146","0.016748","-0.022729","0.122021","0.069385","-0.023926","0.100488"
"Q","1617446385.5117996","7","-17","0","49","57","36","0.972168","0.010925","0.233765","0.001587","-0.015267","-0.007634","0","-4.472925","0.242847","8.859716","-0.017944","0.026318","0.133984","0.044263","0.022729","0.128003"
"Q","1617446385.5021348","7","-33","2","49","56","32","0.972168","0.011047","0.233948","0.001526","-0.015267","-0.007634","-0.007634","-4.506421","0.270361","8.858521","-0.047852","0.052637","0.132788","0.016748","0.049048","0.139966"
"Q","1617446385.4926715","7","-14","3","49","57","36","0.972107","0.01123","0.234009","0.001587","-0.015267","-0.007634","-0.007634","-4.544702","0.27395","8.852539","-0.086133","0.052637","0.129199","-0.016748","0.049048","0.154321"
"Q","1617446385.4826176","7","-13","3","49","57","37","0.972107","0.011292","0.23407","0.001587","-0.007634","-0.007634","-0.007634","-4.568628","0.270361","8.853735","-0.108862","0.047852","0.130396","-0.037085","0.043066","0.166284"
"Q","1617446385.4719296","7","-15","5","47","55","35","0.972107","0.011292","0.23407","0.001587","-0.007634","-0.007634","0","-4.610498","0.267969","8.840576","-0.150732","0.045459","0.117236","-0.080151","0.040674","0.173462"
"Q","1617446385.4619927","7","-15","4","48","54","34","0.972107","0.011292","0.234131","0.001526","0","-0.007634","0","-4.612891","0.276343","8.833399","-0.151929","0.053833","0.110059","-0.084937","0.049048","0.16748"
"Q","1617446385.451804","7","-17","4","50","53","35","0.972107","0.01123","0.23407","0.001404","0","0","0.007634","-4.597339","0.256006","8.827417","-0.137573","0.034692","0.104077","-0.07417","0.031104","0.155518"
"Q","1617446385.4425955","7","-15","4","49","56","37","0.972168","0.011108","0.234009","0.001221","-0.007634","-0.007634","0.007634","-4.579394","0.246436","8.828613","-0.119629","0.028711","0.104077","-0.058618","0.025122","0.147144"
"Q","1617446385.4325695","7","-13","4","49","55","35","0.972168","0.011108","0.234009","0.001099","-0.007634","-0.007634","0","-4.562646","0.23208","8.835791","-0.102881","0.014355","0.111255","-0.040674","0.010767","0.145947"
"Q","1617446385.4225607","7","-16","1","47","55","35","0.972107","0.011292","0.23407","0.001038","-0.015267","-0.015267","-0.007634","-4.566236","0.266772","8.853735","-0.10647","0.046655","0.130396","-0.034692","0.04187","0.165088"
"Q","1617446385.41264","7","-20","1","48","56","37","0.972107","0.011475","0.234192","0.001038","-0.022901","-0.015267","-0.007634","-4.569824","0.301465","8.875269","-0.107666","0.077759","0.151929","-0.026318","0.072974","0.185425"
"Q","1617446385.402626","7","-15","3","48","56","32","0.972046","0.01178","0.234314","0.001099","-0.022901","0","-0.015267","-4.541113","0.327783","8.884839","-0.076563","0.098096","0.163892","0.005981","0.093311","0.181836"
"Q","1617446385.3926413","7","-15","1","46","56","37","0.972046","0.012085","0.234192","0.00116","-0.015267","0.007634","-0.015267","-4.492065","0.34812","8.886035","-0.029907","0.112451","0.165088","0.047852","0.107666","0.162695"
"Q","1617446385.3818424","7","-15","3","47","55","36","0.972107","0.012268","0.234009","0.001282","-0.015267","0.015267","-0.007634","-4.452588","0.366064","8.865698","0.004785","0.12561","0.142358","0.069385","0.122021","0.126807"
"Q","1617446385.372665","7","-15","4","49","56","37","0.972168","0.01239","0.233704","0.001282","-0.007634","0.015267","-0.007634","-4.429858","0.386401","8.842969","0.022729","0.143555","0.117236","0.072974","0.139966","0.096899"
"Q","1617446385.3627234","7","-20","1","47","57","33","0.972229","0.012451","0.233582","0.001282","-0.007634","0.007634","-0.007634","-4.432251","0.41272","8.833399","0.017944","0.168677","0.105273","0.063403","0.165088","0.089722"
"Q","1617446385.3525977","7","-14","1","50","57","37","0.972229","0.012512","0.233521","0.001282","-0.007634","0","-0.007634","-4.469336","0.435449","8.833399","-0.019141","0.19021","0.105273","0.031104","0.186621","0.10647"
"Q","1617446385.3425484","7","-17","10","48","56","37","0.972229","0.012512","0.233521","0.001221","-0.007634","-0.007634","0","-4.483691","0.465356","8.851343","-0.033496","0.221313","0.123218","0.026318","0.217725","0.130396"
"Q","1617446385.3327167","7","-15","4","47","56","36","0.972229","0.012512","0.233582","0.00116","-0.015267","-0.015267","0","-4.514795","0.474927","8.870483","-0.063403","0.230884","0.142358","0.008374","0.226099","0.160303"
"Q","1617446385.3227026","7","1","5","48","47","33","0.972168","0.012573","0.233765","0.001099","-0.015267","-0.015267","0","-4.531543","0.492871","8.901587","-0.076563","0.247632","0.175854","0.011963","0.24165","0.197388"
"Q","1617446385.3126616","7","-15","3","47","55","33","0.972107","0.012573","0.234009","0.000977","-0.007634","-0.015267","0","-4.524365","0.477319","8.906372","-0.065796","0.233276","0.183032","0.025122","0.227295","0.198584"
"Q","1617446385.3019369","7","-16","3","48","57","38","0.972107","0.012451","0.23407","0.000916","-0.007634","-0.007634","0","-4.483691","0.436646","8.905176","-0.023926","0.194995","0.181836","0.062207","0.19021","0.177051"
"Q","1617446385.2926197","7","-16","2","48","57","36","0.972107","0.01239","0.23407","0.000854","0","0","-0.007634","-4.434644","0.385205","8.900391","0.023926","0.144751","0.177051","0.101685","0.139966","0.149536"
"Q","1617446385.2826982","7","-19","4","47","57","35","0.972107","0.01239","0.23407","0.000916","-0.007634","0","-0.007634","-4.417895","0.385205","8.878858","0.040674","0.144751","0.155518","0.10647","0.141162","0.123218"
"Q","1617446385.2727404","7","-16","3","47","56","36","0.972107","0.012451","0.234131","0.000977","-0.015267","-0.007634","-0.015267","-4.423877","0.435449","8.857325","0.035889","0.192603","0.133984","0.093311","0.189014","0.10647"
"Q","1617446385.262755","7","-14","2","49","56","37","0.972046","0.012573","0.234192","0.001099","-0.015267","-0.007634","-0.015267","-4.456177","0.477319","8.826221","0.004785","0.23208","0.105273","0.052637","0.228491","0.096899"
"Q","1617446385.2526944","7","-16","5","50","57","35","0.972046","0.012695","0.234253","0.00116","-0.015267","-0.007634","-0.007634","-4.475317","0.49646","8.813062","-0.011963","0.248828","0.092114","0.031104","0.245239","0.093311"
"Q","1617446385.2427447","7","-12","5","51","54","35","0.972046","0.012695","0.234314","0.00116","-0.007634","0","-0.007634","-4.465747","0.489282","8.802295","-0.001196","0.24165","0.081348","0.035889","0.239258","0.078955"
"Q","1617446385.2326574","7","-12","5","49","57","37","0.972046","0.012634","0.234314","0.001221","-0.007634","0","-0.007634","-4.453784","0.452197","8.799902","0.00957","0.205762","0.078955","0.044263","0.203369","0.070581"
"Q","1617446385.2226882","7","-15","1","49","56","33","0.972046","0.012634","0.234253","0.001282","-0.007634","0","-0.015267","-4.457373","0.437842","8.808276","0.004785","0.19021","0.087329","0.044263","0.187817","0.080151"
"Q","1617446385.2127774","7","-15","3","48","57","33","0.972046","0.012634","0.234314","0.001343","-0.007634","-0.007634","-0.015267","-4.465747","0.428271","8.831006","-0.001196","0.18064","0.110059","0.049048","0.177051","0.102881"
"Q","1617446385.202788","7","-13","4","50","53","36","0.972046","0.012634","0.234375","0.001526","-0.007634","-0.007634","-0.015267","-4.471728","0.391187","8.841772","-0.005981","0.142358","0.120825","0.049048","0.13877","0.113647"
"Q","1617446385.192678","7","-15","-6","49","56","37","0.971985","0.012634","0.234497","0.001648","0","-0.007634","-0.015267","-4.456177","0.349316","8.853735","0.010767","0.100488","0.135181","0.070581","0.096899","0.117236"
"Q","1617446385.1826513","7","-15","4","49","56","35","0.971985","0.012573","0.234558","0.001831","0","-0.007634","-0.015267","-4.431055","0.299072","8.853735","0.035889","0.050244","0.135181","0.093311","0.046655","0.104077"
"Q","1617446385.1727006","7","-16","4","47","57","36","0.971924","0.012512","0.23468","0.001953","0","-0.007634","-0.007634","-4.409522","0.260791","8.850146","0.059814","0.013159","0.132788","0.113647","0.00957","0.090918"
"Q","1617446385.1628106","7","-14","3","49","57","37","0.971924","0.012451","0.234802","0.002075","0","-0.007634","-0.007634","-4.423877","0.247632","8.834595","0.047852","0","0.118433","0.095703","-0.001196","0.082544"
"Q","1617446385.1528568","7","-16","4","48","57","37","0.971924","0.012451","0.234863","0.002197","-0.007634","-0.007634","-0.015267","-4.43584","0.242847","8.814258","0.037085","-0.003589","0.098096","0.077759","-0.004785","0.069385"
"Q","1617446385.1426685","7","-17","4","48","57","35","0.971863","0.012512","0.234924","0.002319","-0.007634","0","-0.015267","-4.440625","0.250024","8.817846","0.033496","0","0.102881","0.076563","-0.001196","0.075366"
"Q","1617446385.132583","7","-14","1","48","54","37","0.971863","0.012634","0.234924","0.002502","-0.007634","0","-0.015267","-4.457373","0.257202","8.825025","0.016748","0.004785","0.110059","0.0646","0.001196","0.089722"
"Q","1617446385.122903","7","-14","4","50","57","35","0.971863","0.012695","0.234985","0.002625","-0.007634","-0.007634","-0.015267","-4.494458","0.260791","8.825025","-0.017944","0.005981","0.111255","0.034692","0.002393","0.10647"
"Q","1617446385.1128318","7","-16","3","48","56","36","0.971863","0.012756","0.235107","0.002808","-0.007634","-0.007634","-0.015267","-4.506421","0.258398","8.814258","-0.027515","0.002393","0.100488","0.020337","0","0.101685"
"Q","1617446385.1027358","7","-15","4","47","56","37","0.971802","0.012817","0.235168","0.00293","0","0","-0.015267","-4.518384","0.234473","8.809473","-0.039478","-0.022729","0.096899","0.008374","-0.025122","0.102881"
"Q","1617446385.0929103","7","-15","3","49","55","37","0.971863","0.012817","0.235107","0.003174","0","0","-0.022901","-4.518384","0.204565","8.810669","-0.040674","-0.053833","0.096899","0.007178","-0.056226","0.102881"
"Q","1617446385.0827808","7","-19","3","48","57","37","0.971863","0.012878","0.235107","0.003418","-0.007634","0","-0.015267","-4.525561","0.178247","8.80708","-0.047852","-0.082544","0.093311","0","-0.084937","0.101685"
"Q","1617446385.0727243","7","-15","1","49","55","37","0.971863","0.013","0.235107","0.003601","-0.007634","0","-0.015267","-4.541113","0.177051","8.81665","-0.063403","-0.086133","0.102881","-0.008374","-0.088525","0.117236"
"Q","1617446385.0626855","7","-17","3","45","55","33","0.971863","0.013123","0.235046","0.003723","-0.007634","0","-0.015267","-4.553076","0.194995","8.822632","-0.076563","-0.071777","0.108862","-0.017944","-0.07417","0.129199"
"Q","1617446385.0528924","7","-19","3","45","89","33","0.971863","0.013367","0.235107","0.003906","-0.015267","-0.007634","-0.015267","-4.592554","0.210547","8.814258","-0.114844","-0.061011","0.100488","-0.055029","-0.0646","0.139966"
"Q","1617446385.0428555","7","-19","1","47","56","33","0.971802","0.013611","0.235107","0.004089","-0.015267","-0.007634","-0.015267","-4.622461","0.250024","8.829809","-0.144751","-0.027515","0.117236","-0.07417","-0.0323","0.168677"
"Q","1617446385.0330193","7","-15","3","46","56","37","0.971802","0.013794","0.235168","0.00415","-0.007634","-0.007634","-0.007634","-4.624854","0.252417","8.840576","-0.145947","-0.028711","0.128003","-0.070581","-0.033496","0.179443"
"Q","1617446385.0227828","7","-17","5","47","56","36","0.971802","0.013916","0.235291","0.004211","-0.007634","-0.022901","0","-4.655957","0.248828","8.851343","-0.174658","-0.034692","0.139966","-0.090918","-0.040674","0.202173"
"Q","1617446385.0127296","7","-17","3","48","57","32","0.971741","0.014099","0.235535","0.00415","-0.015267","-0.022901","0","-4.67749","0.287109","8.859716","-0.192603","0","0.150732","-0.101685","-0.005981","0.221313"
"Q","1617446385.0029082","7","-19","3","49","54","37","0.97168","0.014282","0.235779","0.004028","-0.015267","-0.015267","0","-4.666724","0.305054","8.866895","-0.177051","0.014355","0.160303","-0.08374","0.007178","0.223706"
"Q","1617446384.992711","7","-19","4","48","53","36","0.971619","0.014465","0.235901","0.003906","-0.015267","-0.015267","0","-4.65835","0.307446","8.875269","-0.166284","0.013159","0.169873","-0.069385","0.005981","0.227295"
"Q","1617446384.982817","7","-21","1","47","54","36","0.971619","0.014526","0.236023","0.003784","-0.007634","-0.007634","0.007634","-4.641602","0.282324","8.88125","-0.147144","-0.010767","0.177051","-0.049048","-0.016748","0.223706"
"Q","1617446384.9727287","7","-19","3","49","57","35","0.971619","0.014526","0.236023","0.003662","-0.007634","0","0.007634","-4.630835","0.263184","8.871679","-0.136377","-0.029907","0.16748","-0.044263","-0.035889","0.209351"
"Q","1617446384.962707","7","-19","0","46","55","32","0.971619","0.014587","0.235901","0.003479","-0.007634","0","0.007634","-4.620069","0.277539","8.869287","-0.128003","-0.015552","0.163892","-0.038281","-0.021533","0.203369"
"Q","1617446384.9529097","7","-19","3","47","54","33","0.971619","0.014648","0.23584","0.003296","-0.015267","0","0.007634","-4.616479","0.31582","8.856128","-0.12561","0.021533","0.150732","-0.04187","0.015552","0.191406"
"Q","1617446384.9428372","7","-15","4","47","57","37","0.97168","0.014771","0.235718","0.003174","-0.015267","0","0","-4.612891","0.340942","8.841772","-0.124414","0.044263","0.135181","-0.047852","0.038281","0.178247"
"Q","1617446384.932938","7","-19","1","49","55","33","0.97168","0.014954","0.235596","0.003113","-0.015267","0","0","-4.585376","0.367261","8.842969","-0.099292","0.066992","0.135181","-0.025122","0.061011","0.16748"
"Q","1617446384.9229035","7","-16","1","46","55","35","0.97168","0.015137","0.235596","0.002991","-0.015267","-0.007634","0","-4.579394","0.381616","8.846558","-0.093311","0.078955","0.13877","-0.019141","0.072974","0.16748"
"Q","1617446384.9127872","7","-19","2","45","55","35","0.97168","0.01532","0.235657","0.002869","-0.015267","-0.007634","0.007634","-4.573413","0.405542","8.840576","-0.086133","0.100488","0.133984","-0.014355","0.094507","0.161499"
"Q","1617446384.9028947","7","-19","4","49","55","37","0.97168","0.015503","0.235718","0.002686","-0.015267","0","0.007634","-4.539917","0.427075","8.81665","-0.05144","0.118433","0.110059","0.004785","0.113647","0.124414"
"Q","1617446384.8925722","7","-13","4","46","54","33","0.97168","0.015625","0.235596","0.002502","-0.015267","0.007634","0","-4.475317","0.439038","8.796313","0.010767","0.129199","0.089722","0.050244","0.12561","0.077759"
"Q","1617446384.8828056","7","-15","0","48","56","35","0.971741","0.015747","0.235413","0.00238","-0.015267","0.007634","0","-4.43584","0.461768","8.778369","0.046655","0.150732","0.069385","0.072974","0.14834","0.044263"
"Q","1617446384.8727672","7","-15","3","47","57","35","0.971741","0.01593","0.235229","0.00238","-0.022901","0.015267","-0.007634","-4.411914","0.478516","8.778369","0.066992","0.163892","0.068188","0.090918","0.161499","0.034692"
"Q","1617446384.862816","7","-16","3","47","57","35","0.971802","0.016235","0.235046","0.002441","-0.022901","0.007634","-0.015267","-4.411914","0.523975","8.796313","0.063403","0.203369","0.084937","0.095703","0.200977","0.052637"
"Q","1617446384.8528342","7","-19","4","47","52","33","0.971802","0.016541","0.235046","0.002502","-0.022901","-0.015267","-0.007634","-4.456177","0.568237","8.809473","0.019141","0.24165","0.098096","0.062207","0.238062","0.086133"
"Q","1617446384.842827","7","-17","-1","48","56","33","0.971741","0.016785","0.235291","0.002441","-0.015267","-0.015267","-0.007634","-4.480103","0.608911","8.810669","0","0.277539","0.101685","0.046655","0.27395","0.099292"
"Q","1617446384.8327272","7","-16","3","46","57","33","0.971741","0.016785","0.235291","0.002441","-0.007634","0.007634","-0.015267","-4.465747","0.559863","8.786743","0.014355","0.228491","0.077759","0.049048","0.224902","0.069385"
"Q","1617446384.8227987","7","-18","3","46","55","33","0.971802","0.016602","0.235046","0.002563","0.007634","0.022901","-0.015267","-4.409522","0.478516","8.777173","0.065796","0.149536","0.065796","0.088525","0.147144","0.0323"
"Q","1617446384.8127146","7","-16","3","47","55","33","0.971924","0.016357","0.234619","0.002747","0.015267","0.022901","-0.015267","-4.378418","0.410327","8.78435","0.089722","0.084937","0.068188","0.110059","0.08374","0.021533"
"Q","1617446384.8028252","7","-14","0","47","55","36","0.971985","0.016113","0.234253","0.002991","0.007634","0.015267","-0.015267","-4.368848","0.384009","8.822632","0.092114","0.062207","0.104077","0.129199","0.059814","0.052637"
"Q","1617446384.792752","7","-16","4","49","56","35","0.971985","0.01593","0.234192","0.003174","0.007634","-0.015267","-0.007634","-4.427466","0.378027","8.871679","0.0323","0.059814","0.151929","0.096899","0.055029","0.122021"
"Q","1617446384.4135902","7","-16","1","47","55","35","0.971436","0.021729","0.236145","0.006775","-0.007634","-0.045802","0.015267","-4.661939","0.628052","8.83938","-0.16748","0.181836","0.141162","-0.08374","0.171069","0.209351"
"Q","1617446384.4036098","7","-17","4","49","57","31","0.971252","0.021667","0.236816","0.00647","-0.007634","-0.038168","0.015267","-4.706201","0.592163","8.777173","-0.19978","0.149536","0.086133","-0.137573","0.141162","0.174658"
"Q","1617446384.3935566","7","-17","3","49","57","37","0.97113","0.021545","0.237305","0.006104","0","-0.038168","0.030534","-4.74209","0.620874","8.73291","-0.227295","0.181836","0.045459","-0.18064","0.174658","0.153125"
"Q","1617446384.3838468","7","-19","3","49","57","37","0.971008","0.021118","0.237793","0.005493","0.007634","-0.045802","0.053435","-4.726538","0.614893","8.717359","-0.202173","0.186621","0.034692","-0.162695","0.18064","0.131592"
"Q","1617446384.3738472","7","-17","5","48","57","37","0.970825","0.020569","0.238586","0.004517","0.007634","-0.076336","0.083969","-4.737305","0.590967","8.726929","-0.198584","0.178247","0.05144","-0.150732","0.172266","0.144751"
"Q","1617446384.3638265","7","-18","1","49","57","36","0.970581","0.019958","0.239807","0.003174","0.007634","-0.076336","0.083969","-4.795923","0.611304","8.712573","-0.234473","0.216528","0.047852","-0.184229","0.210547","0.159106"
"Q","1617446384.3535974","7","-19","3","49","54","36","0.970337","0.019348","0.240723","0.001953","0.015267","-0.045802","0.061069","-4.731323","0.582593","8.724536","-0.153125","0.204565","0.068188","-0.101685","0.19978","0.13877"
"Q","1617446384.343664","7","-17","0","46","55","36","0.970276","0.018738","0.241211","0.001099","0.022901","-0.022901","0.038168","-4.640405","0.50603","8.72334","-0.052637","0.143555","0.070581","-0.011963","0.139966","0.092114"
"Q","1617446384.3336349","7","-16","4","48","56","32","0.970215","0.018127","0.241516","0.00061","0.015267","-0.015267","0.022901","-4.630835","0.452197","8.708984","-0.038281","0.104077","0.058618","-0.004785","0.100488","0.072974"
"Q","1617446384.3238077","7","-16","1","48","56","35","0.970154","0.017639","0.241638","0.000305","0.015267","0","0.007634","-4.633227","0.443823","8.725733","-0.038281","0.10647","0.076563","0.002393","0.102881","0.088525"
"Q","1617446384.3137472","7","-19","4","48","57","37","0.970215","0.017151","0.241577","0.000244","0.030534","0.007634","0","-4.609302","0.363672","8.753247","-0.014355","0.035889","0.102881","0.034692","0.0323","0.098096"
"Q","1617446384.3038063","7","-17","4","52","56","33","0.970215","0.016602","0.241516","0.000305","0.030534","-0.015267","0.007634","-4.632031","0.31582","8.75205","-0.038281","-0.001196","0.100488","0.013159","-0.003589","0.10647"
"Q","1617446384.293672","7","-16","3","48","56","35","0.970154","0.016174","0.241821","0.000183","0.015267","-0.045802","0.022901","-4.679883","0.358887","8.775976","-0.081348","0.050244","0.126807","-0.010767","0.045459","0.150732"
"Q","1617446384.2837832","7","-17","3","47","57","35","0.969971","0.015869","0.242493","-0.000244","0","-0.045802","0.022901","-4.703809","0.455786","8.80708","-0.093311","0.154321","0.165088","-0.002393","0.14834","0.193799"
"Q","1617446384.273693","7","-16","1","48","57","34","0.969849","0.015503","0.243042","-0.00061","0.015267","-0.030534","0.007634","-4.673902","0.427075","8.821436","-0.052637","0.135181","0.184229","0.040674","0.128003","0.19021"
"Q","1617446384.263681","7","-20","3","48","55","33","0.969788","0.015015","0.243469","-0.000732","0.022901","-0.015267","0","-4.679883","0.319409","8.810669","-0.05144","0.037085","0.175854","0.037085","0.031104","0.179443"
"Q","1617446384.2536404","7","-15","4","49","54","33","0.969727","0.014465","0.24353","-0.000732","0.038168","0","0.007634","-4.64519","0.244043","8.810669","-0.015552","-0.026318","0.178247","0.069385","-0.031104","0.162695"
"Q","1617446384.2438424","7","-19","4","49","57","35","0.969788","0.013672","0.243347","-0.000793","0.045802","0.015267","0.022901","-4.578198","0.162695","8.796313","0.046655","-0.093311","0.161499","0.11604","-0.096899","0.117236"
"Q","1617446384.233735","7","-15","1","49","57","35","0.96991","0.012512","0.243103","-0.001038","0.076336","0.007634","0.038168","-4.476514","0.031104","8.772388","0.144751","-0.200977","0.132788","0.187817","-0.203369","0.043066"
"Q","1617446384.2237334","7","-16","5","50","55","32","0.96991","0.011047","0.243103","-0.001404","0.083969","-0.015267","0.045802","-4.466943","-0.124414","8.74248","0.154321","-0.326587","0.102881","0.181836","-0.327783","0.010767"
"Q","1617446384.2136643","7","-16","3","50","56","33","0.969788","0.009827","0.243591","-0.00177","0.061069","-0.045802","0.053435","-4.524365","-0.101685","8.73291","0.105273","-0.279932","0.098096","0.136377","-0.281128","0.031104"
"Q","1617446384.2036536","7","-16","3","48","56","33","0.969604","0.008972","0.244446","-0.002319","0.038168","-0.053435","0.045802","-4.620069","0.057422","8.720947","0.025122","-0.101685","0.093311","0.0646","-0.102881","0.068188"
"Q","1617446384.1937158","7","-20","1","47","53","32","0.96936","0.008179","0.2453","-0.002869","0.038168","-0.053435","0.038168","-4.697827","0.128003","8.692236","-0.035889","-0.013159","0.072974","0.002393","-0.014355","0.080151"
"Q","1617446384.1838546","7","-16","1","48","57","33","0.969177","0.007507","0.246094","-0.003296","0.030534","-0.045802","0.030534","-4.757642","0.169873","8.646777","-0.081348","0.043066","0.034692","-0.053833","0.04187","0.069385"
"Q","1617446384.1737888","7","-17","25","48","54","32","0.968994","0.006775","0.246704","-0.003784","0.038168","-0.038168","0.038168","-4.804297","0.191406","8.652759","-0.117236","0.080151","0.046655","-0.078955","0.078955","0.096899"
"Q","1617446384.163803","7","-17","1","47","56","31","0.968872","0.005859","0.247192","-0.004272","0.045802","-0.030534","0.045802","-4.819849","0.133984","8.640796","-0.124414","0.043066","0.039478","-0.089722","0.043066","0.094507"
"Q","1617446384.153745","7","-14","0","49","57","33","0.968811","0.004883","0.247498","-0.004822","0.045802","-0.015267","0.045802","-4.787549","0.068188","8.628833","-0.087329","0","0.029907","-0.062207","0","0.066992"
"Q","1617446384.1437929","7","-19","0","49","55","36","0.968811","0.003906","0.24762","-0.005432","0.045802","0","0.038168","-4.71936","0.029907","8.625244","-0.016748","-0.016748","0.027515","-0.001196","-0.016748","0.031104"
"Q","1617446384.1338997","7","-15","1","49","57","35","0.968811","0.00293","0.247559","-0.00592","0.045802","0","0.030534","-4.66792","-0.043066","8.624048","0.0323","-0.069385","0.025122","0.039478","-0.069385","0.005981"
"Q","1617446384.1237557","7","-15","2","48","57","33","0.96875","0.002075","0.247742","-0.006226","0.038168","-0.022901","0.030534","-4.702612","-0.070581","8.622851","0.001196","-0.078955","0.026318","0.011963","-0.078955","0.021533"
"Q","1617446384.1139846","7","-20","1","50","57","35","0.968628","0.001404","0.24823","-0.006531","0.022901","-0.053435","0.038168","-4.785156","-0.056226","8.63003","-0.071777","-0.050244","0.038281","-0.044263","-0.049048","0.066992"
"Q","1617446384.1038446","7","-16","-4","47","57","33","0.968445","0.000977","0.248962","-0.00708","0.007634","-0.053435","0.038168","-4.846167","0.035889","8.669507","-0.119629","0.05144","0.084937","-0.062207","0.05144","0.131592"
"Q","1617446384.0938723","7","-17","1","50","57","36","0.968262","0.00061","0.249634","-0.00769","0.007634","-0.045802","0.030534","-4.870093","0.05144","8.676684","-0.131592","0.076563","0.098096","-0.065796","0.077759","0.14834"
"Q","1617446384.083887","7","-17","1","50","56","35","0.96814","0.000183","0.250183","-0.008179","0.015267","-0.030534","0.030534","-4.874878","-0.008374","8.664721","-0.126807","0.027515","0.090918","-0.065796","0.028711","0.139966"
"Q","1617446384.073813","7","-15","1","49","54","32","0.968018","-0.000305","0.250549","-0.008545","0.015267","-0.022901","0.022901","-4.823438","-0.065796","8.651563","-0.069385","-0.017944","0.082544","-0.020337","-0.016748","0.105273"
"Q","1617446384.063765","7","-16","4","48","55","33","0.967957","-0.000549","0.250793","-0.00885","0","-0.022901","0.007634","-4.782763","-0.050244","8.677881","-0.023926","0.003589","0.111255","0.0323","0.003589","0.107666"
"Q","1617446384.0538256","7","-17","0","47","55","36","0.967896","-0.000549","0.251038","-0.008911","-0.015267","-0.022901","-0.007634","-4.782763","0.019141","8.73291","-0.020337","0.072974","0.168677","0.0646","0.071777","0.156714"
"Q","1617446384.0437615","7","-19","1","50","56","33","0.967773","-0.000366","0.251465","-0.008789","-0.015267","-0.038168","-0.015267","-4.840186","0.049048","8.761621","-0.069385","0.099292","0.200977","0.038281","0.099292","0.208154"
"Q","1617446384.034017","7","-19","1","47","56","33","0.967651","-0.000122","0.252014","-0.008728","-0.015267","-0.038168","-0.007634","-4.874878","0.069385","8.778369","-0.094507","0.113647","0.223706","0.027515","0.113647","0.240454"
"Q","1617446384.0238729","7","-16","3","49","56","33","0.967529","0","0.252502","-0.008789","-0.007634","-0.015267","0","-4.837793","0.077759","8.750854","-0.049048","0.120825","0.200977","0.057422","0.119629","0.198584"
"Q","1617446384.013767","7","-17","0","50","52","32","0.967468","-0.000122","0.252625","-0.008789","0.007634","0.007634","-0.007634","-4.763623","0.046655","8.693433","0.026318","0.092114","0.144751","0.094507","0.090918","0.112451"
"Q","1617446384.0038652","7","-17","0","47","56","33","0.967529","-0.000305","0.25238","-0.008789","0.007634","0.022901","0","-4.701416","0.007178","8.643188","0.08374","0.056226","0.092114","0.118433","0.053833","0.038281"
"Q","1617446383.993863","7","-19","3","48","57","37","0.967651","-0.000427","0.251892","-0.008728","0","0.030534","0","-4.688257","0.049048","8.625244","0.088525","0.099292","0.069385","0.112451","0.096899","0.016748"
"Q","1617446383.983811","7","-17","2","47","57","33","0.967773","-0.000488","0.251465","-0.008789","0","0.022901","0","-4.693042","0.10647","8.634814","0.076563","0.15791","0.07417","0.105273","0.155518","0.026318"
"Q","1617446383.973981","7","-16","4","48","57","36","0.967896","-0.000488","0.25116","-0.008789","-0.007634","0.015267","0","-4.733716","0.159106","8.644384","0.029907","0.210547","0.080151","0.068188","0.209351","0.053833"
"Q","1617446383.9639435","7","-16","1","49","57","32","0.967896","-0.000549","0.250977","-0.00885","-0.007634","0.007634","0","-4.76123","0.200977","8.662329","0","0.25481","0.096899","0.050244","0.253613","0.082544"
"Q","1617446383.9538674","7","-19","0","51","57","31","0.967957","-0.000671","0.250793","-0.008911","0","0","0","-4.780371","0.189014","8.680273","-0.021533","0.245239","0.113647","0.039478","0.244043","0.107666"
"Q","1617446383.9446597","7","-15","0","49","57","33","0.967957","-0.000854","0.250793","-0.008972","0.007634","-0.007634","0","-4.798316","0.143555","8.704199","-0.039478","0.203369","0.137573","0.034692","0.203369","0.137573"
"Q","1617446383.9354012","7","-15","2","46","57","32","0.967957","-0.00116","0.250854","-0.008972","0.007634","-0.007634","0","-4.82583","0.093311","8.726929","-0.065796","0.159106","0.160303","0.022729","0.159106","0.169873"
"Q","1617446383.9342868","7","-19","4","47","57","35","0.967957","-0.001526","0.250854","-0.009033","0.015267","0","0","-4.817456","0.044263","8.719751","-0.057422","0.117236","0.153125","0.025122","0.117236","0.160303"
"Q","1617446383.933119","7","-20","0","48","56","29","0.967957","-0.001831","0.250732","-0.008972","0.007634","0.007634","-0.007634","-4.789941","0.020337","8.706592","-0.0323","0.098096","0.13877","0.040674","0.098096","0.135181"
"Q","1617446383.9045916","7","-15","3","48","54","32","0.968018","-0.002014","0.250549","-0.008789","0.007634","0.007634","-0.015267","-4.797119","0.019141","8.70061","-0.043066","0.100488","0.131592","0.027515","0.100488","0.133984"
"Q","1617446383.8945434","7","-13","4","48","57","31","0.968079","-0.002075","0.250366","-0.008545","0","0.007634","-0.015267","-4.835401","0.04187","8.71377","-0.084937","0.122021","0.142358","-0.002393","0.123218","0.163892"
"Q","1617446383.8844483","7","-16","1","49","56","33","0.96814","-0.002014","0.250183","-0.008362","-0.007634","0.007634","-0.015267","-4.849756","0.07417","8.725733","-0.101685","0.153125","0.151929","-0.011963","0.154321","0.18064"
"Q","1617446383.874634","7","-16","0","50","56","37","0.96814","-0.002075","0.25","-0.00824","0","0.007634","-0.015267","-4.843774","0.050244","8.718554","-0.099292","0.129199","0.144751","-0.014355","0.130396","0.173462"
"Q","1617446383.86375","7","-19","1","48","56","32","0.968201","-0.002197","0.249756","-0.008057","0","0.015267","-0.015267","-4.806689","-0.001196","8.707788","-0.066992","0.078955","0.131592","0.005981","0.078955","0.145947"
"Q","1617446383.8545823","7","-33","3","48","54","32","0.968323","-0.002258","0.249451","-0.007874","0","0.015267","-0.015267","-4.733716","-0.04187","8.717359","0","0.039478","0.137573","0.066992","0.039478","0.119629"
"Q","1617446383.8446505","7","-16","3","50","9","35","0.968384","-0.00238","0.249084","-0.007751","0","0.015267","-0.015267","-4.67749","-0.086133","8.729321","0.049048","-0.002393","0.145947","0.112451","-0.002393","0.104077"
"Q","1617446383.834644","7","-16","3","48","55","33","0.968445","-0.002441","0.248901","-0.007629","0","0.007634","-0.007634","-4.660742","-0.10647","8.731714","0.063403","-0.022729","0.145947","0.124414","-0.022729","0.096899"
"Q","1617446383.8247266","7","-16","1","48","57","33","0.968506","-0.002502","0.248779","-0.007507","0","0.007634","-0.007634","-4.648779","-0.122021","8.717359","0.072974","-0.037085","0.130396","0.12561","-0.037085","0.078955"
"Q","1617446383.8146122","7","-19","0","49","56","31","0.968506","-0.002502","0.248596","-0.007324","0","0.015267","-0.015267","-4.615283","-0.13877","8.701807","0.102881","-0.055029","0.113647","0.143555","-0.056226","0.050244"
"Q","1617446383.8047266","7","-16","5","48","55","33","0.968567","-0.002441","0.248413","-0.007141","-0.007634","0.015267","-0.015267","-4.616479","-0.126807","8.680273","0.098096","-0.045459","0.090918","0.128003","-0.046655","0.0323"
"Q","1617446383.794497","7","-16","-4","47","56","33","0.968628","-0.002258","0.248169","-0.006958","-0.015267","0.007634","-0.015267","-4.654761","-0.090918","8.663526","0.056226","-0.013159","0.071777","0.082544","-0.013159","0.035889"
"Q","1617446383.7848468","7","-17","1","49","57","35","0.968689","-0.002075","0.247986","-0.006775","-0.015267","0.015267","-0.015267","-4.675097","-0.05144","8.670703","0.0323","0.020337","0.076563","0.0646","0.019141","0.05144"
"Q","1617446383.7746947","7","-19","0","48","56","36","0.968811","-0.001831","0.247681","-0.006592","-0.015267","0.022901","-0.015267","-4.666724","-0.021533","8.673096","0.035889","0.044263","0.075366","0.066992","0.043066","0.047852"
"Q","1617446383.7646186","7","-17","3","48","57","32","0.968872","-0.001587","0.247253","-0.006409","-0.007634","0.022901","-0.015267","-4.641602","-0.025122","8.683863","0.052637","0.035889","0.082544","0.086133","0.034692","0.046655"
"Q","1617446383.7546458","7","-20","1","50","56","33","0.968994","-0.001526","0.246948","-0.006226","-0.007634","0.015267","-0.015267","-4.651172","-0.053833","8.69104","0.038281","0.004785","0.086133","0.07417","0.003589","0.056226"
"Q","1617446383.7447467","7","-15","4","50","56","33","0.969055","-0.001526","0.246704","-0.006104","0","0.007634","-0.007634","-4.670312","-0.065796","8.692236","0.014355","-0.007178","0.084937","0.052637","-0.007178","0.066992"
"Q","1617446383.7346363","7","-16","1","48","55","31","0.969055","-0.001526","0.246582","-0.006104","0","0.007634","0","-4.679883","-0.076563","8.694629","0.002393","-0.017944","0.086133","0.043066","-0.017944","0.07417"
"Q","1617446383.724712","7","-15","5","50","55","33","0.969055","-0.001587","0.246521","-0.006165","0","0","0","-4.696631","-0.07417","8.697021","-0.014355","-0.013159","0.088525","0.028711","-0.011963","0.08374"
"Q","1617446383.7147832","7","-19","1","47","57","38","0.969055","-0.001709","0.246521","-0.006226","0","0","0","-4.736108","-0.082544","8.701807","-0.053833","-0.019141","0.093311","-0.002393","-0.017944","0.107666"
"Q","1617446383.7045825","7","-16","1","48","56","33","0.969055","-0.001709","0.246521","-0.006226","0","0","0","-4.752856","-0.075366","8.697021","-0.070581","-0.011963","0.088525","-0.019141","-0.010767","0.111255"
"Q","1617446383.694841","7","-16","1","52","54","36","0.969116","-0.001648","0.24646","-0.006226","-0.007634","0","-0.007634","-4.767212","-0.044263","8.693433","-0.084937","0.016748","0.08374","-0.033496","0.016748","0.113647"
"Q","1617446383.6848657","7","-20","1","47","56","33","0.969116","-0.001526","0.24646","-0.006165","-0.015267","-0.007634","-0.007634","-4.773193","-0.002393","8.704199","-0.090918","0.056226","0.094507","-0.033496","0.056226","0.12561"
"Q","1617446383.6746123","7","-15","0","48","55","32","0.969116","-0.001404","0.24646","-0.006165","-0.015267","-0.007634","-0.007634","-4.775586","0.020337","8.704199","-0.093311","0.076563","0.094507","-0.035889","0.076563","0.126807"
"Q","1617446383.6646173","7","-17","0","48","57","35","0.969116","-0.001282","0.24646","-0.006165","-0.015267","-0.007634","-0.007634","-4.752856","0.017944","8.699414","-0.070581","0.071777","0.089722","-0.017944","0.071777","0.111255"
"Q","1617446383.6546066","7","-17","4","49","55","33","0.969116","-0.00116","0.24646","-0.006165","-0.015267","0","-0.007634","-4.724145","0.023926","8.704199","-0.04187","0.075366","0.094507","0.008374","0.075366","0.101685"
"Q","1617446383.6446466","7","-27","2","51","56","33","0.969116","-0.001038","0.246399","-0.006165","-0.015267","0","-0.007634","-4.716968","0.025122","8.729321","-0.035889","0.07417","0.119629","0.026318","0.07417","0.120825"
"Q","1617446383.634685","7","-16","0","49","56","29","0.969116","-0.000854","0.246399","-0.006165","-0.015267","0","-0.007634","-4.734912","0.0323","8.761621","-0.053833","0.077759","0.151929","0.025122","0.077759","0.15791"
"Q","1617446383.6246445","7","-17","0","48","57","31","0.969116","-0.000732","0.24646","-0.006104","-0.015267","-0.007634","-0.007634","-4.764819","0.040674","8.781958","-0.082544","0.08374","0.172266","0.00957","0.08374","0.19021"
"Q","1617446383.6145985","7","-17","0","50","54","31","0.969116","-0.00061","0.24646","-0.006104","-0.007634","0","-0.007634","-4.771997","0.053833","8.789136","-0.089722","0.094507","0.179443","0.007178","0.094507","0.19978"
"Q","1617446383.6047156","7","-21","0","47","55","32","0.969116","-0.000549","0.246399","-0.006165","-0.007634","0","0","-4.755249","0.057422","8.787939","-0.07417","0.096899","0.178247","0.020337","0.096899","0.191406"
"Q","1617446383.5948212","7","-16","5","49","57","33","0.969116","-0.000488","0.246399","-0.006165","-0.007634","0","-0.007634","-4.746875","0.066992","8.779566","-0.065796","0.105273","0.169873","0.023926","0.105273","0.179443"
"Q","1617446383.5847385","7","-17","4","52","57","31","0.969116","-0.000427","0.246399","-0.006226","-0.007634","-0.007634","0","-4.762427","0.07417","8.764013","-0.081348","0.111255","0.154321","0.002393","0.111255","0.173462"
"Q","1617446383.5746071","7","-16","-1","50","57","36","0.969116","-0.000427","0.246399","-0.006226","-0.015267","-0.007634","0","-4.763623","0.08374","8.758032","-0.082544","0.120825","0.14834","0","0.120825","0.168677"
"Q","1617446383.5648","7","-18","1","48","57","33","0.969116","-0.000366","0.246399","-0.006287","-0.007634","-0.007634","-0.007634","-4.770801","0.077759","8.749659","-0.089722","0.114844","0.139966","-0.00957","0.114844","0.165088"
"Q","1617446383.5547583","7","-16","3","50","57","31","0.969116","-0.000366","0.246399","-0.006287","-0.007634","-0.007634","-0.007634","-4.782763","0.05144","8.76521","-0.101685","0.088525","0.155518","-0.013159","0.088525","0.184229"
"Q","1617446383.5447912","7","-17","0","49","57","36","0.969116","-0.000305","0.246399","-0.006226","-0.007634","-0.007634","-0.015267","-4.797119","0.021533","8.779566","-0.11604","0.056226","0.169873","-0.019141","0.056226","0.203369"
"Q","1617446383.5346863","7","-17","1","48","56","33","0.969116","-0.000244","0.246399","-0.006042","-0.007634","-0.007634","-0.022901","-4.811475","0.008374","8.810669","-0.130396","0.04187","0.200977","-0.017944","0.04187","0.238062"
"Q","1617446383.5247974","7","-28","4","50","57","26","0.969116","-0.000061","0.246399","-0.005798","-0.015267","-0.007634","-0.022901","-4.823438","0.016748","8.842969","-0.142358","0.045459","0.233276","-0.011963","0.045459","0.272754"
"Q","1617446383.5148373","7","-17","3","47","56","36","0.969116","0.000183","0.246399","-0.005554","-0.007634","0","-0.022901","-4.805493","0.026318","8.84895","-0.124414","0.049048","0.239258","0.004785","0.049048","0.269165"
"Q","1617446383.5047824","7","-16","1","49","57","31","0.969116","0.000305","0.246338","-0.005371","-0.007634","0","-0.015267","-4.767212","0.013159","8.826221","-0.087329","0.0323","0.216528","0.026318","0.0323","0.230884"
"Q","1617446383.4946177","7","-20","-1","29","56","31","0.969177","0.000305","0.246216","-0.005249","0","0.007634","-0.007634","-4.724145","-0.010767","8.783154","-0.046655","0.008374","0.171069","0.040674","0.007178","0.172266"
"Q","1617446383.4845276","7","-14","1","50","55","32","0.969177","0.000244","0.246033","-0.005188","0","0.015267","0","-4.678687","-0.027515","8.735303","-0.004785","-0.005981","0.122021","0.053833","-0.005981","0.108862"
"Q","1617446383.4745393","7","-19","1","48","56","35","0.969238","0.000244","0.24585","-0.005188","0","0.007634","0","-4.673902","-0.007178","8.685059","-0.002393","0.013159","0.070581","0.031104","0.011963","0.062207"
"Q","1617446383.465064","7","-15","-1","47","57","33","0.969299","0.000244","0.245728","-0.005188","-0.007634","0","0","-4.702612","0.019141","8.657544","-0.033496","0.039478","0.040674","-0.00957","0.039478","0.05144"
"Q","1617446383.4546204","7","-15","1","48","55","36","0.969299","0.000305","0.245667","-0.005249","-0.007634","0","-0.007634","-4.737305","0.033496","8.643188","-0.069385","0.052637","0.026318","-0.047852","0.052637","0.055029"
"Q","1617446383.4447637","7","-18","-1","48","53","33","0.969299","0.000305","0.245544","-0.005249","-0.007634","0","-0.007634","-4.754053","0.011963","8.641993","-0.088525","0.031104","0.023926","-0.065796","0.031104","0.062207"
"Q","1617446383.4347484","7","-15","0","47","57","36","0.96936","0.000366","0.245422","-0.005188","-0.007634","0.007634","-0.015267","-4.757642","-0.011963","8.652759","-0.094507","0.005981","0.033496","-0.066992","0.005981","0.07417"
"Q","1617446383.424966","7","-3","2","50","55","32","0.969421","0.000488","0.245178","-0.005005","-0.007634","0.007634","-0.015267","-4.745679","-0.044263","8.673096","-0.086133","-0.028711","0.05144","-0.05144","-0.027515","0.086133"
"Q","1617446383.4148688","7","-17","1","48","54","32","0.969482","0.00061","0.244934","-0.004822","-0.007634","0.007634","-0.015267","-4.731323","-0.072974","8.695826","-0.076563","-0.061011","0.071777","-0.033496","-0.059814","0.099292"
"Q","1617446383.404806","7","-19","1","47","56","33","0.969543","0.000671","0.244812","-0.004639","0","0","-0.007634","-4.737305","-0.087329","8.712573","-0.084937","-0.077759","0.087329","-0.033496","-0.076563","0.117236"
"Q","1617446383.3949203","7","-16","-3","48","54","32","0.969543","0.000671","0.244812","-0.004578","0","-0.007634","0","-4.737305","-0.101685","8.718554","-0.084937","-0.092114","0.093311","-0.031104","-0.090918","0.122021"
"Q","1617446383.384729","7","-16","0","48","55","35","0.969543","0.000671","0.244812","-0.004639","0","0","0.007634","-4.721753","-0.105273","8.704199","-0.069385","-0.095703","0.078955","-0.023926","-0.094507","0.101685"
"Q","1617446383.3748243","7","-16","1","50","57","33","0.969543","0.00061","0.244812","-0.004761","0","0","0.007634","-4.720557","-0.088525","8.670703","-0.068188","-0.076563","0.045459","-0.038281","-0.075366","0.071777"
"Q","1617446383.3647883","7","-17","1","49","56","32","0.969543","0.000549","0.24469","-0.005005","-0.007634","0.007634","0.007634","-4.720557","-0.055029","8.643188","-0.070581","-0.040674","0.016748","-0.053833","-0.039478","0.047852"
"Q","1617446383.3548229","7","-17","1","48","56","33","0.969604","0.00061","0.244446","-0.005188","-0.007634","0.015267","0.007634","-4.712183","-0.021533","8.622851","-0.065796","-0.007178","-0.004785","-0.059814","-0.005981","0.026318"
"Q","1617446383.3450954","7","-21","1","48","57","27","0.969666","0.000732","0.244202","-0.00531","-0.015267","0.007634","0","-4.701416","0.028711","8.63003","-0.059814","0.039478","0","-0.05144","0.039478","0.027515"
"Q","1617446383.3346908","7","-15","3","49","57","34","0.969727","0.000977","0.243896","-0.005432","-0.022901","0.007634","0","-4.691846","0.088525","8.651563","-0.055029","0.095703","0.017944","-0.038281","0.095703","0.040674"
"Q","1617446383.3247952","7","-15","1","48","56","37","0.969788","0.00116","0.243713","-0.005493","-0.015267","0.007634","0","-4.661939","0.105273","8.687451","-0.028711","0.108862","0.05144","0","0.108862","0.058618"
"Q","1617446383.314682","7","-19","1","49","55","32","0.969849","0.001282","0.243591","-0.005615","-0.007634","0","0","-4.639209","0.105273","8.718554","-0.008374","0.107666","0.081348","0.031104","0.10647","0.075366"
"Q","1617446383.3049195","7","-16","1","49","55","36","0.969849","0.001282","0.24353","-0.005737","-0.007634","-0.007634","0.007634","-4.618872","0.099292","8.754443","0.00957","0.101685","0.117236","0.0646","0.100488","0.098096"
"Q","1617446383.2948034","7","-16","1","50","57","35","0.969849","0.001221","0.243591","-0.006042","0","0","0.015267","-4.592554","0.092114","8.769995","0.037085","0.096899","0.132788","0.095703","0.095703","0.099292"
"Q","1617446383.284955","7","-15","4","47","57","32","0.969849","0.001099","0.243591","-0.006348","0","0","0.015267","-4.581787","0.095703","8.766406","0.047852","0.104077","0.129199","0.104077","0.101685","0.090918"
"Q","1617446383.274712","7","-20","0","49","56","33","0.969788","0.000916","0.243591","-0.006714","0","0","0.015267","-4.582983","0.113647","8.754443","0.046655","0.128003","0.118433","0.098096","0.12561","0.081348"
"Q","1617446383.2647257","7","-16","0","49","57","36","0.969849","0.000793","0.24353","-0.007019","0","0.007634","0.015267","-4.590161","0.137573","8.75564","0.038281","0.155518","0.117236","0.090918","0.154321","0.084937"
"Q","1617446383.2548504","7","-17","1","45","57","33","0.969849","0.00061","0.243408","-0.007324","-0.007634","0.007634","0.015267","-4.592554","0.172266","8.764013","0.033496","0.194995","0.12561","0.090918","0.193799","0.093311"
"Q","1617446383.244799","7","-16","1","46","57","31","0.96991","0.000488","0.243286","-0.00769","0","0.007634","0.015267","-4.592554","0.185425","8.777173","0.0323","0.211743","0.136377","0.095703","0.210547","0.104077"
"Q","1617446383.2347782","7","-15","4","48","56","32","0.96991","0.000244","0.243164","-0.007996","0","0","0.015267","-4.574609","0.16748","8.804688","0.047852","0.19978","0.163892","0.122021","0.197388","0.120825"
"Q","1617446383.224832","7","-17","0","49","54","32","0.96991","0","0.243103","-0.008301","0","0","0.007634","-4.568628","0.136377","8.856128","0.052637","0.175854","0.215332","0.150732","0.173462","0.163892"
"Q","1617446383.214897","7","-17","6","43","56","31","0.96991","-0.000122","0.243164","-0.008484","0","-0.007634","0.007634","-4.566236","0.110059","8.900391","0.056226","0.151929","0.259595","0.173462","0.149536","0.200977"
"Q","1617446383.2049625","7","-18","3","50","54","33","0.969849","-0.000244","0.243347","-0.008606","-0.007634","-0.015267","0","-4.586572","0.105273","8.936279","0.038281","0.150732","0.297876","0.175854","0.14834","0.242847"
"Q","1617446383.1948335","7","-16","3","49","57","29","0.969788","-0.000183","0.243591","-0.008667","-0.007634","-0.015267","-0.007634","-4.590161","0.122021","8.970972","0.039478","0.166284","0.333765","0.194995","0.163892","0.27395"
"Q","1617446383.1851127","7","-15","0","50","55","32","0.969727","-0.000122","0.243835","-0.008667","-0.007634","-0.015267","-0.007634","-4.578198","0.147144","8.970972","0.056226","0.19021","0.336157","0.210547","0.187817","0.267969"
"Q","1617446383.1747725","7","-16","-1","52","56","35","0.969666","-0.000122","0.244019","-0.008667","-0.007634","-0.007634","0","-4.54231","0.153125","8.924316","0.094507","0.196191","0.291895","0.223706","0.192603","0.210547"
"Q","1617446383.1649857","7","-10","-1","49","56","33","0.969666","-0.000183","0.24408","-0.008789","-0.007634","0.007634","0.007634","-4.489673","0.168677","8.859716","0.14834","0.214136","0.227295","0.24165","0.210547","0.128003"
"Q","1617446383.1549082","7","-14","1","26","54","35","0.969666","-0.000244","0.244019","-0.008972","-0.007634","0.015267","0.007634","-4.434644","0.196191","8.778369","0.202173","0.242847","0.145947","0.251221","0.238062","0.031104"
"Q","1617446383.144778","7","-17","-4","47","56","33","0.969727","-0.000366","0.243774","-0.009155","-0.007634","0.022901","0","-4.398755","0.218921","8.711377","0.234473","0.269165","0.076563","0.246436","0.26438","-0.044263"
"Q","1617446383.1351278","7","-17","0","49","56","33","0.969788","-0.000366","0.243591","-0.009216","-0.015267","0.015267","-0.007634","-4.41311","0.25481","8.665918","0.216528","0.305054","0.028711","0.209351","0.300269","-0.077759"
"Q","1617446383.124647","7","-17","0","48","55","32","0.969849","-0.000244","0.243347","-0.009277","-0.022901","0.007634","-0.007634","-4.448999","0.295483","8.650366","0.175854","0.343335","0.010767","0.165088","0.339746","-0.07417"
"Q","1617446383.1155045","7","-17","1","51","56","35","0.969849","0","0.243286","-0.009277","-0.022901","0","-0.015267","-4.504028","0.324194","8.651563","0.119629","0.367261","0.011963","0.117236","0.364868","-0.046655"
"Q","1617446383.1052988","7","-19","1","50","55","33","0.969849","0.000183","0.243347","-0.009216","-0.022901","-0.007634","-0.015267","-4.568628","0.321802","8.650366","0.056226","0.361279","0.010767","0.061011","0.360083","-0.017944"
"Q","1617446383.0949302","7","-15","0","48","57","35","0.969849","0.000244","0.243408","-0.009155","-0.007634","-0.007634","-0.007634","-4.592554","0.251221","8.641993","0.033496","0.289502","0.003589","0.035889","0.288306","-0.013159"
"Q","1617446383.0855246","7","-16","0","49","57","31","0.969849","0.000183","0.243469","-0.009094","-0.007634","-0.007634","-0.007634","-4.62605","0.183032","8.641993","0.001196","0.22251","0.003589","0.005981","0.221313","0.001196"
"Q","1617446383.0757108","7","-18","1","48","55","27","0.969788","0.000122","0.243591","-0.009033","0","-0.015267","-0.015267","-4.673902","0.130396","8.659937","-0.043066","0.171069","0.022729","-0.023926","0.171069","0.039478"
"Q","1617446383.0649998","7","-19","-1","48","54","32","0.969788","0.000061","0.243713","-0.00885","0","-0.015267","-0.015267","-4.724145","0.088525","8.687451","-0.090918","0.129199","0.05144","-0.052637","0.130396","0.087329"
"Q","1617446383.0556722","7","-20","0","48","55","29","0.969727","-0.000061","0.243835","-0.008667","0","-0.007634","-0.022901","-4.764819","0.059814","8.71377","-0.129199","0.101685","0.078955","-0.07417","0.102881","0.129199"
"Q","1617446383.0455267","7","-15","0","48","57","37","0.969727","-0.000183","0.243896","-0.008362","0.007634","-0.007634","-0.022901","-4.78396","0.022729","8.731714","-0.147144","0.065796","0.098096","-0.081348","0.066992","0.155518"
"Q","1617446383.0357316","7","-20","-1","46","55","31","0.969727","-0.000305","0.243958","-0.007996","0.007634","0","-0.030534","-4.803101","-0.037085","8.728125","-0.166284","0.005981","0.094507","-0.100488","0.007178","0.161499"
"Q","1617446383.025617","7","-17","1","47","56","33","0.969727","-0.000366","0.243896","-0.007629","0","0","-0.030534","-4.819849","-0.082544","8.728125","-0.184229","-0.038281","0.094507","-0.117236","-0.034692","0.169873"
"Q","1617446383.0156338","7","-20","1","47","52","33","0.969788","-0.000305","0.243835","-0.007202","0","0","-0.022901","-4.831811","-0.098096","8.724536","-0.196191","-0.057422","0.089722","-0.130396","-0.053833","0.171069"
"Q","1617446383.0056791","7","-15","1","49","55","29","0.969788","-0.000244","0.243774","-0.006897","0","-0.007634","-0.022901","-4.848559","-0.114844","8.717359","-0.214136","-0.076563","0.081348","-0.150732","-0.072974","0.172266"
"Q","1617446382.9957197","7","-19","1","49","56","32","0.969788","-0.000183","0.243713","-0.006592","0","-0.007634","-0.022901","-4.864111","-0.154321","8.720947","-0.230884","-0.118433","0.084937","-0.163892","-0.114844","0.184229"
"Q","1617446382.9855988","7","-16","0","49","57","35","0.969788","-0.000183","0.243652","-0.006287","0","0","-0.022901","-4.864111","-0.202173","8.728125","-0.23208","-0.16748","0.092114","-0.162695","-0.163892","0.191406"
"Q","1617446382.9756558","7","-15","-10","50","55","32","0.969849","-0.000122","0.243591","-0.005981","0","0","-0.022901","-4.859326","-0.253613","8.746069","-0.228491","-0.22251","0.108862","-0.151929","-0.218921","0.204565"
"Q","1617446382.965716","7","-19","3","50","57","32","0.969849","-0.000061","0.243469","-0.005676","0","0","-0.022901","-4.856934","-0.297876","8.777173","-0.228491","-0.269165","0.13877","-0.13877","-0.266772","0.230884"
"Q","1617446382.9556496","7","-16","3","50","57","33","0.96991","0","0.243347","-0.005371","0.007634","0","-0.015267","-4.847363","-0.350513","8.796313","-0.220117","-0.324194","0.156714","-0.123218","-0.321802","0.242847"
"Q","1617446382.9456172","7","-17","1","48","57","33","0.96991","0","0.243225","-0.005188","0.007634","0.007634","-0.007634","-4.827026","-0.395972","8.799902","-0.202173","-0.37085","0.159106","-0.10647","-0.368457","0.235669"
"Q","1617446382.9355378","7","-16","1","49","56","33","0.969971","0","0.242981","-0.005127","0","0.007634","0","-4.799512","-0.415112","8.783154","-0.179443","-0.38999","0.141162","-0.094507","-0.387598","0.209351"
"Q","1617446382.925512","7","-15","1","49","56","32","0.970032","0.000061","0.242798","-0.005188","0","0.007634","0.007634","-4.77439","-0.413916","8.750854","-0.15791","-0.38999","0.10647","-0.092114","-0.387598","0.168677"
"Q","1617446382.176708","7","-17","4","47","57","36","0.969666","-0.000122","0.243958","-0.010498","0","0.007634","0.007634","-4.854541","-0.05144","8.809473","-0.217725","0","0.177051","-0.107666","0.002393","0.258398"
"Q","1617446382.1665676","7","-16","0","48","54","29","0.969727","-0.000244","0.243713","-0.01062","0.007634","0.015267","0.007634","-4.786353","-0.059814","8.754443","-0.153125","-0.003589","0.119629","-0.077759","0","0.177051"
"Q","1617446382.1567402","7","-15","4","49","54","33","0.969849","-0.000488","0.243286","-0.010864","0.007634","0.022901","0.015267","-4.710986","-0.070581","8.716162","-0.086133","-0.008374","0.076563","-0.039478","-0.005981","0.107666"
"Q","1617446382.1465373","7","-19","1","47","56","32","0.969971","-0.00061","0.242798","-0.011108","0","0.022901","0.007634","-4.652368","-0.058618","8.714966","-0.035889","0.004785","0.070581","0.001196","0.004785","0.078955"
"Q","1617446382.136754","7","-15","5","60","56","31","0.970093","-0.000732","0.242371","-0.011292","-0.007634","0.015267","0","-4.63562","-0.039478","8.731714","-0.026318","0.027515","0.082544","0.015552","0.027515","0.084937"
"Q","1617446382.1265633","7","-15","4","49","55","33","0.970154","-0.000732","0.242065","-0.011353","-0.015267","0.015267","-0.007634","-4.628442","-0.037085","8.754443","-0.025122","0.029907","0.102881","0.026318","0.029907","0.101685"
"Q","1617446382.1165564","7","-16","1","50","56","32","0.970215","-0.000549","0.241821","-0.011292","-0.015267","0.015267","-0.015267","-4.610498","-0.031104","8.777173","-0.011963","0.0323","0.123218","0.047852","0.031104","0.113647"
"Q","1617446382.1065454","7","-20","2","49","57","31","0.970276","-0.000305","0.241577","-0.011108","-0.015267","0.007634","-0.022901","-4.588965","-0.034692","8.789136","0.004785","0.022729","0.132788","0.065796","0.021533","0.114844"
"Q","1617446382.096622","7","-17","4","49","56","32","0.970337","0","0.241333","-0.010864","-0.015267","0.007634","-0.022901","-4.569824","-0.034692","8.778369","0.019141","0.015552","0.119629","0.072974","0.014355","0.095703"
"Q","1617446382.0866184","7","-17","3","50","55","32","0.970398","0.000244","0.24115","-0.010681","-0.015267","0.015267","-0.015267","-4.531543","-0.021533","8.775976","0.055029","0.023926","0.11604","0.102881","0.021533","0.076563"
"Q","1617446382.0765393","7","-16","4","48","57","33","0.970459","0.000488","0.240906","-0.010498","-0.015267","0.015267","-0.007634","-4.499243","-0.002393","8.737696","0.082544","0.037085","0.075366","0.108862","0.034692","0.027515"
"Q","1617446382.0665815","7","-15","3","48","57","33","0.97052","0.000549","0.240662","-0.010498","-0.007634","0.015267","-0.007634","-4.475317","-0.008374","8.706592","0.101685","0.029907","0.04187","0.108862","0.027515","-0.00957"
"Q","1617446382.0565994","7","-15","4","49","57","33","0.970581","0.00061","0.240356","-0.010498","-0.007634","0.015267","0","-4.464551","-0.0323","8.676684","0.107666","0.004785","0.00957","0.099292","0.002393","-0.040674"
"Q","1617446382.0466998","7","-14","4","51","55","24","0.970642","0.00061","0.240051","-0.01062","-0.007634","0.015267","0.007634","-4.453784","-0.034692","8.68147","0.112451","0.003589","0.011963","0.104077","0.001196","-0.040674"
"Q","1617446382.0368023","7","-16","-2","49","57","35","0.970703","0.00061","0.239746","-0.010742","-0.007634","0.015267","0","-4.457373","-0.043066","8.689844","0.104077","-0.003589","0.016748","0.099292","-0.004785","-0.033496"
"Q","1617446382.026545","7","-14","1","48","54","33","0.970764","0.000671","0.239563","-0.010864","-0.007634","0.007634","0","-4.451392","-0.052637","8.703003","0.10647","-0.014355","0.028711","0.10647","-0.016748","-0.023926"
"Q","1617446382.0167377","7","-15","4","50","57","33","0.970825","0.000854","0.23938","-0.010864","-0.015267","0.007634","0","-4.447803","-0.052637","8.71018","0.10647","-0.016748","0.033496","0.108862","-0.019141","-0.019141"
"Q","1617446382.0066547","7","-19","4","48","57","33","0.970886","0.001038","0.239197","-0.010925","-0.015267","0.007634","-0.007634","-4.452588","-0.020337","8.726929","0.099292","0.010767","0.047852","0.110059","0.007178","-0.003589"
"Q","1617446381.996694","7","-16","-1","49","55","32","0.970947","0.00116","0.239014","-0.010986","-0.007634","0.007634","0","-4.448999","-0.019141","8.725733","0.099292","0.00957","0.045459","0.108862","0.005981","-0.004785"
"Q","1617446381.9866524","7","-17","1","48","27","32","0.970947","0.001221","0.238892","-0.011047","0","0.007634","0.007634","-4.456177","-0.026318","8.70061","0.089722","0.001196","0.019141","0.087329","0","-0.023926"
"Q","1617446381.976709","7","-18","1","49","54","33","0.971008","0.00116","0.238708","-0.01123","0","0.015267","0.015267","-4.438232","-0.003589","8.670703","0.104077","0.026318","-0.011963","0.086133","0.023926","-0.058618"
"Q","1617446381.966599","7","-14","1","48","56","32","0.971069","0.001099","0.238403","-0.011475","0","0.015267","0.015267","-4.416699","0.028711","8.643188","0.120825","0.061011","-0.04187","0.088525","0.058618","-0.092114"
"Q","1617446381.95697","7","-20","1","46","56","31","0.97113","0.001038","0.238159","-0.01178","-0.007634","0.007634","0.015267","-4.432251","0.059814","8.637207","0.100488","0.094507","-0.050244","0.066992","0.092114","-0.090918"
"Q","1617446381.9466994","7","-17","4","50","54","30","0.97113","0.000977","0.238098","-0.012024","-0.007634","0","0.015267","-4.492065","0.088525","8.655151","0.039478","0.12561","-0.0323","0.022729","0.124414","-0.046655"
"Q","1617446381.936678","7","-16","1","49","56","33","0.97113","0.000916","0.238098","-0.012329","-0.007634","-0.007634","0.007634","-4.550683","0.095703","8.689844","-0.017944","0.135181","0.001196","-0.011963","0.135181","0.008374"
"Q","1617446381.9266157","7","-16","-1","48","57","33","0.97113","0.000854","0.238037","-0.012512","-0.007634","0","0.007634","-4.571021","0.086133","8.729321","-0.039478","0.128003","0.040674","-0.011963","0.128003","0.052637"
"Q","1617446381.9168084","7","-15","4","49","57","32","0.97113","0.000854","0.237976","-0.012634","-0.007634","0","0","-4.567431","0.071777","8.781958","-0.037085","0.113647","0.092114","0.011963","0.113647","0.098096"
"Q","1617446381.9067442","7","-13","3","51","54","32","0.971191","0.000793","0.237915","-0.012756","-0.007634","-0.007634","0","-4.575806","0.059814","8.834595","-0.046655","0.104077","0.143555","0.027515","0.104077","0.14834"
"Q","1617446381.8967445","7","-15","1","48","57","35","0.97113","0.000793","0.237976","-0.012817","-0.007634","-0.007634","0","-4.588965","0.065796","8.870483","-0.058618","0.110059","0.18064","0.033496","0.110059","0.186621"
"Q","1617446381.8866155","7","-10","1","48","56","35","0.97113","0.000793","0.238098","-0.012878","-0.007634","-0.015267","0","-4.606909","0.076563","8.887232","-0.07417","0.120825","0.198584","0.028711","0.120825","0.209351"
"Q","1617446381.8766396","7","-19","1","48","57","33","0.971069","0.000793","0.23822","-0.013","-0.007634","-0.007634","0.007634","-4.602124","0.092114","8.900391","-0.066992","0.137573","0.212939","0.04187","0.136377","0.218921"
"Q","1617446381.86653","7","-19","1","50","56","34","0.971069","0.000671","0.23822","-0.013245","0","0","0.007634","-4.58418","0.086133","8.906372","-0.049048","0.135181","0.218921","0.061011","0.133984","0.215332"
"Q","1617446381.85692","7","-36","3","50","57","31","0.971069","0.000488","0.238281","-0.013428","0","0","0.007634","-4.588965","0.076563","8.892016","-0.052637","0.129199","0.204565","0.050244","0.128003","0.204565"
"Q","1617446381.8468435","7","-16","3","49","57","31","0.971069","0.000366","0.23822","-0.01355","-0.007634","0","0.007634","-4.599731","0.100488","8.900391","-0.0646","0.156714","0.212939","0.044263","0.156714","0.217725"
"Q","1617446381.836697","7","-15","3","48","55","33","0.971069","0.000366","0.238159","-0.013733","-0.007634","0.007634","0","-4.609302","0.147144","8.918335","-0.075366","0.203369","0.230884","0.045459","0.203369","0.238062"
"Q","1617446381.8267722","7","-15","1","50","57","33","0.97113","0.000366","0.237976","-0.013916","-0.007634","0.007634","0","-4.60332","0.16748","8.92312","-0.072974","0.224902","0.233276","0.049048","0.224902","0.238062"
"Q","1617446381.8167143","7","-16","3","49","56","33","0.971191","0.000244","0.237793","-0.014038","-0.007634","0.007634","0","-4.573413","0.155518","8.913549","-0.046655","0.215332","0.221313","0.065796","0.214136","0.215332"
"Q","1617446381.806689","7","-16","0","46","57","31","0.971191","0.000122","0.23761","-0.01416","0","0.007634","0.007634","-4.55188","0.13877","8.905176","-0.028711","0.202173","0.212939","0.077759","0.200977","0.19978"
"Q","1617446381.796691","7","-15","-1","49","56","32","0.971252","-0.000061","0.237488","-0.014343","0","0","0.007634","-4.531543","0.108862","8.889624","-0.00957","0.175854","0.194995","0.086133","0.174658","0.175854"
"Q","1617446381.786708","7","-17","0","48","56","31","0.971252","-0.000305","0.237427","-0.014526","0.007634","0","0.007634","-4.512403","0.076563","8.875269","0.007178","0.149536","0.18064","0.093311","0.147144","0.155518"
"Q","1617446381.7766938","7","-16","1","48","57","36","0.971252","-0.000549","0.237427","-0.014709","0","0","0.007634","-4.495654","0.065796","8.874072","0.023926","0.143555","0.179443","0.107666","0.141162","0.145947"
"Q","1617446381.7669427","7","-15","1","49","57","35","0.971252","-0.000732","0.237488","-0.014771","0","-0.007634","0","-4.506421","0.059814","8.870483","0.013159","0.142358","0.175854","0.095703","0.139966","0.14834"
"Q","1617446381.756937","7","-16","4","49","57","33","0.971252","-0.000793","0.237549","-0.014771","0","0","-0.007634","-4.527954","0.066992","8.853735","-0.005981","0.150732","0.159106","0.071777","0.149536","0.142358"
"Q","1617446381.7467775","7","-15","3","50","55","35","0.971252","-0.000854","0.237549","-0.014648","-0.007634","0.007634","-0.015267","-4.51001","0.080151","8.841772","0.010767","0.163892","0.147144","0.081348","0.162695","0.123218"
"Q","1617446381.736782","7","-17","0","49","56","33","0.971252","-0.000854","0.237366","-0.014526","-0.007634","0.007634","-0.015267","-4.466943","0.072974","8.808276","0.050244","0.156714","0.113647","0.100488","0.154321","0.075366"
"Q","1617446381.7267754","7","-13","1","49","57","32","0.971313","-0.000854","0.237183","-0.014343","-0.007634","0.015267","-0.015267","-4.421484","0.061011","8.75564","0.093311","0.143555","0.058618","0.113647","0.139966","0.007178"
"Q","1617446381.7167256","7","-16","0","48","56","36","0.971375","-0.000916","0.236938","-0.014221","0","0.015267","-0.015267","-4.380811","0.040674","8.688647","0.129199","0.123218","-0.00957","0.112451","0.118433","-0.068188"
"Q","1617446381.7068138","7","-16","1","49","57","31","0.971436","-0.000916","0.236694","-0.014038","-0.007634","0.015267","-0.015267","-4.352099","0.033496","8.640796","0.154321","0.11604","-0.059814","0.112451","0.111255","-0.124414"
"Q","1617446381.6968665","7","-15","1","49","54","33","0.971497","-0.000977","0.23645","-0.013855","0","0.015267","-0.015267","-4.330566","0.029907","8.620459","0.171069","0.112451","-0.082544","0.11604","0.107666","-0.151929"
"Q","1617446381.6868782","7","-19","0","46","56","32","0.971558","-0.000977","0.236267","-0.013672","0","0.007634","-0.022901","-4.317407","0.002393","8.606104","0.18064","0.08374","-0.098096","0.117236","0.078955","-0.169873"
"Q","1617446381.676912","7","-17","1","49","57","30","0.971558","-0.001038","0.236145","-0.013428","0","0.007634","-0.015267","-4.318604","-0.021533","8.59773","0.177051","0.059814","-0.107666","0.108862","0.055029","-0.177051"
"Q","1617446381.6668718","7","-16","1","52","57","33","0.971619","-0.001099","0.236023","-0.013184","0","0.007634","-0.015267","-4.318604","-0.0323","8.600122","0.175854","0.049048","-0.10647","0.107666","0.044263","-0.174658"
"Q","1617446381.656939","7","-16","-2","47","57","32","0.971619","-0.00116","0.235962","-0.013","0","0.007634","-0.015267","-4.310229","-0.027515","8.608496","0.183032","0.053833","-0.098096","0.118433","0.049048","-0.171069"
"Q","1617446381.6476712","7","-16","-1","49","55","32","0.97168","-0.001221","0.23584","-0.012817","0","0","-0.015267","-4.312622","-0.019141","8.621655","0.178247","0.062207","-0.087329","0.119629","0.057422","-0.159106"
"Q","1617446381.6368","7","-17","-1","48","53","28","0.97168","-0.001282","0.23584","-0.012634","0","0","-0.007634","-4.341333","-0.017944","8.627637","0.149536","0.0646","-0.081348","0.096899","0.061011","-0.141162"
"Q","1617446381.6268442","7","-16","3","50","55","39","0.97168","-0.001404","0.23584","-0.012512","0","0","-0.007634","-4.364062","-0.00957","8.620459","0.126807","0.07417","-0.088525","0.072974","0.070581","-0.136377"
"Q","1617446381.6169498","7","-16","-1","47","56","39","0.97168","-0.001587","0.235901","-0.012512","0.007634","0","-0.007634","-4.367651","-0.023926","8.625244","0.124414","0.063403","-0.082544","0.07417","0.059814","-0.130396"
"Q","1617446381.606868","7","-19","3","50","56","33","0.97168","-0.00177","0.235901","-0.012451","0.007634","0","-0.007634","-4.370044","-0.037085","8.62644","0.122021","0.053833","-0.081348","0.071777","0.050244","-0.128003"
"Q","1617446381.5975134","7","-15","4","48","56","33","0.971619","-0.001892","0.235962","-0.01239","0.007634","-0.007634","-0.007634","-4.384399","-0.045459","8.64917","0.107666","0.047852","-0.057422","0.069385","0.044263","-0.100488"
"Q","1617446381.5874634","7","-19","2","49","52","37","0.971619","-0.002075","0.236084","-0.012268","0.007634","-0.015267","-0.015267","-4.432251","-0.069385","8.686255","0.062207","0.026318","-0.020337","0.045459","0.023926","-0.046655"
"Q","1617446381.5774777","7","-16","-6","48","56","31","0.971558","-0.002197","0.236328","-0.011963","0.007634","-0.022901","-0.022901","-4.49685","-0.110059","8.735303","0.002393","-0.011963","0.029907","0.015552","-0.011963","0.025122"
"Q","1617446381.567657","7","-16","0","51","57","33","0.971497","-0.002197","0.236694","-0.011597","0","-0.022901","-0.030534","-4.569824","-0.130396","8.79751","-0.062207","-0.034692","0.095703","-0.010767","-0.0323","0.113647"
"Q","1617446381.5575366","7","-16","1","48","56","32","0.971436","-0.002197","0.237","-0.011169","0","-0.022901","-0.030534","-4.616479","-0.156714","8.868091","-0.104077","-0.062207","0.168677","-0.015552","-0.059814","0.197388"
"Q","1617446381.547628","7","-16","3","48","55","31","0.971375","-0.002197","0.237244","-0.010803","0","-0.015267","-0.022901","-4.639209","-0.175854","8.905176","-0.122021","-0.08374","0.208154","-0.013159","-0.080151","0.24165"
"Q","1617446381.5376167","7","-19","-1","47","56","33","0.971313","-0.002197","0.237488","-0.01062","0","-0.015267","-0.007634","-4.643994","-0.173462","8.917139","-0.123218","-0.081348","0.22251","-0.007178","-0.077759","0.25481"
"Q","1617446381.5274854","7","-15","3","48","57","35","0.971252","-0.002258","0.23761","-0.010498","0","-0.007634","0","-4.628442","-0.169873","8.890821","-0.105273","-0.077759","0.197388","-0.003589","-0.075366","0.223706"
"Q","1617446381.5175858","7","-17","4","48","56","33","0.971252","-0.002258","0.237671","-0.010498","0","-0.007634","0","-4.599731","-0.15791","8.851343","-0.075366","-0.065796","0.159106","0.004785","-0.063403","0.175854"
"Q","1617446381.5076232","7","-16","3","50","56","35","0.971252","-0.002258","0.237671","-0.010559","-0.007634","-0.007634","0","-4.592554","-0.113647","8.833399","-0.068188","-0.020337","0.141162","0.003589","-0.017944","0.156714"
"Q","1617446381.4975069","7","-19","1","48","56","35","0.971191","-0.002197","0.237793","-0.010681","-0.007634","-0.015267","0.007634","-4.611694","-0.080151","8.817846","-0.084937","0.010767","0.126807","-0.015552","0.011963","0.150732"
"Q","1617446381.4868655","7","-17","1","50","57","30","0.971191","-0.002136","0.237976","-0.010864","-0.007634","-0.022901","0.007634","-4.628442","-0.071777","8.809473","-0.098096","0.019141","0.119629","-0.031104","0.020337","0.150732"
"Q","1617446381.477504","7","-16","2","48","57","31","0.971069","-0.002136","0.238281","-0.011108","-0.007634","-0.022901","0.007634","-4.64519","-0.058618","8.810669","-0.110059","0.033496","0.124414","-0.038281","0.034692","0.160303"
"Q","1617446381.4674954","7","-17","1","49","57","35","0.971008","-0.002075","0.238586","-0.011353","-0.007634","-0.022901","0.007634","-4.661939","-0.04187","8.819043","-0.120825","0.050244","0.135181","-0.043066","0.052637","0.174658"
"Q","1617446381.4575536","7","-14","3","49","57","33","0.970947","-0.002014","0.238892","-0.011536","-0.015267","-0.022901","0","-4.673902","-0.020337","8.841772","-0.128003","0.071777","0.160303","-0.037085","0.07417","0.19978"
"Q","1617446381.4476526","7","-19","1","50","57","36","0.970886","-0.001892","0.239197","-0.011658","-0.015267","-0.022901","0","-4.685864","-0.002393","8.851343","-0.133984","0.087329","0.172266","-0.035889","0.089722","0.212939"
"Q","1617446381.4376116","7","-19","3","49","56","36","0.970764","-0.001892","0.239441","-0.01178","-0.007634","-0.022901","0","-4.689453","-0.007178","8.853735","-0.133984","0.08374","0.178247","-0.033496","0.086133","0.218921"
"Q","1617446381.4268725","7","-17","5","49","57","33","0.970764","-0.001953","0.239624","-0.011963","0","-0.015267","0.007634","-4.672705","-0.046655","8.842969","-0.113647","0.046655","0.168677","-0.020337","0.049048","0.200977"
"Q","1617446381.417169","7","0","3","48","54","33","0.970703","-0.002136","0.239685","-0.012146","0.007634","0","0.007634","-4.627246","-0.087329","8.815454","-0.066992","0.00957","0.142358","0.007178","0.010767","0.156714"
"Q","1617446381.4068215","7","-13","1","49","56","33","0.970703","-0.00238","0.239685","-0.012329","0","0","0.007634","-4.59375","-0.104077","8.786743","-0.033496","0","0.113647","0.022729","0","0.11604"
"Q","1617446381.3975358","7","6","1","47","56","33","0.970764","-0.00238","0.239624","-0.012451","-0.007634","0","0.007634","-4.585376","-0.046655","8.768799","-0.026318","0.056226","0.094507","0.021533","0.056226","0.094507"
"Q","1617446381.3875442","7","-16","1","49","52","37","0.970764","-0.002319","0.239563","-0.012634","-0.015267","0","-0.007634","-4.566236","0.016748","8.764013","-0.008374","0.119629","0.088525","0.035889","0.119629","0.080151"
"Q","1617446381.3775697","7","-15","0","48","57","35","0.970764","-0.002136","0.239502","-0.012573","-0.015267","0","-0.015267","-4.555469","0.040674","8.75564","0","0.139966","0.080151","0.039478","0.13877","0.069385"
"Q","1617446381.367604","7","-13","5","50","56","35","0.970764","-0.001892","0.239502","-0.012451","-0.015267","0","-0.015267","-4.555469","0.063403","8.740088","0","0.156714","0.0646","0.033496","0.155518","0.055029"
"Q","1617446381.3575995","7","-15","0","48","56","32","0.970764","-0.001709","0.239441","-0.012268","-0.015267","0","-0.015267","-4.513598","0.078955","8.71377","0.040674","0.168677","0.038281","0.057422","0.16748","0.013159"
"Q","1617446381.3475916","7","-17","1","49","56","29","0.970825","-0.001587","0.239319","-0.012146","-0.007634","0.007634","-0.015267","-4.448999","0.071777","8.69104","0.104077","0.15791","0.014355","0.101685","0.154321","-0.035889"
"Q","1617446381.3375883","7","-14","3","49","55","33","0.970886","-0.001526","0.239197","-0.012024","-0.007634","0.015267","-0.015267","-4.398755","0.0646","8.651563","0.151929","0.149536","-0.026318","0.12561","0.144751","-0.094507"
"Q","1617446381.3276217","7","-15","1","49","56","31","0.970947","-0.001404","0.238953","-0.011902","-0.007634","0.015267","-0.015267","-4.36167","0.084937","8.625244","0.184229","0.166284","-0.055029","0.141162","0.161499","-0.135181"
"Q","1617446381.31769","7","-19","0","48","54","32","0.971008","-0.001282","0.238647","-0.011841","-0.015267","0.015267","-0.015267","-4.335351","0.119629","8.610888","0.205762","0.198584","-0.071777","0.153125","0.193799","-0.160303"
"Q","1617446381.3076923","7","-17","5","47","56","35","0.971069","-0.00116","0.238464","-0.011719","-0.015267","0.007634","-0.015267","-4.355689","0.163892","8.589355","0.181836","0.240454","-0.095703","0.122021","0.235669","-0.169873"
"Q","1617446381.2977452","7","-17","3","50","57","33","0.971069","-0.001099","0.238403","-0.011597","-0.007634","0","-0.015267","-4.398755","0.184229","8.585767","0.137573","0.258398","-0.099292","0.081348","0.25481","-0.153125"
"Q","1617446381.2876627","7","-17","-1","50","54","32","0.971069","-0.001099","0.238464","-0.011536","-0.007634","-0.007634","-0.007634","-4.420288","0.171069","8.594141","0.117236","0.245239","-0.090918","0.066992","0.24165","-0.136377"
"Q","1617446381.2776434","7","-17","1","48","56","33","0.971008","-0.001221","0.238586","-0.011475","0","-0.015267","-0.015267","-4.465747","0.126807","8.62644","0.07417","0.203369","-0.056226","0.043066","0.200977","-0.084937"
"Q","1617446381.2676728","7","-15","3","52","54","32","0.970947","-0.001465","0.23877","-0.011353","0.007634","-0.022901","-0.015267","-4.537524","0.050244","8.688647","0.005981","0.130396","0.007178","0.010767","0.129199","0.002393"
"Q","1617446381.257758","7","-16","1","48","55","32","0.970886","-0.00177","0.239136","-0.011169","0.007634","-0.030534","-0.015267","-4.62605","-0.034692","8.766406","-0.075366","0.050244","0.087329","-0.023926","0.05144","0.111255"
"Q","1617446381.2476149","7","-16","3","50","52","32","0.970764","-0.002014","0.239563","-0.010986","0.015267","-0.030534","-0.015267","-4.727735","-0.112451","8.852539","-0.169873","-0.021533","0.178247","-0.066992","-0.017944","0.236865"
"Q","1617446381.2377925","7","-17","4","47","57","33","0.970703","-0.002258","0.23999","-0.010803","0.015267","-0.030534","-0.015267","-4.807886","-0.184229","8.915942","-0.24165","-0.089722","0.244043","-0.101685","-0.08374","0.328979"
"Q","1617446381.227816","7","-16","1","45","55","33","0.970581","-0.002441","0.240417","-0.01062","0.007634","-0.030534","-0.007634","-4.85813","-0.220117","8.948242","-0.284717","-0.123218","0.281128","-0.122021","-0.11604","0.381616"
"Q","1617446381.2175913","7","-16","0","49","56","30","0.97052","-0.002563","0.240723","-0.010559","0","-0.022901","0","-4.861719","-0.233276","8.963794","-0.282324","-0.133984","0.299072","-0.111255","-0.126807","0.397168"
"Q","1617446381.2076766","7","-15","0","46","56","32","0.970459","-0.002625","0.240906","-0.010559","0","-0.022901","0","-4.833008","-0.233276","8.956616","-0.251221","-0.132788","0.294287","-0.086133","-0.126807","0.378027"
"Q","1617446381.1976857","7","-16","4","49","54","36","0.970398","-0.002502","0.24115","-0.01062","-0.007634","-0.022901","0","-4.813867","-0.194995","8.931494","-0.227295","-0.096899","0.271558","-0.075366","-0.090918","0.346924"
"Q","1617446381.1877224","7","-16","1","50","54","37","0.970337","-0.002319","0.241394","-0.010681","-0.015267","-0.022901","0","-4.823438","-0.128003","8.906372","-0.23208","-0.0323","0.248828","-0.088525","-0.026318","0.327783"
"Q","1617446381.177664","7","-16","1","48","55","33","0.970215","-0.002136","0.241699","-0.010864","-0.015267","-0.022901","0","-4.822241","-0.099292","8.868091","-0.226099","-0.007178","0.214136","-0.099292","-0.002393","0.294287"
"Q","1617446381.1677918","7","-16","-2","48","55","32","0.970154","-0.002014","0.241943","-0.010986","-0.015267","-0.022901","0","-4.810278","-0.107666","8.844165","-0.209351","-0.016748","0.192603","-0.094507","-0.011963","0.267969"
"Q","1617446381.1577797","7","-16","-3","48","57","32","0.970154","-0.001892","0.242126","-0.011108","-0.015267","-0.015267","0","-4.797119","-0.11604","8.833399","-0.192603","-0.026318","0.181836","-0.084937","-0.021533","0.250024"
"Q","1617446381.147633","7","-17","1","48","25","32","0.970093","-0.00177","0.242188","-0.011169","-0.015267","-0.007634","0","-4.754053","-0.120825","8.832202","-0.14834","-0.033496","0.183032","-0.045459","-0.029907","0.230884"
"Q","1617446381.1378105","7","-17","1","48","54","35","0.970093","-0.001587","0.242249","-0.01123","-0.007634","-0.007634","0","-4.71936","-0.12561","8.829809","-0.112451","-0.04187","0.18064","-0.014355","-0.039478","0.211743"
"Q","1617446381.1277928","7","-15","1","48","52","33","0.970093","-0.001465","0.24231","-0.01123","-0.007634","-0.007634","0","-4.702612","-0.118433","8.81665","-0.095703","-0.037085","0.16748","-0.005981","-0.034692","0.192603"
"Q","1617446381.1176786","7","-15","0","48","56","31","0.970093","-0.001343","0.24231","-0.011353","-0.007634","0","0","-4.671509","-0.111255","8.805883","-0.063403","-0.031104","0.156714","0.016748","-0.029907","0.16748"
"Q","1617446381.1077566","7","8","1","46","53","30","0.970093","-0.001282","0.242249","-0.011475","-0.007634","0.007634","0.007634","-4.615283","-0.105273","8.779566","-0.008374","-0.026318","0.130396","0.052637","-0.026318","0.118433"
"Q","1617446381.097732","7","-16","1","47","57","31","0.970154","-0.001221","0.242065","-0.011597","-0.007634","0.007634","0.007634","-4.563843","-0.098096","8.754443","0.038281","-0.019141","0.102881","0.081348","-0.020337","0.072974"
"Q","1617446381.0877998","7","-16","1","46","54","33","0.970215","-0.001221","0.241882","-0.01178","-0.007634","0.007634","0.007634","-4.548291","-0.078955","8.740088","0.050244","0","0.086133","0.08374","-0.001196","0.05144"
"Q","1617446381.0777884","7","-17","0","49","55","30","0.970215","-0.001099","0.241821","-0.011902","-0.015267","0","0.007634","-4.575806","-0.0323","8.737696","0.021533","0.044263","0.08374","0.058618","0.043066","0.063403"
"Q","1617446381.0677922","7","-17","1","45","56","29","0.970215","-0.001038","0.24176","-0.012085","-0.007634","0","0","-4.59375","0.007178","8.737696","0.002393","0.08374","0.08374","0.043066","0.082544","0.071777"
"Q","1617446381.0576806","7","-19","1","48","56","33","0.970215","-0.001038","0.241699","-0.012207","-0.007634","0","0","-4.599731","0.007178","8.724536","-0.003589","0.08374","0.070581","0.031104","0.082544","0.062207"
"Q","1617446381.0478768","7","-17","0","48","52","33","0.970215","-0.000977","0.241699","-0.012268","-0.007634","0","0","-4.590161","0.011963","8.716162","0.004785","0.088525","0.062207","0.034692","0.087329","0.05144"
"Q","1617446381.037772","7","-16","1","50","52","33","0.970276","-0.000977","0.241638","-0.01239","-0.007634","0","0","-4.581787","0.020337","8.717359","0.013159","0.096899","0.061011","0.04187","0.095703","0.046655"
"Q","1617446381.0276775","7","-17","4","49","57","35","0.970276","-0.000916","0.241577","-0.012512","-0.007634","0","0","-4.580591","0.027515","8.719751","0.013159","0.104077","0.063403","0.043066","0.102881","0.047852"
"Q","1617446381.0181398","7","-19","1","50","55","33","0.970276","-0.000854","0.241516","-0.012634","-0.007634","0","0","-4.573413","0.020337","8.724536","0.019141","0.095703","0.068188","0.050244","0.094507","0.050244"
"Q","1617446381.0078068","7","-17","-6","46","53","35","0.970276","-0.000854","0.241455","-0.012756","-0.007634","0","0","-4.569824","0.013159","8.735303","0.021533","0.089722","0.078955","0.057422","0.088525","0.058618"
"Q","1617446380.997669","7","-16","3","50","56","29","0.970276","-0.000916","0.241394","-0.012878","-0.007634","0","0","-4.565039","0.003589","8.741284","0.025122","0.081348","0.08374","0.063403","0.080151","0.061011"
"Q","1617446380.9877586","7","-17","1","48","56","32","0.970337","-0.000977","0.241333","-0.013","0","0","0","-4.56145","-0.013159","8.758032","0.027515","0.065796","0.099292","0.071777","0.0646","0.07417"
"Q","1617446380.9776697","7","-20","-1","31","54","32","0.970337","-0.000977","0.241333","-0.013062","-0.007634","0","0","-4.563843","-0.002393","8.773584","0.025122","0.077759","0.114844","0.077759","0.076563","0.088525"
"Q","1617446380.967736","7","-17","4","50","55","31","0.970337","-0.000977","0.241333","-0.013123","-0.007634","-0.007634","0","-4.600928","0.033496","8.77478","-0.010767","0.113647","0.11604","0.046655","0.112451","0.10647"
"Q","1617446380.9576936","7","-19","1","48","57","36","0.970276","-0.000977","0.241455","-0.013184","-0.007634","-0.007634","0","-4.627246","0.047852","8.767603","-0.034692","0.128003","0.110059","0.023926","0.128003","0.111255"
"Q","1617446380.947852","7","-16","0","47","55","32","0.970276","-0.000977","0.241516","-0.013245","-0.007634","-0.007634","0","-4.624854","0.069385","8.761621","-0.031104","0.149536","0.105273","0.025122","0.149536","0.105273"
"Q","1617446380.9376764","7","-16","4","48","57","33","0.970276","-0.001038","0.241577","-0.013428","-0.007634","-0.007634","0","-4.622461","0.061011","8.730517","-0.027515","0.143555","0.07417","0.013159","0.143555","0.076563"
"Q","1617446380.927795","7","-20","0","46","57","34","0.970215","-0.00116","0.241577","-0.013489","-0.007634","0","0","-4.608106","0.039478","8.711377","-0.014355","0.124414","0.056226","0.016748","0.124414","0.055029"
"Q","1617446380.9176755","7","-16","0","49","55","36","0.970276","-0.00116","0.241516","-0.013611","-0.007634","0","0","-4.587769","0.045459","8.697021","0.004785","0.131592","0.040674","0.026318","0.130396","0.0323"
"Q","1617446380.9076903","7","-15","3","48","56","33","0.970276","-0.001221","0.241394","-0.013733","-0.007634","0.007634","0","-4.56145","0.035889","8.69104","0.028711","0.123218","0.033496","0.043066","0.122021","0.014355"
"Q","1617446380.8977935","7","-15","1","49","56","33","0.970337","-0.001282","0.241211","-0.013794","-0.007634","0.015267","0","-4.525561","0.004785","8.69104","0.061011","0.093311","0.031104","0.070581","0.090918","-0.001196"
"Q","1617446380.8878546","7","-17","1","48","57","35","0.970398","-0.001343","0.240967","-0.013794","0","0.015267","-0.007634","-4.480103","-0.020337","8.693433","0.101685","0.069385","0.031104","0.105273","0.065796","-0.020337"
"Q","1617446380.8779082","7","-10","3","48","104","5","0.970459","-0.001343","0.240784","-0.013794","-0.007634","0.007634","-0.007634","-4.46814","-0.020337","8.689844","0.111255","0.069385","0.026318","0.111255","0.065796","-0.028711"
"Q","1617446380.8680048","7","-19","0","49","55","35","0.970459","-0.001282","0.240723","-0.013794","-0.007634","0","-0.007634","-4.484888","0.002393","8.694629","0.093311","0.090918","0.031104","0.099292","0.087329","-0.016748"
"Q","1617446380.8579636","7","-16","3","48","55","35","0.970459","-0.001221","0.240723","-0.013733","-0.007634","0","-0.007634","-4.498047","0.028711","8.70061","0.080151","0.11604","0.037085","0.090918","0.112451","-0.004785"
"Q","1617446380.8477793","7","-15","3","50","56","36","0.970459","-0.001221","0.240784","-0.013733","-0.007634","-0.007634","-0.007634","-4.531543","0.025122","8.692236","0.047852","0.112451","0.028711","0.058618","0.110059","0.001196"
"Q","1617446380.8376036","7","-16","1","49","56","33","0.970459","-0.00116","0.240845","-0.013611","-0.007634","-0.007634","-0.007634","-4.559058","0.025122","8.695826","0.021533","0.111255","0.0323","0.035889","0.110059","0.016748"
"Q","1617446380.8281434","7","-16","0","46","53","33","0.970398","-0.00116","0.240845","-0.013611","-0.007634","-0.007634","-0.007634","-4.581787","0.045459","8.705396","-0.001196","0.131592","0.043066","0.021533","0.130396","0.037085"
"Q","1617446380.818605","7","-16","1","50","53","33","0.970398","-0.001221","0.240906","-0.01355","0","-0.007634","-0.007634","-4.602124","0.034692","8.717359","-0.020337","0.120825","0.055029","0.010767","0.120825","0.056226"
"Q","1617446380.8077552","7","-19","-1","46","55","29","0.970398","-0.001404","0.240906","-0.013489","0.007634","-0.007634","0","-4.616479","-0.010767","8.740088","-0.034692","0.078955","0.077759","0.007178","0.078955","0.08374"
"Q","1617446380.7978404","7","-16","0","50","57","33","0.970398","-0.001648","0.240906","-0.013489","0.007634","-0.007634","0","-4.62605","-0.065796","8.771192","-0.044263","0.028711","0.108862","0.011963","0.028711","0.11604"
"Q","1617446380.787924","7","-17","1","49","57","31","0.970398","-0.001892","0.241028","-0.01355","0.007634","-0.007634","0","-4.624854","-0.118433","8.808276","-0.040674","-0.017944","0.147144","0.0323","-0.016748","0.14834"
"Q","1617446380.7784965","7","-19","1","50","51","29","0.970337","-0.002075","0.24115","-0.01355","0","-0.015267","-0.007634","-4.624854","-0.161499","8.842969","-0.038281","-0.057422","0.183032","0.050244","-0.056226","0.179443"
"Q","1617446380.7686017","7","-19","3","48","56","33","0.970276","-0.002075","0.241394","-0.013489","-0.007634","-0.015267","-0.015267","-4.653564","-0.163892","8.876465","-0.063403","-0.059814","0.218921","0.044263","-0.057422","0.223706"
"Q","1617446380.7587116","7","-19","11","47","54","30","0.970215","-0.001892","0.241699","-0.013367","-0.015267","-0.022901","-0.015267","-4.701416","-0.145947","8.905176","-0.105273","-0.045459","0.250024","0.022729","-0.043066","0.270361"
"Q","1617446380.7484753","7","-17","0","48","57","33","0.970093","-0.001709","0.242126","-0.013123","-0.015267","-0.030534","-0.022901","-4.762427","-0.128003","8.914746","-0.159106","-0.0323","0.26438","-0.016748","-0.028711","0.307446"
"Q","1617446380.7386138","7","-17","0","46","56","33","0.970032","-0.001465","0.242554","-0.012878","-0.015267","-0.022901","-0.015267","-4.805493","-0.117236","8.900391","-0.193799","-0.027515","0.253613","-0.05144","-0.022729","0.314624"
"Q","1617446380.7286365","7","-19","3","48","56","30","0.969971","-0.001282","0.242798","-0.012756","-0.007634","-0.015267","-0.007634","-4.804297","-0.10647","8.874072","-0.187817","-0.020337","0.229687","-0.057422","-0.015552","0.290698"
"Q","1617446380.7186267","7","-19","0","48","56","30","0.96991","-0.00116","0.24292","-0.012695","-0.007634","0","0","-4.789941","-0.108862","8.842969","-0.172266","-0.026318","0.19978","-0.057422","-0.022729","0.257202"
"Q","1617446380.7088144","7","-15","-1","48","57","28","0.969971","-0.001221","0.242737","-0.012756","0","0.007634","0.007634","-4.749268","-0.139966","8.796313","-0.133984","-0.055029","0.150732","-0.047852","-0.05144","0.196191"
"Q","1617446380.698562","7","-17","-1","50","55","31","0.970032","-0.001343","0.242432","-0.012878","0","0.015267","0.007634","-4.691846","-0.171069","8.764013","-0.082544","-0.08374","0.11604","-0.019141","-0.081348","0.141162"
"Q","1617446380.6885586","7","-15","1","48","53","33","0.970093","-0.001404","0.242126","-0.013062","0","0.015267","0.007634","-4.675097","-0.169873","8.741284","-0.070581","-0.080151","0.090918","-0.021533","-0.077759","0.113647"
"Q","1617446379.769472","7","-19","-1","58","56","34","0.970947","-0.001831","0.238586","-0.016113","-0.007634","-0.015267","-0.015267","-4.51958","-0.049048","8.835791","0.019141","0.061011","0.151929","0.088525","0.058618","0.124414"
"Q","1617446379.7595904","7","-19","0","47","53","31","0.970886","-0.001831","0.23877","-0.015991","-0.007634","-0.015267","-0.015267","-4.559058","-0.077759","8.887232","-0.015552","0.031104","0.205762","0.082544","0.029907","0.189014"
"Q","1617446379.7496932","7","-15","1","43","54","33","0.970825","-0.00177","0.239014","-0.015808","-0.007634","-0.015267","-0.015267","-4.587769","-0.122021","8.907568","-0.039478","-0.013159","0.227295","0.069385","-0.011963","0.218921"
"Q","1617446379.7395682","7","-17","0","48","56","31","0.970825","-0.00177","0.239197","-0.015625","-0.007634","-0.007634","-0.015267","-4.586572","-0.161499","8.907568","-0.034692","-0.053833","0.228491","0.072974","-0.052637","0.218921"
"Q","1617446379.7296371","7","-16","0","49","55","35","0.970764","-0.001648","0.239258","-0.015442","-0.007634","0","-0.015267","-4.565039","-0.174658","8.902783","-0.013159","-0.070581","0.226099","0.090918","-0.070581","0.206958"
"Q","1617446379.7196438","7","-15","1","49","58","31","0.970764","-0.001465","0.239319","-0.015259","-0.015267","0","-0.015267","-4.567431","-0.174658","8.883642","-0.014355","-0.07417","0.206958","0.080151","-0.07417","0.19021"
"Q","1617446379.7096667","7","-19","0","48","56","32","0.970764","-0.00116","0.239319","-0.015076","-0.015267","-0.007634","-0.015267","-4.591357","-0.145947","8.866895","-0.037085","-0.052637","0.19021","0.053833","-0.05144","0.185425"
"Q","1617446379.6997015","7","-15","3","48","55","32","0.970764","-0.000854","0.239441","-0.014954","-0.015267","-0.007634","-0.015267","-4.623657","-0.101685","8.845362","-0.066992","-0.014355","0.168677","0.017944","-0.013159","0.179443"
"Q","1617446379.6897612","7","-17","1","47","54","37","0.970703","-0.00061","0.239563","-0.014893","-0.015267","-0.007634","-0.007634","-4.649976","-0.092114","8.833399","-0.092114","-0.00957","0.159106","-0.007178","-0.007178","0.183032"
"Q","1617446379.679541","7","-20","1","49","56","36","0.970703","-0.000488","0.239685","-0.014832","-0.007634","-0.015267","0","-4.67749","-0.072974","8.845362","-0.117236","0.005981","0.171069","-0.023926","0.007178","0.205762"
"Q","1617446379.669635","7","-16","1","48","56","34","0.970642","-0.000366","0.239807","-0.014893","-0.007634","-0.015267","0","-4.714575","-0.039478","8.858521","-0.151929","0.037085","0.186621","-0.045459","0.039478","0.234473"
"Q","1617446379.6594472","7","-17","1","46","56","33","0.970642","-0.000305","0.239929","-0.015015","-0.007634","-0.015267","0.007634","-4.755249","-0.010767","8.864502","-0.19021","0.0646","0.192603","-0.076563","0.068188","0.258398"
"Q","1617446379.6497424","7","-16","1","48","57","33","0.970642","-0.000366","0.23999","-0.015259","0","-0.007634","0.007634","-4.767212","0.017944","8.865698","-0.200977","0.095703","0.193799","-0.08374","0.099292","0.263184"
"Q","1617446379.6398597","7","-15","1","50","56","33","0.970642","-0.000549","0.23999","-0.015503","0.007634","0","0.015267","-4.757642","-0.001196","8.851343","-0.191406","0.081348","0.179443","-0.082544","0.084937","0.246436"
"Q","1617446379.6295722","7","-15","1","48","54","33","0.970642","-0.000916","0.239929","-0.015747","0.015267","0","0.022901","-4.745679","-0.021533","8.827417","-0.18064","0.069385","0.155518","-0.084937","0.072974","0.220117"
"Q","1617446379.619779","7","-16","1","49","56","31","0.970642","-0.001282","0.239929","-0.016052","0.007634","0","0.022901","-4.748071","-0.00957","8.813062","-0.183032","0.089722","0.141162","-0.093311","0.094507","0.208154"
"Q","1617446379.609704","7","-17","3","48","55","31","0.970642","-0.001526","0.239868","-0.016418","0","-0.007634","0.015267","-4.766016","0.052637","8.801099","-0.202173","0.15791","0.129199","-0.113647","0.162695","0.205762"
"Q","1617446379.5996597","7","-16","0","48","55","31","0.970642","-0.001587","0.239868","-0.016724","-0.007634","-0.007634","0.007634","-4.787549","0.11604","8.791529","-0.223706","0.223706","0.119629","-0.133984","0.229687","0.206958"
"Q","1617446379.5896082","7","-21","1","48","55","32","0.970642","-0.001648","0.239868","-0.016907","-0.007634","-0.007634","0","-4.809082","0.137573","8.802295","-0.245239","0.247632","0.129199","-0.14834","0.25481","0.224902"
"Q","1617446379.5797424","7","-16","1","50","57","33","0.970642","-0.001648","0.239807","-0.016968","-0.007634","-0.007634","-0.007634","-4.800708","0.110059","8.83938","-0.238062","0.220117","0.166284","-0.12561","0.226099","0.25481"
"Q","1617446379.569644","7","-15","2","48","56","31","0.970642","-0.00177","0.239746","-0.016968","0","0","-0.007634","-4.769605","0.056226","8.876465","-0.208154","0.168677","0.203369","-0.08374","0.173462","0.27395"
"Q","1617446379.5594845","7","-16","3","46","57","34","0.970703","-0.001953","0.239624","-0.016968","0.007634","0","-0.007634","-4.737305","-0.013159","8.908765","-0.178247","0.102881","0.234473","-0.044263","0.107666","0.288306"
"Q","1617446379.5496197","7","-15","1","48","50","37","0.970703","-0.002197","0.239441","-0.016907","0.007634","0.007634","0","-4.688257","-0.08374","8.938672","-0.132788","0.037085","0.263184","0.005981","0.039478","0.293091"
"Q","1617446379.5397117","7","-16","4","50","57","33","0.970764","-0.002563","0.239258","-0.016968","0.015267","0.007634","0.007634","-4.629639","-0.151929","8.960205","-0.077759","-0.022729","0.282324","0.061011","-0.020337","0.285913"
"Q","1617446379.529669","7","-16","-3","46","56","32","0.970825","-0.002991","0.239136","-0.017151","0.015267","0","0.015267","-4.580591","-0.210547","8.954224","-0.031104","-0.072974","0.275146","0.096899","-0.071777","0.258398"
"Q","1617446379.5197444","7","-12","0","47","56","32","0.970825","-0.003174","0.239075","-0.017334","0","0.007634","0.015267","-4.55188","-0.185425","8.944654","-0.003589","-0.043066","0.26438","0.117236","-0.043066","0.235669"
"Q","1617446379.509769","7","-17","1","49","56","34","0.970825","-0.003052","0.239014","-0.017578","-0.022901","0.007634","0.007634","-4.555469","-0.070581","8.905176","-0.008374","0.069385","0.224902","0.098096","0.068188","0.200977"
"Q","1617446379.4995732","7","-16","1","49","57","34","0.970825","-0.002686","0.238953","-0.0177","-0.030534","0","-0.007634","-4.591357","0.062207","8.859716","-0.044263","0.196191","0.179443","0.050244","0.196191","0.175854"
"Q","1617446379.4897492","7","-17","1","48","57","32","0.970825","-0.002258","0.238892","-0.017761","-0.038168","0","-0.015267","-4.638013","0.160303","8.795117","-0.092114","0.285913","0.113647","-0.019141","0.288306","0.13877"
"Q","1617446379.4797463","7","-15","7","49","56","36","0.970886","-0.00177","0.23877","-0.017639","-0.038168","0.007634","-0.022901","-4.655957","0.192603","8.761621","-0.112451","0.308643","0.078955","-0.05144","0.311035","0.117236"
"Q","1617446379.4698062","7","-19","4","49","57","36","0.970947","-0.001404","0.238586","-0.017517","-0.030534","0.007634","-0.030534","-4.665527","0.175854","8.747266","-0.124414","0.283521","0.062207","-0.071777","0.287109","0.108862"
"Q","1617446379.4598386","7","-17","0","50","56","32","0.971008","-0.001099","0.238281","-0.017273","-0.022901","0.015267","-0.030534","-4.628442","0.11604","8.762817","-0.093311","0.216528","0.075366","-0.039478","0.218921","0.107666"
"Q","1617446379.4498358","7","-15","0","48","56","30","0.971069","-0.000916","0.237976","-0.016968","-0.015267","0.015267","-0.030534","-4.598535","0.039478","8.766406","-0.069385","0.135181","0.076563","-0.021533","0.136377","0.098096"
"Q","1617446379.439746","7","-16","4","49","55","37","0.971191","-0.000732","0.23761","-0.016602","-0.015267","0.015267","-0.030534","-4.573413","0.015552","8.780762","-0.050244","0.10647","0.087329","0","0.10647","0.099292"
"Q","1617446379.4297326","7","-16","1","48","57","35","0.971252","-0.000488","0.237244","-0.016296","-0.015267","0.015267","-0.022901","-4.538721","-0.002393","8.779566","-0.021533","0.082544","0.08374","0.021533","0.082544","0.082544"
"Q","1617446379.4197838","7","-19","1","48","56","37","0.971375","-0.000366","0.236938","-0.016052","-0.007634","0.015267","-0.015267","-4.483691","-0.022729","8.771192","0.026318","0.058618","0.071777","0.057422","0.056226","0.050244"
"Q","1617446379.4097135","7","-16","1","49","52","29","0.971436","-0.000244","0.236572","-0.01593","-0.007634","0.015267","-0.007634","-4.421484","-0.034692","8.748462","0.082544","0.043066","0.045459","0.094507","0.039478","0.001196"
"Q","1617446379.3999112","7","-16","3","48","56","33","0.971558","-0.000244","0.236206","-0.01593","-0.007634","0.022901","0","-4.360474","-0.043066","8.72334","0.136377","0.034692","0.016748","0.129199","0.029907","-0.047852"
"Q","1617446379.3897998","7","-17","1","48","56","32","0.971619","-0.000244","0.23584","-0.01593","0","0.022901","0","-4.311426","-0.05144","8.685059","0.179443","0.026318","-0.023926","0.14834","0.020337","-0.102881"
"Q","1617446379.3798065","7","-19","4","49","57","36","0.97168","-0.000305","0.235474","-0.016052","-0.007634","0.022901","0","-4.271948","-0.046655","8.644384","0.211743","0.0323","-0.066992","0.15791","0.025122","-0.155518"
"Q","1617446379.3699944","7","-17","1","47","55","33","0.971802","-0.000305","0.235168","-0.016113","-0.007634","0.022901","0","-4.244433","-0.040674","8.619263","0.234473","0.038281","-0.095703","0.165088","0.031104","-0.191406"
"Q","1617446379.3597972","7","-20","-3","47","55","33","0.971863","-0.000366","0.234863","-0.016113","-0.007634","0.015267","-0.007634","-4.237256","-0.040674","8.6073","0.235669","0.039478","-0.110059","0.160303","0.0323","-0.205762"
"Q","1617446379.3496976","7","-17","1","47","57","32","0.971924","-0.000305","0.234619","-0.016052","-0.007634","0.007634","-0.007634","-4.238452","-0.062207","8.610888","0.229687","0.016748","-0.108862","0.154321","0.00957","-0.200977"
"Q","1617446379.339893","7","-19","2","49","56","37","0.971985","-0.000305","0.234436","-0.01593","-0.007634","0.007634","-0.015267","-4.239648","-0.082544","8.619263","0.226099","-0.002393","-0.102881","0.153125","-0.008374","-0.193799"
"Q","1617446379.3299477","7","-15","1","47","57","34","0.971985","-0.000244","0.234375","-0.015808","-0.007634","0","-0.015267","-4.232471","-0.102881","8.6396","0.23208","-0.025122","-0.082544","0.16748","-0.031104","-0.178247"
"Q","1617446379.3198748","7","-16","-2","46","55","35","0.971985","-0.000183","0.234314","-0.015686","-0.007634","0","-0.007634","-4.233667","-0.120825","8.651563","0.229687","-0.044263","-0.070581","0.169873","-0.050244","-0.166284"
"Q","1617446379.3097713","7","-17","3","47","56","31","0.971985","-0.000244","0.234375","-0.015686","0","0","0","-4.248023","-0.14834","8.651563","0.216528","-0.070581","-0.070581","0.15791","-0.076563","-0.160303"
"Q","1617446379.299912","7","-16","-4","43","55","32","0.971985","-0.000305","0.234436","-0.015686","0.007634","0","0.007634","-4.257593","-0.181836","8.655151","0.208154","-0.102881","-0.066992","0.150732","-0.107666","-0.153125"
"Q","1617446379.2898014","7","-18","1","48","57","32","0.971985","-0.000549","0.234436","-0.015808","0.007634","0","0.015267","-4.267163","-0.202173","8.647974","0.198584","-0.118433","-0.07417","0.13877","-0.123218","-0.154321"
"Q","1617446379.2796805","7","-17","-1","48","54","33","0.971924","-0.000732","0.234497","-0.015991","0.007634","-0.007634","0.015267","-4.286304","-0.202173","8.659937","0.179443","-0.113647","-0.061011","0.128003","-0.118433","-0.133984"
"Q","1617446379.269748","7","-16","0","50","55","35","0.971924","-0.000916","0.23468","-0.016235","0.007634","-0.007634","0.007634","-4.326978","-0.189014","8.6719","0.142358","-0.095703","-0.047852","0.101685","-0.099292","-0.10647"
"Q","1617446379.2596805","7","-19","4","47","55","32","0.971863","-0.001038","0.234802","-0.016418","0","-0.007634","0","-4.358081","-0.168677","8.695826","0.113647","-0.072974","-0.022729","0.087329","-0.075366","-0.070581"
"Q","1617446379.2497647","7","-19","-1","48","54","36","0.971802","-0.000977","0.234985","-0.016418","-0.007634","-0.015267","-0.007634","-4.392774","-0.142358","8.731714","0.082544","-0.047852","0.014355","0.077759","-0.050244","-0.023926"
"Q","1617446379.2398634","7","-19","2","47","11","33","0.971802","-0.000854","0.235168","-0.016357","-0.015267","-0.015267","-0.015267","-4.441821","-0.112451","8.767603","0.037085","-0.020337","0.05144","0.055029","-0.021533","0.028711"
"Q","1617446379.2299316","7","-19","0","47","57","30","0.971741","-0.00061","0.235474","-0.016235","-0.015267","-0.015267","-0.015267","-4.471728","-0.076563","8.783154","0.011963","0.00957","0.069385","0.04187","0.008374","0.055029"
"Q","1617446379.2200017","7","-15","1","50","56","32","0.97168","-0.000427","0.235657","-0.016113","-0.007634","-0.015267","-0.007634","-4.48728","-0.053833","8.786743","0","0.028711","0.075366","0.034692","0.027515","0.065796"
"Q","1617446379.2099807","7","-19","1","48","52","27","0.971619","-0.000305","0.23584","-0.016052","-0.007634","-0.007634","0","-4.484888","-0.035889","8.775976","0.005981","0.043066","0.065796","0.035889","0.04187","0.055029"
"Q","1617446379.1998513","7","-16","-3","46","54","31","0.971619","-0.000183","0.235962","-0.016174","-0.007634","-0.007634","0.007634","-4.480103","0.003589","8.75205","0.013159","0.081348","0.043066","0.033496","0.080151","0.031104"
"Q","1617446379.1898077","7","-19","3","47","57","36","0.971558","-0.000061","0.236023","-0.016296","-0.015267","-0.007634","0.007634","-4.484888","0.061011","8.730517","0.008374","0.136377","0.022729","0.021533","0.135181","0.014355"
"Q","1617446379.179704","7","-19","1","48","55","33","0.971558","0.000061","0.236145","-0.016479","-0.015267","-0.007634","0.007634","-4.499243","0.139966","8.724536","-0.002393","0.214136","0.016748","0.011963","0.212939","0.013159"
"Q","1617446379.1699786","7","-19","-1","49","56","35","0.971497","0.000122","0.236206","-0.016724","-0.015267","-0.007634","0","-4.515991","0.177051","8.731714","-0.017944","0.251221","0.026318","0.003589","0.251221","0.028711"
"Q","1617446379.1597867","7","-19","-4","46","56","33","0.971497","0.000061","0.236206","-0.016907","-0.007634","-0.007634","0","-4.51958","0.13877","8.748462","-0.021533","0.215332","0.043066","0.007178","0.215332","0.045459"
"Q","1617446379.1498482","7","-16","-1","50","56","33","0.971497","-0.000061","0.236267","-0.017029","0","-0.007634","0.007634","-4.514795","0.072974","8.780762","-0.015552","0.151929","0.075366","0.025122","0.150732","0.071777"
"Q","1617446379.140016","7","-17","1","48","55","35","0.971497","-0.000305","0.236389","-0.017151","0","-0.015267","0","-4.52915","0.002393","8.831006","-0.027515","0.087329","0.12561","0.035889","0.086133","0.123218"
"Q","1617446379.1299236","7","-15","34","48","56","36","0.971436","-0.000427","0.236572","-0.017273","0","-0.022901","0","-4.571021","-0.038281","8.886035","-0.065796","0.049048","0.183032","0.026318","0.049048","0.191406"
"Q","1617446379.120447","7","-17","-1","49","50","33","0.971313","-0.000488","0.236938","-0.017273","0","-0.022901","0","-4.616479","-0.058618","8.937475","-0.105273","0.029907","0.238062","0.016748","0.031104","0.258398"
"Q","1617446379.110502","7","-15","0","47","55","31","0.971252","-0.000549","0.237305","-0.017273","-0.007634","-0.030534","-0.007634","-4.669116","-0.069385","8.981738","-0.150732","0.020337","0.285913","0","0.022729","0.321802"
"Q","1617446379.1005907","7","-16","4","50","55","29","0.97113","-0.000488","0.237671","-0.017212","0","-0.022901","-0.007634","-4.702612","-0.062207","8.978149","-0.178247","0.026318","0.285913","-0.023926","0.029907","0.334961"
"Q","1617446379.090577","7","-16","0","48","56","33","0.971069","-0.000488","0.237976","-0.017151","0","-0.015267","-0.007634","-4.726538","-0.045459","8.953028","-0.196191","0.043066","0.263184","-0.050244","0.046655","0.322998"
"Q","1617446379.080702","7","-18","1","48","54","29","0.971069","-0.000427","0.238037","-0.01709","-0.007634","-0.007634","-0.007634","-4.73252","-0.021533","8.926709","-0.200977","0.065796","0.236865","-0.065796","0.070581","0.301465"
"Q","1617446379.0705807","7","-20","1","47","55","33","0.971069","-0.000427","0.238037","-0.01709","-0.007634","0","-0.007634","-4.739697","-0.007178","8.908765","-0.208154","0.080151","0.218921","-0.080151","0.084937","0.289502"
"Q","1617446379.0605087","7","-17","0","48","56","33","0.971069","-0.000427","0.237976","-0.01709","-0.007634","0","0","-4.738501","-0.002393","8.902783","-0.208154","0.084937","0.212939","-0.082544","0.089722","0.283521"
"Q","1617446379.0505977","7","-17","1","48","57","31","0.971069","-0.000427","0.237915","-0.017151","-0.007634","0","0","-4.721753","-0.00957","8.894409","-0.192603","0.077759","0.204565","-0.072974","0.082544","0.269165"
"Q","1617446379.040634","7","-19","1","49","56","36","0.97113","-0.000427","0.237793","-0.017151","-0.007634","0","-0.007634","-4.713379","-0.010767","8.883642","-0.186621","0.076563","0.191406","-0.07417","0.081348","0.25481"
"Q","1617446379.0306304","7","-16","1","50","57","31","0.97113","-0.000366","0.237732","-0.017212","-0.007634","0","-0.007634","-4.70022","-0.005981","8.874072","-0.174658","0.080151","0.181836","-0.066992","0.08374","0.240454"
