"Alphabet","timestamp","user_id","flex_1","flex_2","flex_3","flex_4","flex_5","Qw","Qx","Qy","Qz","GYRx","GYRy","GYRz","ACCx","ACCy","ACCz","ACCx_body","ACCy_body","ACCz_body","ACCx_world","ACCy_world","ACCz_world"
"R","1617446457.039179","7","25","1","-22","64","42","0.662109","-0.120728","-0.737915","-0.049988","0.015267","0.007634","0","9.311914","-0.87688","-1.190308","-0.381616","-0.0323","-0.031104","0.057422","-0.080151","-0.37085"
"R","1617446457.0292058","7","25","-1","-23","60","42","0.661987","-0.12085","-0.737976","-0.050232","0.007634","0.007634","0","9.359766","-0.875684","-1.167578","-0.333765","-0.033496","-0.005981","0.028711","-0.070581","-0.325391"
"R","1617446457.0192854","7","25","-3","-23","61","41","0.661926","-0.120911","-0.738037","-0.050415","0","0","0","9.372925","-0.868506","-1.153223","-0.320605","-0.028711","0.008374","0.014355","-0.061011","-0.314624"
"R","1617446457.0092392","7","24","-1","-22","60","41","0.661865","-0.12085","-0.738098","-0.050537","-0.007634","-0.007634","0","9.370532","-0.843384","-1.132886","-0.324194","-0.005981","0.029907","0","-0.034692","-0.322998"
"R","1617446456.999271","7","25","-3","-24","52","40","0.661926","-0.120728","-0.738037","-0.050476","-0.015267","-0.015267","0","9.357373","-0.805103","-1.110156","-0.336157","0.029907","0.05144","-0.00957","0.002393","-0.340942"
"R","1617446456.9892082","7","24","-3","-23","61","41","0.662109","-0.120605","-0.737915","-0.050354","-0.015267","-0.022901","0","9.304736","-0.790747","-1.113745","-0.38999","0.045459","0.043066","0.005981","0.00957","-0.394775"
"R","1617446456.9793055","7","24","-1","-22","61","39","0.662354","-0.120483","-0.737732","-0.050232","-0.007634","-0.022901","-0.007634","9.267652","-0.809888","-1.122119","-0.428271","0.027515","0.028711","0.017944","-0.013159","-0.428271"
"R","1617446456.969557","7","25","1","-22","63","40","0.662598","-0.120544","-0.737549","-0.050171","0","-0.022901","-0.015267","9.249707","-0.846973","-1.126904","-0.446216","-0.005981","0.019141","0.020337","-0.050244","-0.442627"
"R","1617446456.959394","7","24","-4","-20","62","40","0.662781","-0.120728","-0.737366","-0.050232","0.007634","-0.007634","-0.015267","9.265259","-0.888843","-1.131689","-0.43186","-0.045459","0.00957","0.019141","-0.089722","-0.423486"
"R","1617446456.94936","7","25","-2","-20","63","39","0.662781","-0.120972","-0.737244","-0.050293","0.015267","0","-0.007634","9.326269","-0.911572","-1.111353","-0.369653","-0.065796","0.028711","-0.00957","-0.096899","-0.362476"
"R","1617446456.9394622","7","24","-3","-26","62","38","0.66272","-0.121155","-0.737305","-0.050476","0.015267","0.007634","0","9.384888","-0.927124","-1.101782","-0.311035","-0.082544","0.039478","-0.028711","-0.104077","-0.305054"
"R","1617446456.92924","7","24","-3","-26","59","38","0.662537","-0.121216","-0.737427","-0.05072","0.007634","0.007634","0","9.41958","-0.921143","-1.107764","-0.276343","-0.080151","0.038281","-0.029907","-0.098096","-0.270361"
"R","1617446456.919422","7","25","0","-24","60","41","0.662354","-0.121155","-0.737549","-0.050903","-0.007634","0.007634","0.007634","9.430346","-0.875684","-1.113745","-0.26438","-0.038281","0.035889","-0.019141","-0.057422","-0.261987"
"R","1617446456.9093575","7","26","-3","-27","58","40","0.662292","-0.12085","-0.737671","-0.051025","-0.022901","0","0.015267","9.425562","-0.809888","-1.114941","-0.270361","0.020337","0.035889","-0.003589","-0.001196","-0.272754"
"R","1617446456.8993251","7","25","1","-23","60","41","0.662292","-0.120361","-0.737732","-0.051025","-0.030534","-0.007634","0.015267","9.401636","-0.740503","-1.123315","-0.294287","0.08374","0.027515","0.021533","0.053833","-0.301465"
"R","1617446456.8894727","7","27","-3","-23","60","41","0.662415","-0.119812","-0.737793","-0.050903","-0.030534","-0.007634","0.015267","9.366943","-0.693848","-1.136475","-0.331372","0.12561","0.011963","0.049048","0.087329","-0.339746"
"R","1617446456.8793256","7","25","-1","-23","60","39","0.662537","-0.119385","-0.737732","-0.050781","-0.022901","-0.007634","0.007634","9.343018","-0.6771","-1.149634","-0.355298","0.13877","-0.002393","0.068188","0.094507","-0.362476"
"R","1617446456.8695264","7","25","-3","-23","60","39","0.662598","-0.119141","-0.737732","-0.050659","-0.007634","-0.007634","0","9.333447","-0.703418","-1.153223","-0.364868","0.111255","-0.007178","0.066992","0.065796","-0.368457"
"R","1617446456.8592503","7","29","-3","-23","68","37","0.662659","-0.119202","-0.737671","-0.050659","0.015267","-0.007634","-0.007634","9.325073","-0.785962","-1.171167","-0.373242","0.028711","-0.027515","0.068188","-0.019141","-0.368457"
"R","1617446456.8493068","7","25","0","-22","62","39","0.662598","-0.119446","-0.73761","-0.050842","0.015267","0","-0.007634","9.329859","-0.842188","-1.181934","-0.367261","-0.025122","-0.037085","0.063403","-0.071777","-0.356494"
"R","1617446456.839486","7","25","-2","-10","58","39","0.662598","-0.11969","-0.73761","-0.051086","0.015267","0","-0.007634","9.347803","-0.870898","-1.171167","-0.350513","-0.055029","-0.026318","0.044263","-0.096899","-0.33855"
"R","1617446456.829273","7","24","-2","-22","59","40","0.662537","-0.119812","-0.73761","-0.05127","0.007634","0","-0.007634","9.365747","-0.866113","-1.159204","-0.332568","-0.05144","-0.013159","0.031104","-0.088525","-0.322998"
"R","1617446456.8194313","7","23","-2","-24","59","37","0.662476","-0.119873","-0.73761","-0.051392","-0.007634","-0.007634","0","9.370532","-0.837402","-1.14126","-0.326587","-0.022729","0.003589","0.020337","-0.056226","-0.320605"
"R","1617446456.8095138","7","25","-2","-26","63","39","0.662537","-0.119751","-0.73761","-0.051392","-0.015267","-0.007634","0","9.358569","-0.803906","-1.129297","-0.339746","0.007178","0.014355","0.019141","-0.026318","-0.337354"
"R","1617446456.7994146","7","25","-3","-28","57","39","0.662598","-0.119507","-0.73761","-0.051331","-0.022901","-0.015267","0","9.341822","-0.775195","-1.131689","-0.356494","0.034692","0.010767","0.031104","-0.002393","-0.356494"
"R","1617446456.789412","7","23","-1","-22","62","41","0.662781","-0.119324","-0.737488","-0.051208","-0.022901","-0.015267","0","9.332251","-0.750073","-1.135278","-0.367261","0.058618","0.003589","0.044263","0.016748","-0.368457"
"R","1617446456.7796364","7","24","-5","-33","60","39","0.662903","-0.119141","-0.737427","-0.051025","-0.015267","-0.015267","0","9.332251","-0.748877","-1.158008","-0.367261","0.061011","-0.021533","0.069385","0.013159","-0.366064"
"R","1617446456.769261","7","25","-1","-23","60","41","0.663025","-0.119019","-0.737366","-0.050964","0","-0.007634","0","9.348999","-0.781177","-1.179541","-0.351709","0.028711","-0.045459","0.082544","-0.020337","-0.344531"
"R","1617446456.7597497","7","25","0","-23","59","38","0.663025","-0.11908","-0.737305","-0.050964","0.007634","0","-0.007634","9.372925","-0.819458","-1.17356","-0.326587","-0.008374","-0.040674","0.066992","-0.052637","-0.317017"
"R","1617446456.749395","7","25","-3","-24","60","40","0.663025","-0.119202","-0.737305","-0.051086","0.007634","0","-0.007634","9.380102","-0.850561","-1.1604","-0.320605","-0.039478","-0.026318","0.044263","-0.077759","-0.311035"
"R","1617446456.739448","7","25","-2","-24","62","41","0.663025","-0.119263","-0.737305","-0.051208","0","0","-0.007634","9.389673","-0.843384","-1.142456","-0.311035","-0.033496","-0.008374","0.027515","-0.066992","-0.303857"
"R","1617446456.729529","7","25","-1","-24","63","41","0.662964","-0.119263","-0.737305","-0.05127","-0.007634","0","0","9.398046","-0.811084","-1.10896","-0.301465","-0.001196","0.023926","0.003589","-0.027515","-0.300269"
"R","1617446456.7192855","7","23","-1","-22","59","40","0.662964","-0.119202","-0.737305","-0.051208","-0.015267","0","0","9.395655","-0.778784","-1.081445","-0.303857","0.029907","0.05144","-0.013159","0.007178","-0.308643"
"R","1617446456.709293","7","25","0","-23","63","39","0.662964","-0.11908","-0.737366","-0.051147","-0.015267","-0.007634","0","9.400439","-0.758447","-1.068286","-0.300269","0.049048","0.065796","-0.022729","0.029907","-0.308643"
"R","1617446456.6992123","7","23","-4","-22","63","40","0.663025","-0.118958","-0.737305","-0.051025","-0.007634","-0.007634","0","9.386084","-0.763232","-1.080249","-0.313428","0.044263","0.05144","-0.00957","0.020337","-0.319409"
"R","1617446456.6893103","7","27","0","-26","60","37","0.663086","-0.118896","-0.737305","-0.050964","-0.007634","-0.007634","0","9.371729","-0.777588","-1.095801","-0.328979","0.031104","0.034692","0.003589","0.002393","-0.331372"
"R","1617446456.6794152","7","25","-1","-22","59","38","0.663147","-0.118835","-0.737244","-0.050964","-0.007634","-0.007634","0","9.369336","-0.787158","-1.116138","-0.331372","0.020337","0.013159","0.022729","-0.011963","-0.330176"
"R","1617446456.6694195","7","25","-3","-19","62","39","0.663208","-0.118835","-0.737183","-0.050903","0","-0.007634","-0.007634","9.369336","-0.794336","-1.119727","-0.331372","0.014355","0.008374","0.025122","-0.019141","-0.330176"
"R","1617446456.6596265","7","24","-1","-22","60","40","0.663269","-0.118896","-0.737122","-0.050903","0","-0.007634","-0.007634","9.341822","-0.813477","-1.130493","-0.358887","-0.002393","-0.003589","0.034692","-0.040674","-0.354102"
"R","1617446456.649497","7","27","-1","-22","60","39","0.663269","-0.118958","-0.737122","-0.050964","0","-0.007634","-0.007634","9.310718","-0.827832","-1.148438","-0.38999","-0.016748","-0.021533","0.05144","-0.062207","-0.381616"
"R","1617446456.6394048","7","24","4","-25","61","41","0.66333","-0.118958","-0.737061","-0.051025","-0.007634","0","-0.007634","9.327466","-0.819458","-1.138867","-0.373242","-0.00957","-0.013159","0.044263","-0.05144","-0.366064"
"R","1617446456.6294217","7","25","-3","-27","61","39","0.66333","-0.118958","-0.737061","-0.050964","-0.007634","0","-0.007634","9.348999","-0.791943","-1.117334","-0.351709","0.017944","0.007178","0.028711","-0.017944","-0.349316"
"R","1617446456.6195495","7","22","0","-26","66","37","0.66333","-0.118896","-0.737061","-0.050903","-0.007634","0","0","9.360962","-0.776392","-1.098193","-0.339746","0.033496","0.026318","0.013159","0.001196","-0.340942"
"R","1617446456.6096466","7","23","-1","-23","60","42","0.663269","-0.118835","-0.737122","-0.050842","-0.007634","0","-0.007634","9.378906","-0.787158","-1.07666","-0.321802","0.022729","0.049048","-0.011963","-0.001196","-0.325391"
"R","1617446456.59953","7","24","-4","-26","58","40","0.663208","-0.118896","-0.737183","-0.050781","-0.007634","0","-0.007634","9.370532","-0.795532","-1.069482","-0.330176","0.015552","0.058618","-0.021533","-0.005981","-0.333765"
"R","1617446456.5894558","7","31","-2","-22","59","39","0.663208","-0.118896","-0.737183","-0.05072","0","-0.007634","-0.007634","9.326269","-0.807495","-1.082642","-0.374438","0.004785","0.045459","-0.007178","-0.025122","-0.375635"
"R","1617446456.5793924","7","25","-1","-24","60","39","0.663208","-0.118958","-0.737183","-0.05072","0","-0.007634","-0.007634","9.298755","-0.821851","-1.098193","-0.401953","-0.008374","0.029907","0.005981","-0.044263","-0.399561"
"R","1617446456.5694156","7","25","-1","-20","62","41","0.663208","-0.119019","-0.737183","-0.050781","0","0","-0.007634","9.29397","-0.823047","-1.117334","-0.406738","-0.00957","0.010767","0.023926","-0.050244","-0.401953"
"R","1617446456.559675","7","25","-11","-24","66","39","0.663208","-0.119019","-0.737183","-0.050781","-0.007634","0","0","9.304736","-0.814673","-1.132886","-0.395972","-0.001196","-0.003589","0.039478","-0.044263","-0.391187"
"R","1617446456.5493846","7","25","-1","-22","57","41","0.663208","-0.119019","-0.737183","-0.050781","-0.007634","0","0","9.317896","-0.806299","-1.144849","-0.382812","0.005981","-0.015552","0.05144","-0.038281","-0.376831"
"R","1617446456.539419","7","24","0","-24","59","41","0.663208","-0.118958","-0.737183","-0.050781","-0.007634","0.007634","-0.007634","9.348999","-0.790747","-1.138867","-0.351709","0.021533","-0.00957","0.046655","-0.019141","-0.34812"
"R","1617446456.529502","7","24","0","-21","60","40","0.663086","-0.118958","-0.737305","-0.05072","0","0.007634","-0.007634","9.378906","-0.799121","-1.140064","-0.320605","0.013159","-0.007178","0.039478","-0.022729","-0.317017"
"R","1617446456.5195117","7","25","-3","-24","58","38","0.663025","-0.119019","-0.737366","-0.05072","0","0.007634","-0.007634","9.392065","-0.806299","-1.140064","-0.307446","0.007178","-0.005981","0.035889","-0.027515","-0.303857"
"R","1617446456.5095327","7","27","0","-20","61","41","0.662903","-0.119019","-0.737427","-0.05072","0","0","-0.007634","9.396851","-0.801514","-1.14126","-0.302661","0.010767","-0.004785","0.034692","-0.022729","-0.299072"
"R","1617446456.499583","7","27","-1","-20","60","41","0.662903","-0.11908","-0.737427","-0.050781","-0.007634","-0.007634","0","9.374121","-0.791943","-1.147241","-0.325391","0.020337","-0.010767","0.045459","-0.017944","-0.321802"
"R","1617446456.4892542","7","26","-3","-22","58","39","0.662903","-0.119019","-0.737427","-0.050781","-0.007634","-0.007634","0","9.358569","-0.778784","-1.136475","-0.340942","0.033496","0","0.039478","-0.003589","-0.339746"
"R","1617446456.4792705","7","27","-3","-22","61","39","0.662964","-0.118896","-0.737427","-0.05072","-0.015267","-0.007634","0","9.359766","-0.765625","-1.113745","-0.339746","0.045459","0.020337","0.022729","0.010767","-0.342139"
"R","1617446456.469238","7","31","-1","-25","61","38","0.663025","-0.118774","-0.737427","-0.050659","-0.015267","-0.007634","0","9.356176","-0.757251","-1.102978","-0.344531","0.053833","0.031104","0.014355","0.021533","-0.34812"
"R","1617446456.4601405","7","25","-4","-22","62","39","0.663086","-0.118652","-0.737366","-0.050537","-0.007634","-0.007634","-0.007634","9.350195","-0.772803","-1.104175","-0.349316","0.038281","0.027515","0.014355","0.004785","-0.351709"
"R","1617446456.4495585","7","24","-1","-22","60","40","0.663147","-0.118652","-0.737305","-0.050415","-0.007634","-0.007634","-0.007634","9.338232","-0.801514","-1.117334","-0.361279","0.011963","0.013159","0.022729","-0.023926","-0.360083"
"R","1617446456.439691","7","23","-2","-23","58","39","0.663147","-0.118774","-0.737305","-0.050354","0","0","-0.007634","9.34541","-0.849365","-1.137671","-0.354102","-0.0323","-0.005981","0.029907","-0.070581","-0.346924"
"R","1617446456.4303737","7","23","-1","-21","59","40","0.663147","-0.118896","-0.737305","-0.050415","0.007634","0","-0.007634","9.369336","-0.890039","-1.154419","-0.331372","-0.072974","-0.022729","0.034692","-0.111255","-0.318213"
"R","1617446456.4201405","7","26","-1","-26","62","42","0.663086","-0.118958","-0.737305","-0.050476","0","0","-0.007634","9.383692","-0.903198","-1.166382","-0.31582","-0.086133","-0.033496","0.039478","-0.124414","-0.301465"
"R","1617446456.4102287","7","25","0","-20","62","39","0.663086","-0.119019","-0.737305","-0.050537","0","-0.007634","-0.007634","9.369336","-0.900806","-1.179541","-0.330176","-0.08374","-0.046655","0.055029","-0.126807","-0.313428"
"R","1617446456.4003663","7","28","-1","-23","63","39","0.663147","-0.119019","-0.737244","-0.050598","-0.007634","-0.007634","-0.007634","9.350195","-0.88645","-1.178345","-0.349316","-0.070581","-0.046655","0.059814","-0.11604","-0.333765"
"R","1617446456.3894882","7","26","-2","-22","62","39","0.663269","-0.118958","-0.737122","-0.050598","-0.015267","-0.007634","-0.007634","9.341822","-0.85415","-1.156811","-0.35769","-0.038281","-0.028711","0.050244","-0.081348","-0.346924"
"R","1617446456.3800013","7","25","-2","-22","57","37","0.663391","-0.118835","-0.737061","-0.050476","-0.015267","-0.007634","-0.007634","9.346606","-0.814673","-1.124512","-0.354102","0.001196","0","0.0323","-0.037085","-0.350513"
"R","1617446456.370204","7","25","1","-21","62","42","0.663513","-0.118713","-0.737","-0.050415","-0.007634","-0.007634","0","9.359766","-0.805103","-1.089819","-0.340942","0.00957","0.031104","0.002393","-0.020337","-0.340942"
"R","1617446456.3594244","7","25","-1","-23","60","36","0.663574","-0.118652","-0.736938","-0.050354","0","-0.007634","0","9.401636","-0.820654","-1.046753","-0.299072","-0.003589","0.072974","-0.043066","-0.017944","-0.303857"
"R","1617446456.3502026","7","27","1","-20","64","42","0.663574","-0.118652","-0.736938","-0.050415","0","-0.007634","0","9.401636","-0.827832","-1.032398","-0.300269","-0.011963","0.087329","-0.059814","-0.022729","-0.305054"
"R","1617446456.3401625","7","24","-1","-22","58","43","0.663574","-0.118652","-0.736938","-0.050476","0","-0.007634","0","9.394458","-0.819458","-1.020435","-0.307446","-0.004785","0.099292","-0.068188","-0.014355","-0.314624"
"R","1617446456.3294942","7","25","-3","-23","60","42","0.663574","-0.118652","-0.736938","-0.050537","-0.007634","-0.007634","0","9.372925","-0.799121","-1.009668","-0.328979","0.013159","0.110059","-0.072974","0.002393","-0.33855"
"R","1617446456.3203275","7","24","0","-21","63","40","0.663635","-0.118591","-0.736877","-0.050537","-0.007634","-0.007634","0","9.34541","-0.781177","-1.008472","-0.356494","0.031104","0.108862","-0.0646","0.016748","-0.367261"
"R","1617446456.310274","7","27","0","-22","64","39","0.663635","-0.11853","-0.736877","-0.050598","-0.007634","-0.007634","0","9.326269","-0.775195","-1.022827","-0.375635","0.034692","0.094507","-0.047852","0.014355","-0.385205"
"R","1617446456.3002443","7","24","-3","-22","58","39","0.663635","-0.11853","-0.736877","-0.050537","-0.007634","0","-0.007634","9.316699","-0.781177","-1.05752","-0.385205","0.029907","0.059814","-0.014355","0.001196","-0.38999"
"R","1617446456.2902024","7","25","-3","-22","63","40","0.663574","-0.118591","-0.736938","-0.050476","0","0.007634","-0.007634","9.329859","-0.805103","-1.082642","-0.372046","0.007178","0.037085","0","-0.023926","-0.372046"
"R","1617446456.2802727","7","25","1","-22","60","40","0.663452","-0.118713","-0.737061","-0.050476","0.007634","0.015267","-0.007634","9.371729","-0.838599","-1.098193","-0.330176","-0.023926","0.025122","0","-0.052637","-0.326587"
"R","1617446456.2702467","7","25","-1","-22","62","39","0.663208","-0.118896","-0.737183","-0.050415","0.007634","0.015267","-0.007634","9.389673","-0.868506","-1.119727","-0.309839","-0.050244","0.008374","0.007178","-0.080151","-0.302661"
"R","1617446456.260369","7","24","-1","-22","62","42","0.663025","-0.119019","-0.737366","-0.050476","0","0.007634","-0.007634","9.382495","-0.875684","-1.147241","-0.317017","-0.057422","-0.011963","0.026318","-0.092114","-0.307446"
"R","1617446456.2502089","7","25","0","-19","61","29","0.662842","-0.11908","-0.737488","-0.050537","-0.007634","0","-0.007634","9.363355","-0.851758","-1.166382","-0.334961","-0.034692","-0.027515","0.049048","-0.075366","-0.325391"
"R","1617446456.240418","7","23","-2","-23","60","42","0.662842","-0.11908","-0.737549","-0.050537","-0.007634","-0.007634","0","9.331055","-0.821851","-1.178345","-0.368457","-0.004785","-0.038281","0.069385","-0.052637","-0.358887"
"R","1617446456.2301598","7","26","0","-26","62","40","0.662903","-0.118958","-0.737488","-0.050476","-0.015267","-0.007634","0","9.297559","-0.782373","-1.189111","-0.401953","0.033496","-0.05144","0.094507","-0.022729","-0.393579"
"R","1617446456.220381","7","27","1","-23","61","41","0.662964","-0.118774","-0.737427","-0.050415","-0.015267","-0.007634","0","9.273633","-0.740503","-1.184326","-0.425879","0.07417","-0.049048","0.104077","0.013159","-0.421094"
"R","1617446456.2103124","7","28","-3","-22","58","39","0.663086","-0.118713","-0.737366","-0.050293","-0.007634","0","-0.007634","9.276026","-0.726147","-1.171167","-0.423486","0.089722","-0.038281","0.096899","0.031104","-0.421094"
"R","1617446456.2001808","7","25","0","-21","59","39","0.663086","-0.118713","-0.737366","-0.050232","0","0","-0.007634","9.307129","-0.745288","-1.149634","-0.392383","0.070581","-0.016748","0.069385","0.021533","-0.391187"
"R","1617446456.1905096","7","25","-1","-23","62","41","0.663025","-0.118896","-0.737366","-0.050232","0.007634","0.007634","-0.007634","9.346606","-0.791943","-1.128101","-0.351709","0.026318","0.004785","0.033496","-0.010767","-0.350513"
"R","1617446456.1801822","7","28","0","-24","62","40","0.662964","-0.11908","-0.737427","-0.050354","0.007634","0","-0.007634","9.381299","-0.832617","-1.110156","-0.318213","-0.011963","0.025122","0.001196","-0.039478","-0.31582"
"R","1617446456.1702197","7","23","-2","-24","60","41","0.662903","-0.119263","-0.737427","-0.050476","0","0","-0.007634","9.393262","-0.836206","-1.094604","-0.305054","-0.015552","0.04187","-0.015552","-0.038281","-0.305054"
"R","1617446456.160409","7","25","-2","-23","62","39","0.662903","-0.119263","-0.737427","-0.050537","-0.007634","-0.007634","0","9.388476","-0.808691","-1.091016","-0.309839","0.00957","0.045459","-0.011963","-0.013159","-0.312231"
"R","1617446456.1502633","7","25","-3","-22","60","40","0.662903","-0.119202","-0.737427","-0.050537","-0.015267","-0.015267","0","9.372925","-0.771606","-1.104175","-0.325391","0.046655","0.0323","0.00957","0.016748","-0.328979"
"R","1617446456.1403427","7","24","-2","-26","60","41","0.663025","-0.119019","-0.737366","-0.050415","-0.015267","-0.015267","0","9.352588","-0.747681","-1.130493","-0.346924","0.069385","0.003589","0.044263","0.029907","-0.349316"
"R","1617446456.1304295","7","23","5","-22","62","39","0.663147","-0.118896","-0.737244","-0.050354","-0.007634","-0.007634","0","9.344213","-0.763232","-1.159204","-0.355298","0.053833","-0.027515","0.071777","0.005981","-0.352905"
"R","1617446456.1204064","7","29","-1","-26","60","40","0.663208","-0.118896","-0.737244","-0.050293","-0.007634","0","-0.007634","9.356176","-0.782373","-1.165186","-0.343335","0.035889","-0.034692","0.072974","-0.00957","-0.33855"
"R","1617446456.1101773","7","22","0","-21","58","42","0.663208","-0.118896","-0.737244","-0.050293","0","0","-0.007634","9.375318","-0.800317","-1.167578","-0.324194","0.017944","-0.037085","0.069385","-0.026318","-0.317017"
"R","1617446456.100289","7","25","-4","-27","58","39","0.663147","-0.119019","-0.737244","-0.050232","0","0.007634","-0.007634","9.394458","-0.826636","-1.154419","-0.305054","-0.004785","-0.022729","0.047852","-0.043066","-0.297876"
"R","1617446456.090494","7","25","-3","-21","60","40","0.663086","-0.119141","-0.737305","-0.050232","0","0","-0.007634","9.399243","-0.848169","-1.124512","-0.300269","-0.025122","0.008374","0.013159","-0.055029","-0.295483"
"R","1617446456.0803788","7","27","-1","-23","59","40","0.663025","-0.119202","-0.737366","-0.050171","-0.007634","0","-0.007634","9.390869","-0.857739","-1.09939","-0.307446","-0.033496","0.034692","-0.013159","-0.057422","-0.305054"
"R","1617446456.0703485","7","24","0","-23","59","39","0.663025","-0.119141","-0.737366","-0.05011","-0.015267","-0.007634","-0.007634","9.362158","-0.849365","-1.09939","-0.336157","-0.025122","0.034692","-0.008374","-0.052637","-0.333765"
"R","1617446456.060439","7","25","0","-21","59","41","0.663147","-0.119019","-0.737305","-0.049988","-0.015267","-0.015267","-0.007634","9.329859","-0.817065","-1.110156","-0.369653","0.007178","0.021533","0.014355","-0.027515","-0.368457"
"R","1617446456.0502875","7","24","-1","-23","63","41","0.663208","-0.118896","-0.737244","-0.049866","-0.015267","-0.007634","0","9.328662","-0.80271","-1.123315","-0.37085","0.021533","0.005981","0.033496","-0.017944","-0.368457"
"R","1617446456.040455","7","23","-1","-24","61","41","0.663269","-0.118835","-0.737244","-0.049805","0","0","-0.007634","9.353785","-0.818262","-1.15083","-0.345728","0.005981","-0.020337","0.052637","-0.035889","-0.339746"
"R","1617446456.0302978","7","25","-1","-22","59","38","0.663208","-0.118896","-0.737244","-0.049805","0.007634","0","-0.007634","9.365747","-0.842188","-1.190308","-0.332568","-0.015552","-0.059814","0.08374","-0.0646","-0.320605"
"R","1617446456.0202987","7","23","-1","-26","59","40","0.663147","-0.119019","-0.737244","-0.049866","0.007634","0","-0.007634","9.35498","-0.86731","-1.214233","-0.343335","-0.040674","-0.082544","0.100488","-0.095703","-0.326587"
"R","1617446456.0104506","7","24","0","-24","57","40","0.663147","-0.119141","-0.737305","-0.049927","0","0.007634","-0.007634","9.369336","-0.869702","-1.198682","-0.330176","-0.04187","-0.065796","0.08374","-0.090918","-0.314624"
"R","1617446456.0003052","7","25","-3","-26","59","40","0.663086","-0.119141","-0.737305","-0.049988","-0.007634","0.007634","-0.007634","9.389673","-0.846973","-1.1604","-0.308643","-0.020337","-0.026318","0.047852","-0.058618","-0.300269"
"R","1617446455.9904437","7","25","-1","-22","60","40","0.663025","-0.119019","-0.737366","-0.049927","-0.022901","0","0","9.37771","-0.80271","-1.11853","-0.320605","0.021533","0.015552","0.019141","-0.00957","-0.320605"
"R","1617446455.980286","7","25","0","-22","60","41","0.663086","-0.118774","-0.737366","-0.049744","-0.030534","-0.007634","0","9.352588","-0.745288","-1.073071","-0.345728","0.078955","0.059814","-0.005981","0.05144","-0.355298"
"R","1617446455.9704227","7","24","-1","-26","61","41","0.663208","-0.11853","-0.737366","-0.049438","-0.022901","-0.007634","0","9.329859","-0.723755","-1.047949","-0.369653","0.101685","0.082544","-0.020337","0.076563","-0.382812"
"R","1617446455.960321","7","26","-2","-22","61","27","0.663269","-0.118408","-0.737305","-0.049194","-0.007634","-0.007634","-0.007634","9.317896","-0.752466","-1.052734","-0.38042","0.075366","0.076563","-0.020337","0.047852","-0.391187"
"R","1617446455.9503057","7","8","-1","-22","59","37","0.663269","-0.118469","-0.737305","-0.049072","0.007634","-0.007634","-0.007634","9.327466","-0.813477","-1.079053","-0.37085","0.016748","0.050244","-0.00957","-0.011963","-0.373242"
"R","1617446455.9405172","7","24","0","-23","61","40","0.663269","-0.118713","-0.737305","-0.049072","0.015267","0","-0.015267","9.33584","-0.870898","-1.102978","-0.362476","-0.035889","0.027515","-0.001196","-0.068188","-0.35769"
"R","1617446455.930487","7","25","-1","-24","60","39","0.663147","-0.119019","-0.737305","-0.049255","0.015267","0.007634","-0.007634","9.347803","-0.904395","-1.11853","-0.349316","-0.068188","0.013159","0.002393","-0.100488","-0.340942"
"R","1617446455.9204595","7","25","-2","-23","64","41","0.663025","-0.119141","-0.737366","-0.049438","0","0.007634","-0.007634","9.380102","-0.887646","-1.132886","-0.317017","-0.053833","0.002393","0.013159","-0.086133","-0.308643"
"R","1617446455.9102733","7","24","-4","-26","60","42","0.662964","-0.119141","-0.737488","-0.0495","-0.007634","0","0","9.386084","-0.838599","-1.124512","-0.312231","-0.004785","0.013159","0.014355","-0.035889","-0.309839"
"R","1617446455.900273","7","23","1","-23","59","42","0.662903","-0.119019","-0.737549","-0.049438","-0.022901","0","0","9.368139","-0.79314","-1.123315","-0.328979","0.038281","0.015552","0.023926","0.003589","-0.330176"
"R","1617446455.8904178","7","22","-1","-23","60","40","0.662964","-0.118774","-0.737549","-0.049255","-0.022901","-0.007634","0","9.339429","-0.756055","-1.11853","-0.358887","0.07417","0.019141","0.0323","0.035889","-0.363672"
"R","1617446455.8805983","7","25","-1","-25","63","41","0.663025","-0.11853","-0.737549","-0.049072","-0.022901","-0.007634","0","9.317896","-0.73811","-1.119727","-0.38042","0.092114","0.016748","0.040674","0.050244","-0.385205"
"R","1617446455.8703496","7","25","-3","-22","74","33","0.663086","-0.118408","-0.737549","-0.048828","-0.015267","0","-0.007634","9.331055","-0.752466","-1.101782","-0.367261","0.080151","0.033496","0.020337","0.044263","-0.373242"
"R","1617446455.8603692","7","27","-1","-26","61","41","0.663025","-0.118469","-0.73761","-0.048645","0","0","-0.007634","9.368139","-0.814673","-1.089819","-0.330176","0.021533","0.047852","-0.00957","-0.003589","-0.333765"
"R","1617446455.8510425","7","23","0","-23","60","39","0.662903","-0.118713","-0.73761","-0.048645","0.015267","0","-0.015267","9.388476","-0.904395","-1.095801","-0.307446","-0.0646","0.044263","-0.028711","-0.086133","-0.302661"
"R","1617446455.8404698","7","24","-2","-24","57","37","0.662842","-0.118958","-0.737671","-0.048767","0.007634","0","-0.007634","9.395655","-0.936694","-1.095801","-0.301465","-0.095703","0.045459","-0.038281","-0.114844","-0.294287"
"R","1617446455.830556","7","23","-2","-23","60","40","0.662781","-0.11908","-0.737732","-0.048828","0","0","-0.007634","9.37771","-0.907983","-1.085034","-0.319409","-0.066992","0.058618","-0.04187","-0.086133","-0.317017"
"R","1617446455.8205037","7","24","-2","-22","60","41","0.66272","-0.11908","-0.737732","-0.048828","-0.007634","-0.007634","-0.007634","9.350195","-0.86731","-1.079053","-0.345728","-0.026318","0.065796","-0.037085","-0.047852","-0.346924"
"R","1617446455.810469","7","25","0","-23","60","38","0.662781","-0.118958","-0.737732","-0.048767","-0.015267","-0.007634","0","9.337036","-0.826636","-1.082642","-0.360083","0.013159","0.061011","-0.021533","-0.013159","-0.363672"
"R","1617446455.8004336","7","23","0","-22","59","40","0.662781","-0.118774","-0.737732","-0.048706","-0.015267","0","0","9.343018","-0.801514","-1.091016","-0.352905","0.037085","0.052637","-0.008374","0.008374","-0.35769"
"R","1617446455.7905278","7","23","-1","-23","60","40","0.662781","-0.118652","-0.737732","-0.048584","-0.007634","0","-0.007634","9.332251","-0.790747","-1.083838","-0.363672","0.047852","0.058618","-0.010767","0.019141","-0.369653"
"R","1617446455.7805417","7","23","-1","-22","60","40","0.662781","-0.118652","-0.737793","-0.048462","0","-0.007634","-0.007634","9.305933","-0.815869","-1.091016","-0.38999","0.023926","0.052637","-0.008374","-0.007178","-0.393579"
"R","1617446455.770411","7","27","-1","-23","62","39","0.66272","-0.118835","-0.737793","-0.048401","0.007634","0","-0.007634","9.283203","-0.863721","-1.11853","-0.41272","-0.019141","0.026318","0.008374","-0.057422","-0.409131"
"R","1617446455.7606142","7","23","-1","-22","57","40","0.662659","-0.119019","-0.737854","-0.048462","0.007634","0.007634","-0.007634","9.317896","-0.892432","-1.137671","-0.378027","-0.046655","0.00957","0.014355","-0.084937","-0.37085"
"R","1617446455.750507","7","23","1","-22","63","39","0.662476","-0.11908","-0.737976","-0.048584","0","0.007634","0","9.376513","-0.880469","-1.130493","-0.318213","-0.035889","0.021533","0","-0.0646","-0.313428"
"R","1617446455.7403429","7","23","-1","-23","60","42","0.662354","-0.11908","-0.738098","-0.048584","-0.007634","0.007634","0","9.386084","-0.852954","-1.14126","-0.308643","-0.00957","0.013159","0.013159","-0.039478","-0.305054"
"R","1617446455.7304337","7","27","-1","-23","62","40","0.662231","-0.118958","-0.73822","-0.048584","-0.007634","0","0","9.37771","-0.824243","-1.144849","-0.317017","0.016748","0.013159","0.020337","-0.015552","-0.31582"
"R","1617446455.720567","7","25","-3","-24","59","39","0.66217","-0.118835","-0.738281","-0.048523","-0.007634","0","0","9.368139","-0.806299","-1.159204","-0.326587","0.033496","0","0.038281","-0.003589","-0.325391"
"R","1617446455.711354","7","22","-2","-24","59","40","0.66217","-0.118774","-0.738281","-0.048523","-0.007634","0","0","9.351392","-0.805103","-1.161597","-0.343335","0.033496","-0.001196","0.040674","-0.005981","-0.342139"
"R","1617446455.7004578","7","25","-1","-23","59","41","0.66217","-0.118713","-0.738281","-0.048462","-0.007634","0","-0.007634","9.333447","-0.799121","-1.163989","-0.360083","0.039478","-0.003589","0.046655","-0.002393","-0.358887"
"R","1617446455.690505","7","26","0","-24","60","42","0.66217","-0.118713","-0.738342","-0.04834","0","0","-0.007634","9.316699","-0.805103","-1.175952","-0.378027","0.035889","-0.014355","0.057422","-0.00957","-0.374438"
"R","1617446455.6805823","7","24","-3","-24","59","36","0.662109","-0.118896","-0.738342","-0.048279","0.007634","0","-0.015267","9.31311","-0.842188","-1.189111","-0.38042","0.001196","-0.026318","0.061011","-0.046655","-0.373242"
"R","1617446455.6705613","7","26","-2","-23","61","39","0.662048","-0.119141","-0.738342","-0.04834","0.007634","0.007634","-0.015267","9.319092","-0.887646","-1.191504","-0.374438","-0.040674","-0.027515","0.05144","-0.087329","-0.362476"
"R","1617446455.6613576","7","25","-2","-23","61","42","0.661926","-0.119385","-0.738464","-0.048401","0.007634","0.007634","-0.015267","9.337036","-0.90918","-1.193897","-0.356494","-0.059814","-0.026318","0.044263","-0.102881","-0.343335"
"R","1617446455.6506498","7","24","-1","-26","61","42","0.661743","-0.119507","-0.738525","-0.048401","0","0","-0.007634","9.329859","-0.892432","-1.186719","-0.361279","-0.04187","-0.015552","0.039478","-0.08374","-0.351709"
"R","1617446455.6412454","7","25","0","-24","63","38","0.661682","-0.119568","-0.738586","-0.048401","-0.007634","0","-0.007634","9.304736","-0.880469","-1.1927","-0.386401","-0.029907","-0.019141","0.047852","-0.076563","-0.376831"
"R","1617446455.6305532","7","24","0","-24","64","39","0.661743","-0.119446","-0.738586","-0.04834","-0.015267","-0.007634","0","9.289185","-0.872095","-1.217822","-0.403149","-0.021533","-0.045459","0.076563","-0.076563","-0.391187"
"R","1617446455.6211884","7","24","-1","-22","59","41","0.661804","-0.119324","-0.738525","-0.048218","-0.015267","-0.007634","0","9.279614","-0.855347","-1.235767","-0.41272","-0.004785","-0.065796","0.101685","-0.065796","-0.399561"
"R","1617446455.6111524","7","24","-1","-22","60","42","0.661926","-0.119141","-0.738464","-0.048035","-0.015267","-0.007634","0","9.285596","-0.85415","-1.236963","-0.406738","-0.003589","-0.069385","0.104077","-0.0646","-0.393579"
"R","1617446455.6009438","7","25","-1","-22","60","37","0.662048","-0.11908","-0.738403","-0.047974","-0.007634","-0.007634","-0.007634","9.285596","-0.887646","-1.239355","-0.407935","-0.035889","-0.07417","0.101685","-0.096899","-0.391187"
"R","1617446455.5905297","7","24","-1","-23","58","39","0.662109","-0.119019","-0.738342","-0.047974","0","0","-0.007634","9.298755","-0.917554","-1.226196","-0.394775","-0.066992","-0.063403","0.082544","-0.123218","-0.376831"
"R","1617446455.5803018","7","24","0","-22","59","40","0.66217","-0.119019","-0.738281","-0.048035","0","0","0","9.328662","-0.929517","-1.186719","-0.364868","-0.078955","-0.025122","0.039478","-0.122021","-0.350513"
"R","1617446455.5713809","7","24","-1","-23","60","39","0.66217","-0.119019","-0.738281","-0.048096","0","0","0","9.362158","-0.919946","-1.146045","-0.331372","-0.070581","0.014355","0","-0.101685","-0.322998"
"R","1617446455.56116","7","25","0","-22","58","36","0.662048","-0.118958","-0.738403","-0.048157","-0.007634","0","0","9.382495","-0.896021","-1.113745","-0.311035","-0.049048","0.049048","-0.028711","-0.070581","-0.308643"
"R","1617446455.5511143","7","27","-1","-20","63","40","0.662048","-0.118774","-0.738464","-0.048218","-0.015267","-0.007634","0.007634","9.382495","-0.856543","-1.100586","-0.311035","-0.013159","0.063403","-0.034692","-0.0323","-0.313428"
"R","1617446455.1414652","7","24","-1","-20","63","39","0.661255","-0.121582","-0.738708","-0.047363","-0.007634","-0.015267","-0.007634","9.305933","-0.933105","-1.110156","-0.38042","-0.043066","0.07417","-0.045459","-0.068188","-0.38042"
"R","1617446455.1315925","7","22","0","-22","62","42","0.661438","-0.121643","-0.738586","-0.047302","0","-0.022901","-0.007634","9.283203","-0.925928","-1.123315","-0.404346","-0.033496","0.057422","-0.023926","-0.065796","-0.403149"
"R","1617446455.121373","7","25","-1","-23","105","41","0.66156","-0.121704","-0.738403","-0.047302","0.007634","-0.015267","-0.007634","9.286792","-0.94148","-1.146045","-0.399561","-0.047852","0.031104","-0.003589","-0.084937","-0.393579"
"R","1617446455.111546","7","24","-1","-24","60","42","0.661682","-0.121826","-0.738342","-0.047424","0.007634","-0.007634","-0.007634","9.297559","-0.967798","-1.166382","-0.391187","-0.072974","0.008374","0.010767","-0.113647","-0.38042"
"R","1617446455.101485","7","24","-4","-24","64","40","0.661682","-0.121948","-0.738281","-0.047668","0.007634","-0.007634","0","9.301147","-0.963013","-1.169971","-0.386401","-0.070581","0.003589","0.015552","-0.112451","-0.375635"
"R","1617446455.0916076","7","27","-3","-23","60","39","0.661743","-0.121948","-0.73822","-0.047852","0","-0.015267","0","9.274829","-0.940283","-1.175952","-0.413916","-0.050244","-0.002393","0.028711","-0.096899","-0.404346"
"R","1617446455.081293","7","23","-3","-26","60","37","0.661865","-0.121826","-0.738098","-0.048035","-0.015267","-0.015267","0.007634","9.23894","-0.891235","-1.163989","-0.449805","-0.004785","0.003589","0.037085","-0.055029","-0.443823"
"R","1617446455.0714712","7","27","-1","-21","63","40","0.661987","-0.121521","-0.738037","-0.048035","-0.022901","-0.007634","0.007634","9.223389","-0.829028","-1.147241","-0.466553","0.052637","0.017944","0.038281","0","-0.467749"
"R","1617446455.0615368","7","23","-4","-22","61","41","0.66217","-0.121155","-0.737976","-0.047913","-0.022901","-0.007634","0.007634","9.235352","-0.778784","-1.119727","-0.455786","0.100488","0.040674","0.027515","0.053833","-0.46416"
"R","1617446455.0512185","7","23","-3","-23","59","40","0.662231","-0.120911","-0.737915","-0.047729","-0.015267","-0.007634","0","9.246119","-0.783569","-1.107764","-0.443823","0.094507","0.05144","0.014355","0.05144","-0.453394"
"R","1617446455.0415602","7","24","-3","-22","62","37","0.662292","-0.12085","-0.737915","-0.047607","0","0","0","9.267652","-0.832617","-1.120923","-0.423486","0.046655","0.037085","0.014355","0.004785","-0.427075"
"R","1617446455.031495","7","25","0","-20","62","41","0.662231","-0.120911","-0.737915","-0.047607","0.007634","0","-0.007634","9.304736","-0.906787","-1.144849","-0.385205","-0.025122","0.014355","0.015552","-0.0646","-0.379224"
"R","1617446455.0214355","7","27","-1","-26","61","39","0.66217","-0.121094","-0.737976","-0.047791","0.007634","0","0","9.331055","-0.954639","-1.156811","-0.360083","-0.07417","0.003589","0.011963","-0.111255","-0.349316"
"R","1617446455.0115428","7","24","-2","-26","59","38","0.662109","-0.121155","-0.737976","-0.047974","0","0","0","9.33584","-0.949854","-1.174756","-0.354102","-0.070581","-0.011963","0.027515","-0.111255","-0.342139"
"R","1617446455.001394","7","23","-3","-26","57","36","0.662109","-0.121033","-0.737976","-0.048096","-0.007634","-0.007634","0.007634","9.325073","-0.919946","-1.179541","-0.364868","-0.044263","-0.016748","0.039478","-0.088525","-0.354102"
"R","1617446454.9914346","7","25","-1","-27","62","38","0.662231","-0.120789","-0.737976","-0.048157","-0.022901","-0.007634","0.007634","9.332251","-0.873291","-1.159204","-0.360083","-0.001196","0","0.0323","-0.04187","-0.355298"
"R","1617446454.981606","7","26","-1","-22","60","39","0.662292","-0.120361","-0.737915","-0.048096","-0.030534","-0.007634","0.007634","9.350195","-0.814673","-1.125708","-0.340942","0.05144","0.031104","0.013159","0.017944","-0.344531"
"R","1617446454.9715335","7","23","-1","-23","61","39","0.662415","-0.119873","-0.737915","-0.047974","-0.030534","-0.007634","0.007634","9.359766","-0.775195","-1.092212","-0.332568","0.086133","0.061011","-0.005981","0.058618","-0.343335"
"R","1617446454.9613533","7","25","-3","-22","60","39","0.662537","-0.119507","-0.737915","-0.047852","-0.022901","0","0.007634","9.382495","-0.756055","-1.053931","-0.311035","0.102881","0.098096","-0.040674","0.086133","-0.327783"
"R","1617446454.9515023","7","26","0","-24","62","39","0.662476","-0.119324","-0.737976","-0.047729","0","0","0","9.400439","-0.787158","-1.02522","-0.293091","0.071777","0.128003","-0.078955","0.0646","-0.311035"
"R","1617446454.9414792","7","23","-1","-20","60","40","0.662476","-0.119324","-0.737976","-0.047791","0.007634","0","0","9.407618","-0.849365","-1.021631","-0.285913","0.008374","0.131592","-0.098096","0.004785","-0.297876"
"R","1617446454.9313607","7","24","-2","-24","57","41","0.662354","-0.119446","-0.738098","-0.047974","0.007634","0","0","9.414795","-0.87688","-1.020435","-0.278735","-0.019141","0.136377","-0.110059","-0.017944","-0.289502"
"R","1617446454.9214306","7","25","0","-32","60","39","0.66217","-0.119568","-0.73822","-0.048218","0.007634","0.007634","0","9.417188","-0.880469","-1.031201","-0.276343","-0.026318","0.129199","-0.104077","-0.026318","-0.285913"
"R","1617446454.911648","7","23","-2","-22","59","41","0.661987","-0.119568","-0.738342","-0.048401","0","0","0","9.410009","-0.863721","-1.05752","-0.282324","-0.011963","0.10647","-0.077759","-0.017944","-0.290698"
"R","1617446454.9015627","7","25","-1","-24","63","36","0.661865","-0.119446","-0.738464","-0.048462","-0.015267","0","0.007634","9.37771","-0.817065","-1.101782","-0.314624","0.029907","0.065796","-0.026318","0.008374","-0.320605"
"R","1617446454.8913934","7","23","-1","-23","62","40","0.661804","-0.119202","-0.738525","-0.048462","-0.022901","0","0.007634","9.346606","-0.762036","-1.146045","-0.345728","0.082544","0.022729","0.029907","0.045459","-0.351709"
"R","1617446454.8815558","7","24","-1","-31","61","38","0.661804","-0.118958","-0.738586","-0.04834","-0.022901","0","0.007634","9.33584","-0.741699","-1.179541","-0.356494","0.100488","-0.00957","0.066992","0.055029","-0.360083"
"R","1617446454.8713465","7","23","0","-22","64","42","0.661804","-0.118713","-0.738647","-0.048157","-0.015267","0.007634","0","9.341822","-0.756055","-1.190308","-0.350513","0.086133","-0.019141","0.071777","0.039478","-0.351709"
"R","1617446454.8614378","7","25","-2","-26","60","41","0.661682","-0.118713","-0.73877","-0.047974","0","0.015267","-0.007634","9.371729","-0.799121","-1.184326","-0.320605","0.045459","-0.010767","0.05144","0.004785","-0.319409"
"R","1617446454.852332","7","24","-1","-24","60","39","0.661438","-0.118896","-0.738953","-0.047913","0.007634","0.015267","-0.007634","9.398046","-0.855347","-1.172363","-0.293091","-0.007178","0.007178","0.019141","-0.037085","-0.289502"
"R","1617446454.8413632","7","25","-1","-22","60","39","0.661194","-0.119141","-0.739136","-0.047974","0.015267","0.015267","-0.015267","9.411206","-0.917554","-1.172363","-0.278735","-0.068188","0.013159","-0.001196","-0.093311","-0.270361"
"R","1617446454.832223","7","24","-1","-26","60","41","0.66095","-0.119446","-0.739319","-0.048096","0.015267","0.007634","-0.015267","9.396851","-0.949854","-1.174756","-0.293091","-0.099292","0.016748","-0.010767","-0.124414","-0.282324"
"R","1617446454.8216956","7","22","0","-23","61","82","0.660828","-0.11969","-0.73938","-0.048218","0.007634","0","-0.007634","9.364551","-0.949854","-1.179541","-0.324194","-0.098096","0.015552","-0.005981","-0.126807","-0.313428"
"R","1617446454.8123786","7","23","-1","-22","60","41","0.660706","-0.119751","-0.739441","-0.04834","0","-0.007634","0","9.325073","-0.925928","-1.195093","-0.363672","-0.075366","0.002393","0.014355","-0.112451","-0.352905"
"R","1617446454.802263","7","23","-1","-23","62","40","0.660767","-0.119629","-0.739441","-0.048401","-0.015267","-0.007634","0","9.297559","-0.891235","-1.217822","-0.392383","-0.043066","-0.020337","0.046655","-0.089722","-0.381616"
"R","1617446454.7922916","7","24","-1","-22","62","41","0.660828","-0.119446","-0.739441","-0.048401","-0.015267","-0.007634","0","9.289185","-0.843384","-1.232178","-0.400757","0.001196","-0.035889","0.07417","-0.05144","-0.391187"
"R","1617446454.781448","7","27","-1","-23","58","41","0.660889","-0.119263","-0.73938","-0.04834","-0.007634","0","0","9.298755","-0.815869","-1.240552","-0.391187","0.027515","-0.046655","0.089722","-0.027515","-0.382812"
"R","1617446454.7722766","7","25","0","-17","59","42","0.660828","-0.119202","-0.739441","-0.04834","0","0.007634","0","9.319092","-0.825439","-1.244141","-0.37085","0.016748","-0.047852","0.086133","-0.035889","-0.361279"
"R","1617446454.7622447","7","24","-3","-23","62","41","0.660767","-0.119324","-0.739502","-0.048462","0.015267","0.015267","-0.007634","9.343018","-0.857739","-1.236963","-0.346924","-0.014355","-0.039478","0.068188","-0.061011","-0.336157"
"R","1617446454.7516055","7","22","-1","-22","62","39","0.660583","-0.119507","-0.739624","-0.048645","0.015267","0.015267","-0.007634","9.350195","-0.873291","-1.220215","-0.339746","-0.031104","-0.017944","0.043066","-0.071777","-0.330176"
"R","1617446454.7422066","7","27","0","-25","61","38","0.6604","-0.119629","-0.739746","-0.048828","0.007634","0.007634","-0.007634","9.344213","-0.861328","-1.186719","-0.344531","-0.020337","0.017944","0.010767","-0.053833","-0.340942"
"R","1617446454.7323756","7","24","-1","-24","59","41","0.660217","-0.119751","-0.739868","-0.04895","-0.007634","0","0","9.31311","-0.823047","-1.159204","-0.375635","0.015552","0.050244","-0.007178","-0.015552","-0.378027"
"R","1617446454.7222786","7","24","-2","-14","60","41","0.660217","-0.119629","-0.739868","-0.04895","-0.015267","-0.007634","0","9.259277","-0.775195","-1.156811","-0.429468","0.062207","0.052637","0.005981","0.023926","-0.435449"
"R","1617446454.7121067","7","23","0","-24","62","40","0.660278","-0.119446","-0.739807","-0.048889","-0.015267","-0.015267","0","9.225781","-0.72854","-1.172363","-0.461768","0.107666","0.034692","0.038281","0.059814","-0.468945"
"R","1617446454.7022393","7","23","-1","-26","58","40","0.660461","-0.119263","-0.739746","-0.048828","-0.015267","-0.015267","0","9.228174","-0.716577","-1.193897","-0.461768","0.118433","0.00957","0.0646","0.0646","-0.467749"
"R","1617446454.69222","7","23","-2","-22","62","42","0.660583","-0.119141","-0.739685","-0.048767","-0.007634","-0.007634","0","9.23894","-0.721362","-1.21543","-0.451001","0.113647","-0.013159","0.08374","0.056226","-0.453394"
"R","1617446454.6822436","7","25","-1","-22","59","37","0.660645","-0.119202","-0.739624","-0.048706","0.007634","0","-0.007634","9.255689","-0.763232","-1.253711","-0.434253","0.07417","-0.053833","0.112451","0.00957","-0.428271"
"R","1617446454.6722026","7","23","0","-21","58","39","0.660583","-0.119324","-0.739624","-0.048828","0.015267","0.007634","-0.007634","9.328662","-0.813477","-1.263281","-0.361279","0.022729","-0.062207","0.100488","-0.0323","-0.350513"
"R","1617446454.6688323","7","25","0","-22","60","41","0.6604","-0.119568","-0.739746","-0.04895","0.015267","0.015267","-0.007634","9.384888","-0.850561","-1.271655","-0.303857","-0.011963","-0.065796","0.089722","-0.059814","-0.290698"
"R","1617446454.6676211","7","23","-3","-23","63","42","0.660217","-0.11969","-0.739868","-0.049133","0.007634","0.007634","-0.007634","9.411206","-0.851758","-1.258496","-0.277539","-0.014355","-0.047852","0.069385","-0.055029","-0.266772"
"R","1617446454.642151","7","25","0","-26","57","39","0.660095","-0.119751","-0.73999","-0.049133","-0.007634","0.007634","-0.007634","9.404028","-0.83501","-1.239355","-0.284717","0.001196","-0.025122","0.052637","-0.035889","-0.277539"
"R","1617446454.6322706","7","22","-1","-22","59","40","0.660034","-0.11969","-0.740051","-0.049072","-0.015267","0","0","9.390869","-0.81228","-1.219019","-0.297876","0.023926","-0.003589","0.038281","-0.010767","-0.295483"
"R","1617446454.622272","7","25","1","-23","60","13","0.660095","-0.119507","-0.740051","-0.04895","-0.022901","-0.007634","0","9.390869","-0.789551","-1.193897","-0.297876","0.045459","0.019141","0.021533","0.014355","-0.300269"
"R","1617446454.612327","7","23","-1","-24","59","41","0.660156","-0.119324","-0.73999","-0.048706","-0.022901","-0.015267","0","9.375318","-0.781177","-1.17356","-0.312231","0.056226","0.037085","0.008374","0.027515","-0.317017"
"R","1617446454.6024885","7","24","-3","-23","61","37","0.660339","-0.119202","-0.739868","-0.048523","-0.007634","-0.015267","-0.007634","9.364551","-0.81228","-1.179541","-0.324194","0.026318","0.027515","0.011963","-0.003589","-0.325391"
"R","1617446454.592115","7","24","-2","-24","60","38","0.660522","-0.119202","-0.739746","-0.048462","0.007634","-0.015267","-0.007634","9.357373","-0.873291","-1.186719","-0.332568","-0.0323","0.015552","0.00957","-0.0646","-0.327783"
"R","1617446454.5822768","7","24","-1","-22","60","38","0.660645","-0.119324","-0.739563","-0.048645","0.007634","-0.015267","-0.007634","9.348999","-0.927124","-1.186719","-0.340942","-0.086133","0.011963","0.001196","-0.118433","-0.330176"
"R","1617446454.5723853","7","3","-1","-23","57","39","0.660706","-0.119507","-0.739441","-0.048828","0.007634","-0.015267","-0.007634","9.323877","-0.92832","-1.187915","-0.366064","-0.087329","0.008374","0.005981","-0.123218","-0.355298"
"R","1617446454.5622425","7","25","-1","-24","61","40","0.660828","-0.119568","-0.739319","-0.049072","0","-0.015267","0","9.302343","-0.910376","-1.187915","-0.387598","-0.071777","0.004785","0.015552","-0.111255","-0.376831"
"R","1617446454.5524054","7","24","-2","-23","60","40","0.66095","-0.119507","-0.739197","-0.049194","-0.007634","-0.007634","0.007634","9.325073","-0.861328","-1.165186","-0.366064","-0.025122","0.023926","0.005981","-0.058618","-0.362476"
"R","1617446454.5422628","7","22","-5","-26","59","15","0.661011","-0.119202","-0.739197","-0.049316","-0.015267","-0.007634","0.007634","9.358569","-0.789551","-1.134082","-0.332568","0.039478","0.053833","-0.00957","0.013159","-0.33855"
"R","1617446454.5323973","7","23","0","-23","61","41","0.661133","-0.118896","-0.739197","-0.049255","-0.022901","-0.015267","0.007634","9.34541","-0.733325","-1.104175","-0.346924","0.093311","0.081348","-0.021533","0.069385","-0.360083"
"R","1617446454.522231","7","24","-2","-23","62","38","0.661194","-0.118652","-0.739136","-0.049194","-0.015267","-0.015267","0","9.325073","-0.715381","-1.089819","-0.367261","0.108862","0.093311","-0.027515","0.086133","-0.382812"
"R","1617446454.5123794","7","24","1","-22","57","41","0.661255","-0.11853","-0.739075","-0.049072","0","-0.007634","0","9.319092","-0.747681","-1.096997","-0.373242","0.076563","0.084937","-0.026318","0.05144","-0.385205"
"R","1617446454.502224","7","23","-4","-23","59","41","0.661255","-0.118713","-0.739075","-0.049072","0.015267","0","-0.007634","9.333447","-0.829028","-1.119727","-0.358887","-0.001196","0.062207","-0.025122","-0.026318","-0.361279"
"R","1617446454.4922285","7","24","-3","-26","59","39","0.661133","-0.119019","-0.739136","-0.049194","0.015267","0.007634","-0.007634","9.356176","-0.893628","-1.153223","-0.336157","-0.063403","0.031104","-0.011963","-0.090918","-0.330176"
"R","1617446454.482275","7","27","1","-22","61","39","0.661011","-0.119263","-0.739197","-0.049377","0.007634","0","-0.007634","9.370532","-0.903198","-1.186719","-0.320605","-0.072974","0.001196","0.011963","-0.105273","-0.311035"
"R","1617446454.4723468","7","25","-2","-27","62","35","0.660889","-0.119324","-0.739258","-0.0495","0","0","0","9.362158","-0.874487","-1.214233","-0.328979","-0.045459","-0.022729","0.043066","-0.084937","-0.318213"
"R","1617446454.4622667","7","25","-1","-24","44","37","0.660889","-0.119324","-0.739319","-0.049561","-0.007634","0","0","9.340625","-0.842188","-1.24773","-0.351709","-0.014355","-0.055029","0.08374","-0.0646","-0.339746"
"R","1617446454.452273","7","25","-1","-24","62","40","0.660889","-0.119141","-0.739319","-0.049561","-0.015267","-0.007634","0","9.332251","-0.795532","-1.268066","-0.360083","0.028711","-0.076563","0.11604","-0.028711","-0.34812"
"R","1617446454.4422653","7","24","-1","-23","58","41","0.66095","-0.118958","-0.739258","-0.049438","-0.015267","0","0","9.315503","-0.764429","-1.277637","-0.375635","0.059814","-0.087329","0.135181","-0.003589","-0.364868"
"R","1617446454.432488","7","24","-1","-24","54","53","0.661011","-0.118896","-0.739258","-0.049316","-0.007634","0.007634","-0.007634","9.33584","-0.773999","-1.277637","-0.356494","0.05144","-0.088525","0.131592","-0.00957","-0.345728"
"R","1617446454.4222684","7","24","-3","-23","62","37","0.66095","-0.118958","-0.739319","-0.049316","0.007634","0.007634","-0.007634","9.395655","-0.805103","-1.253711","-0.29668","0.020337","-0.063403","0.094507","-0.027515","-0.287109"
"R","1617446454.412524","7","22","-3","-24","60","37","0.660828","-0.11908","-0.739441","-0.049316","0.007634","0.007634","-0.007634","9.421972","-0.838599","-1.232178","-0.270361","-0.010767","-0.037085","0.058618","-0.047852","-0.260791"
"R","1617446454.4022176","7","24","-1","-23","60","42","0.660706","-0.119263","-0.739441","-0.049438","0.007634","0","-0.007634","9.407618","-0.856543","-1.225","-0.283521","-0.027515","-0.028711","0.047852","-0.0646","-0.27395"
"R","1617446454.392432","7","25","-3","-30","63","40","0.660767","-0.119324","-0.739441","-0.0495","-0.007634","-0.007634","-0.007634","9.392065","-0.831421","-1.208252","-0.299072","-0.002393","-0.011963","0.039478","-0.038281","-0.293091"
"R","1617446454.382265","7","23","-2","-26","59","41","0.660828","-0.119263","-0.73938","-0.0495","-0.007634","-0.015267","0","9.357373","-0.787158","-1.189111","-0.333765","0.039478","0.003589","0.038281","0.001196","-0.333765"
"R","1617446454.3722184","7","24","-1","-23","58","39","0.661011","-0.119141","-0.739197","-0.0495","-0.015267","-0.022901","0","9.310718","-0.76084","-1.191504","-0.381616","0.0646","-0.002393","0.055029","0.019141","-0.381616"
"R","1617446454.362223","7","25","-3","-25","60","38","0.661255","-0.118958","-0.739014","-0.049438","-0.015267","-0.022901","0.007634","9.298755","-0.750073","-1.195093","-0.393579","0.075366","-0.013159","0.068188","0.026318","-0.393579"
"R","1617446454.3524425","7","24","0","-22","59","38","0.661499","-0.118774","-0.738831","-0.049438","-0.015267","-0.015267","0","9.315503","-0.741699","-1.177148","-0.378027","0.081348","-0.001196","0.056226","0.035889","-0.38042"
"R","1617446454.342491","7","23","-3","-24","60","37","0.661682","-0.118591","-0.738708","-0.049377","-0.007634","-0.007634","0","9.329859","-0.747681","-1.158008","-0.364868","0.075366","0.011963","0.040674","0.034692","-0.368457"
"R","1617446454.3325472","7","24","-4","-26","60","41","0.661743","-0.118591","-0.738647","-0.049377","0","0","0","9.359766","-0.776392","-1.146045","-0.334961","0.046655","0.022729","0.020337","0.013159","-0.337354"
"R","1617446454.32239","7","24","-1","-24","60","39","0.661682","-0.118652","-0.738647","-0.049377","0","0","-0.007634","9.398046","-0.809888","-1.125708","-0.295483","0.013159","0.044263","-0.010767","-0.00957","-0.297876"
"R","1617446454.312461","7","24","1","-20","57","39","0.661621","-0.118774","-0.738708","-0.049438","0","0","-0.007634","9.407618","-0.84458","-1.117334","-0.285913","-0.019141","0.053833","-0.028711","-0.037085","-0.287109"
"R","1617446454.3026288","7","24","0","-26","59","33","0.661621","-0.118896","-0.738708","-0.049438","0","0","-0.007634","9.406421","-0.846973","-1.10896","-0.287109","-0.020337","0.063403","-0.038281","-0.035889","-0.289502"
"R","1617446454.2923756","7","26","0","-26","58","42","0.661621","-0.118896","-0.738708","-0.049438","-0.007634","0","-0.007634","9.404028","-0.842188","-1.102978","-0.289502","-0.015552","0.069385","-0.04187","-0.029907","-0.293091"
"R","1617446454.2824454","7","25","0","-24","62","38","0.661621","-0.118896","-0.738708","-0.049316","-0.015267","-0.007634","-0.007634","9.398046","-0.827832","-1.098193","-0.295483","0","0.07417","-0.043066","-0.014355","-0.300269"
"R","1617446454.2724595","7","25","-3","-26","57","38","0.661621","-0.118774","-0.73877","-0.049194","-0.015267","-0.007634","-0.007634","9.371729","-0.815869","-1.117334","-0.321802","0.011963","0.055029","-0.019141","-0.010767","-0.325391"
"R","1617446454.2625194","7","23","-2","-24","60","39","0.661682","-0.118591","-0.738708","-0.049072","-0.015267","-0.007634","-0.007634","9.348999","-0.808691","-1.134082","-0.344531","0.017944","0.037085","0.001196","-0.011963","-0.345728"
"R","1617446454.2523096","7","25","-3","-23","61","40","0.661743","-0.118469","-0.738708","-0.048889","-0.015267","-0.007634","-0.007634","9.328662","-0.807495","-1.154419","-0.364868","0.020337","0.015552","0.023926","-0.016748","-0.363672"
"R","1617446454.2424946","7","25","0","-23","60","37","0.661743","-0.118469","-0.738708","-0.048706","-0.007634","0","-0.007634","9.34541","-0.823047","-1.175952","-0.34812","0.007178","-0.004785","0.039478","-0.0323","-0.343335"
"R","1617446454.232319","7","23","-1","-24","63","39","0.661682","-0.11853","-0.73877","-0.048645","0","0.007634","-0.007634","9.388476","-0.872095","-1.179541","-0.305054","-0.038281","-0.005981","0.025122","-0.071777","-0.29668"
"R","1617446454.2224317","7","24","0","-23","62","40","0.661621","-0.118591","-0.738831","-0.048645","0","0.007634","-0.007634","9.421972","-0.907983","-1.178345","-0.271558","-0.07417","-0.003589","0.010767","-0.101685","-0.260791"
"R","1617446454.2124946","7","24","-3","-24","59","37","0.661499","-0.118652","-0.738892","-0.048706","-0.007634","0","-0.007634","9.410009","-0.898413","-1.167578","-0.282324","-0.0646","0.008374","0.003589","-0.090918","-0.27395"
"R","1617446454.2025254","7","22","-2","-26","58","40","0.661499","-0.118591","-0.738892","-0.048645","-0.015267","-0.007634","-0.007634","9.372925","-0.869702","-1.1604","-0.319409","-0.035889","0.015552","0.007178","-0.065796","-0.314624"
"R","1617446454.1924913","7","24","-1","-23","59","38","0.661621","-0.118469","-0.738831","-0.048523","-0.022901","-0.007634","-0.007634","9.329859","-0.837402","-1.153223","-0.363672","-0.003589","0.020337","0.014355","-0.038281","-0.361279"
"R","1617446454.1824253","7","31","0","-22","57","37","0.661743","-0.118347","-0.73877","-0.04834","-0.015267","-0.007634","-0.007634","9.329859","-0.815869","-1.122119","-0.363672","0.019141","0.049048","-0.007178","-0.00957","-0.366064"
"R","1617446454.1725051","7","26","-2","-24","59","40","0.661804","-0.118286","-0.73877","-0.048157","-0.007634","-0.007634","-0.007634","9.356176","-0.824243","-1.088623","-0.337354","0.011963","0.081348","-0.043066","-0.007178","-0.343335"
"R","1617446454.1625502","7","27","-3","-23","62","41","0.661804","-0.118286","-0.73877","-0.048035","0","-0.007634","-0.007634","9.343018","-0.860132","-1.086231","-0.350513","-0.020337","0.08374","-0.05144","-0.039478","-0.354102"
"R","1617446454.1523824","7","20","-1","-23","62","39","0.661804","-0.118408","-0.738708","-0.048096","0","-0.007634","-0.007634","9.304736","-0.862524","-1.102978","-0.388794","-0.022729","0.066992","-0.0323","-0.049048","-0.38999"
"R","1617446454.1425557","7","23","0","-22","60","41","0.661865","-0.118469","-0.738647","-0.048096","0","-0.007634","-0.007634","9.268847","-0.861328","-1.125708","-0.424683","-0.020337","0.04187","-0.003589","-0.056226","-0.42229"
"R","1617446454.132543","7","23","-1","-24","58","67","0.661865","-0.118591","-0.738586","-0.048157","0","0","-0.007634","9.270044","-0.866113","-1.134082","-0.42229","-0.023926","0.033496","0.001196","-0.062207","-0.418701"
"R","1617446454.1226408","7","22","-3","-26","57","37","0.661804","-0.118652","-0.738647","-0.048218","0","0","-0.007634","9.292773","-0.856543","-1.125708","-0.399561","-0.014355","0.043066","-0.005981","-0.047852","-0.398364"
"R","1617446454.1124134","7","25","1","-22","62","38","0.661743","-0.118652","-0.738708","-0.048279","-0.007634","0","0","9.286792","-0.833813","-1.147241","-0.405542","0.005981","0.023926","0.016748","-0.033496","-0.404346"
"R","1617446454.102576","7","22","-1","-24","61","37","0.661621","-0.118652","-0.738831","-0.048218","-0.007634","0.007634","0","9.292773","-0.826636","-1.167578","-0.399561","0.013159","0.007178","0.034692","-0.029907","-0.397168"
"R","1617446454.092409","7","25","-3","-23","63","37","0.66156","-0.11853","-0.738892","-0.048157","-0.007634","0.007634","0","9.308325","-0.811084","-1.185522","-0.384009","0.027515","-0.008374","0.05144","-0.017944","-0.38042"
"R","1617446454.082553","7","24","-1","-23","60","37","0.661499","-0.118469","-0.739014","-0.048096","-0.007634","0.007634","0","9.317896","-0.801514","-1.208252","-0.374438","0.037085","-0.028711","0.071777","-0.011963","-0.369653"
"R","1617446454.0724597","7","25","-1","-24","63","39","0.661377","-0.118408","-0.739075","-0.047974","-0.007634","0","-0.007634","9.326269","-0.803906","-1.229785","-0.364868","0.035889","-0.047852","0.089722","-0.016748","-0.35769"
"R","1617446454.0624592","7","23","-2","-16","59","40","0.661377","-0.118408","-0.739136","-0.047913","0","0","-0.007634","9.327466","-0.829028","-1.260889","-0.364868","0.010767","-0.077759","0.112451","-0.047852","-0.351709"
"R","1617446454.052408","7","26","0","-23","60","42","0.661316","-0.118469","-0.739136","-0.047852","0","0.007634","-0.007634","9.344213","-0.858936","-1.260889","-0.346924","-0.015552","-0.076563","0.102881","-0.070581","-0.331372"
"R","1617446454.0433357","7","27","-3","-27","62","42","0.661255","-0.118591","-0.739197","-0.047913","0","0","-0.007634","9.360962","-0.87688","-1.251318","-0.330176","-0.033496","-0.065796","0.087329","-0.08374","-0.314624"
"R","1617446454.032471","7","27","-1","-20","62","41","0.661194","-0.118591","-0.739197","-0.047974","-0.007634","0","-0.007634","9.357373","-0.866113","-1.229785","-0.332568","-0.023926","-0.043066","0.068188","-0.069385","-0.320605"
"R","1617446454.023184","7","23","-3","-23","60","41","0.661194","-0.11853","-0.739197","-0.047974","-0.007634","-0.007634","0","9.329859","-0.839795","-1.210644","-0.360083","0.001196","-0.023926","0.057422","-0.044263","-0.352905"
"R","1617446454.0124955","7","24","-1","-22","60","38","0.661255","-0.118469","-0.739197","-0.047913","-0.007634","-0.007634","0","9.316699","-0.829028","-1.196289","-0.374438","0.011963","-0.010767","0.049048","-0.0323","-0.369653"
"R","1617446454.0031362","7","27","-1","-23","60","40","0.661316","-0.118408","-0.739197","-0.047852","-0.007634","-0.007634","0","9.321485","-0.831421","-1.193897","-0.37085","0.00957","-0.00957","0.046655","-0.033496","-0.366064"
"R","1617446453.992423","7","24","0","-20","61","39","0.661316","-0.118347","-0.739136","-0.047852","-0.007634","-0.007634","0","9.332251","-0.837402","-1.191504","-0.358887","0.002393","-0.008374","0.043066","-0.039478","-0.354102"
"R","1617446453.9833448","7","25","2","-23","60","41","0.661377","-0.118286","-0.739136","-0.047852","-0.007634","-0.007634","0","9.344213","-0.833813","-1.191504","-0.34812","0.005981","-0.00957","0.044263","-0.034692","-0.343335"
"R","1617446453.9732697","7","24","3","-20","59","38","0.661438","-0.118164","-0.739136","-0.047852","-0.007634","-0.007634","0","9.35498","-0.825439","-1.191504","-0.337354","0.013159","-0.00957","0.044263","-0.026318","-0.332568"
"R","1617446453.9628303","7","25","-1","-24","47","37","0.661438","-0.118103","-0.739075","-0.047913","0","-0.007634","0","9.351392","-0.83501","-1.1927","-0.340942","0.001196","-0.011963","0.044263","-0.038281","-0.334961"
"R","1617446453.952499","7","23","-1","-23","60","40","0.661499","-0.118042","-0.739075","-0.047974","0","0","0","9.366943","-0.856543","-1.174756","-0.325391","-0.020337","0.003589","0.022729","-0.053833","-0.319409"
"R","1617446453.9433508","7","24","-1","-24","59","39","0.661499","-0.118042","-0.739075","-0.047974","-0.007634","0","0","9.383692","-0.861328","-1.146045","-0.308643","-0.025122","0.0323","-0.007178","-0.050244","-0.30625"
"R","1617446453.933158","7","25","-1","-23","58","37","0.661499","-0.117981","-0.739075","-0.048035","-0.007634","-0.007634","-0.007634","9.371729","-0.848169","-1.128101","-0.320605","-0.013159","0.050244","-0.020337","-0.035889","-0.321802"
"R","1617446453.9233282","7","25","-1","-21","62","40","0.66156","-0.11792","-0.739014","-0.047974","-0.015267","-0.007634","-0.007634","9.343018","-0.817065","-1.111353","-0.349316","0.016748","0.0646","-0.023926","-0.007178","-0.354102"
"R","1617446453.9132288","7","25","3","-22","57","42","0.661621","-0.117798","-0.738953","-0.047852","-0.015267","-0.015267","-0.007634","9.329859","-0.803906","-1.093408","-0.362476","0.029907","0.081348","-0.035889","0.007178","-0.369653"
"R","1617446453.903504","7","25","0","-24","57","37","0.661743","-0.117676","-0.738892","-0.047729","-0.007634","-0.007634","-0.007634","9.331055","-0.814673","-1.091016","-0.362476","0.020337","0.080151","-0.037085","-0.001196","-0.369653"
"R","1617446453.8931818","7","25","-3","-22","60","37","0.661804","-0.117676","-0.738892","-0.047668","-0.007634","-0.007634","-0.007634","9.332251","-0.838599","-1.107764","-0.361279","-0.002393","0.063403","-0.026318","-0.027515","-0.363672"
"R","1617446453.8824594","7","25","-1","-24","58","41","0.661804","-0.117737","-0.738831","-0.047607","0","-0.007634","-0.007634","9.33584","-0.855347","-1.144849","-0.356494","-0.016748","0.025122","0.005981","-0.049048","-0.354102"
"R","1617446453.8725507","7","23","-2","-22","62","37","0.661804","-0.117676","-0.738831","-0.047668","0","0","0","9.360962","-0.851758","-1.165186","-0.332568","-0.015552","0.004785","0.022729","-0.050244","-0.327783"
"R","1617446453.863471","7","26","-1","-22","62","42","0.661743","-0.117737","-0.738892","-0.047729","0","0","0","9.34541","-0.842188","-1.203467","-0.34812","-0.005981","-0.029907","0.061011","-0.050244","-0.339746"
"R","1617446453.853206","7","25","0","-24","62","42","0.661743","-0.117737","-0.738892","-0.047852","0","0.007634","0","9.352588","-0.840991","-1.217822","-0.340942","-0.005981","-0.044263","0.07417","-0.052637","-0.331372"
"R","1617446453.8431485","7","25","-1","-22","61","7","0.661621","-0.117737","-0.739014","-0.047913","0","0.015267","0","9.400439","-0.830225","-1.191504","-0.293091","0.002393","-0.015552","0.043066","-0.033496","-0.287109"
"R","1617446453.8332577","7","25","1","-22","58","41","0.661438","-0.117798","-0.739136","-0.047913","0","0.007634","-0.007634","9.430346","-0.826636","-1.155615","-0.261987","0.005981","0.023926","0.003589","-0.016748","-0.261987"
"R","1617446453.823445","7","27","-1","-23","124","40","0.661316","-0.117859","-0.739258","-0.047913","0","0","-0.007634","9.412402","-0.825439","-1.119727","-0.279932","0.007178","0.063403","-0.031104","-0.00957","-0.284717"
"R","1617446453.8130972","7","26","-1","-26","60","39","0.661255","-0.117859","-0.739258","-0.047913","-0.007634","-0.007634","-0.007634","9.369336","-0.830225","-1.106567","-0.321802","0.002393","0.076563","-0.04187","-0.015552","-0.326587"
"R","1617446453.8031723","7","24","-2","-24","61","39","0.661316","-0.117859","-0.739258","-0.047791","-0.015267","-0.015267","-0.007634","9.325073","-0.823047","-1.088623","-0.367261","0.011963","0.094507","-0.052637","-0.007178","-0.375635"
"R","1617446453.7934904","7","26","-1","-22","60","39","0.661438","-0.117859","-0.739136","-0.047607","-0.007634","-0.015267","-0.007634","9.279614","-0.824243","-1.09939","-0.411523","0.013159","0.080151","-0.033496","-0.014355","-0.417505"
"R","1617446453.7831538","7","25","-2","-26","62","37","0.661621","-0.117859","-0.739014","-0.047485","-0.007634","-0.015267","-0.007634","9.267652","-0.836206","-1.104175","-0.424683","0.003589","0.071777","-0.026318","-0.027515","-0.428271"
"R","1617446453.7731528","7","23","-3","-23","60","35","0.661682","-0.117859","-0.738953","-0.047485","-0.007634","-0.007634","0","9.273633","-0.848169","-1.11853","-0.418701","-0.007178","0.055029","-0.014355","-0.040674","-0.419897"
"R","1617446453.7634747","7","22","-2","-26","61","42","0.661743","-0.117737","-0.738892","-0.047485","-0.007634","0","0","9.28081","-0.837402","-1.134082","-0.411523","0.001196","0.038281","0.002393","-0.035889","-0.411523"
"R","1617446453.7532082","7","25","0","-22","60","40","0.661682","-0.117615","-0.738953","-0.047424","-0.015267","0.007634","0","9.299952","-0.814673","-1.148438","-0.392383","0.022729","0.025122","0.017944","-0.015552","-0.392383"
"R","1617446453.743196","7","22","-1","-24","60","41","0.661621","-0.117493","-0.739075","-0.047363","-0.007634","0.007634","0","9.319092","-0.796728","-1.1604","-0.373242","0.040674","0.015552","0.029907","0.001196","-0.374438"
"R","1617446453.7333558","7","23","-3","-23","60","39","0.661438","-0.117432","-0.739258","-0.047302","-0.007634","0.015267","-0.007634","9.341822","-0.80271","-1.179541","-0.350513","0.033496","0.001196","0.040674","-0.005981","-0.349316"
"R","1617446453.7232883","7","24","-3","-27","60","39","0.661255","-0.117493","-0.73938","-0.047241","0","0.015267","-0.007634","9.363355","-0.833813","-1.191504","-0.327783","0.003589","-0.004785","0.037085","-0.033496","-0.322998"
"R","1617446453.7132957","7","23","-1","-24","62","42","0.661072","-0.117615","-0.739563","-0.047302","0.007634","0.015267","-0.007634","9.382495","-0.869702","-1.204663","-0.308643","-0.031104","-0.013159","0.034692","-0.066992","-0.300269"
"R","1617446453.703391","7","25","-3","-22","61","41","0.660828","-0.117676","-0.739746","-0.047363","0","0.015267","0","9.411206","-0.885254","-1.204663","-0.278735","-0.046655","-0.007178","0.022729","-0.077759","-0.270361"
"R","1617446453.6932623","7","25","1","-26","62","37","0.660706","-0.117737","-0.739868","-0.047424","0","0.007634","0","9.412402","-0.872095","-1.199878","-0.277539","-0.034692","0","0.019141","-0.063403","-0.270361"
"R","1617446453.6832871","7","25","-1","-24","59","41","0.660583","-0.117676","-0.739929","-0.047485","-0.007634","0","0","9.38728","-0.850561","-1.189111","-0.301465","-0.015552","0.013159","0.013159","-0.045459","-0.297876"
"R","1617446453.6731818","7","25","0","-22","62","37","0.660583","-0.117493","-0.73999","-0.047424","-0.015267","-0.007634","0","9.350195","-0.806299","-1.177148","-0.339746","0.026318","0.025122","0.015552","-0.005981","-0.340942"
"R","1617446453.663457","7","24","-1","-24","60","42","0.660706","-0.11731","-0.739929","-0.047302","-0.022901","-0.007634","0","9.315503","-0.758447","-1.168774","-0.374438","0.07417","0.031104","0.023926","0.037085","-0.379224"
"R","1617446453.6533234","7","24","-1","-24","58","40","0.660828","-0.117065","-0.739868","-0.047058","-0.015267","-0.007634","-0.007634","9.30354","-0.739307","-1.158008","-0.386401","0.094507","0.039478","0.021533","0.057422","-0.394775"
"R","1617446452.984233","7","25","-1","-23","59","42","0.660095","-0.116638","-0.740723","-0.045166","-0.022901","-0.015267","-0.007634","9.358569","-0.849365","-1.132886","-0.327783","0.003589","0.086133","-0.049048","-0.014355","-0.334961"
"R","1617446452.9743187","7","26","-1","-20","60","41","0.660217","-0.116394","-0.740662","-0.044983","-0.022901","-0.007634","0","9.351392","-0.809888","-1.129297","-0.334961","0.043066","0.087329","-0.039478","0.022729","-0.344531"
"R","1617446452.9642327","7","25","1","-23","59","38","0.660278","-0.116211","-0.740662","-0.044739","-0.015267","-0.007634","-0.007634","9.356176","-0.801514","-1.132886","-0.330176","0.052637","0.082544","-0.033496","0.031104","-0.340942"
"R","1617446452.954213","7","25","-2","-26","63","41","0.660278","-0.116211","-0.740662","-0.044617","0","0","-0.007634","9.358569","-0.830225","-1.15083","-0.327783","0.025122","0.0646","-0.022729","0.001196","-0.333765"
"R","1617446452.9442716","7","24","-3","-25","62","40","0.660217","-0.116394","-0.740662","-0.044617","0.007634","0.007634","-0.007634","9.365747","-0.874487","-1.174756","-0.319409","-0.015552","0.04187","-0.010767","-0.04187","-0.319409"
"R","1617446452.9343667","7","23","-3","-22","61","40","0.660034","-0.116638","-0.740784","-0.044678","0.015267","0.007634","-0.015267","9.365747","-0.906787","-1.1927","-0.319409","-0.045459","0.028711","-0.004785","-0.072974","-0.314624"
"R","1617446452.924278","7","24","0","-26","60","40","0.659851","-0.116943","-0.740906","-0.044861","0.015267","0.015267","-0.007634","9.362158","-0.913965","-1.204663","-0.321802","-0.052637","0.021533","0","-0.082544","-0.31582"
"R","1617446452.9141605","7","24","1","-23","62","37","0.659607","-0.117065","-0.741089","-0.044983","0","0.007634","-0.007634","9.347803","-0.890039","-1.214233","-0.336157","-0.029907","0.017944","0.00957","-0.062207","-0.331372"
"R","1617446452.9041338","7","24","-3","-21","62","40","0.659424","-0.117065","-0.741211","-0.045044","-0.007634","0.007634","0","9.323877","-0.838599","-1.21543","-0.358887","0.019141","0.021533","0.020337","-0.016748","-0.358887"
"R","1617446452.8942964","7","26","1","-24","61","37","0.659363","-0.116943","-0.741333","-0.044983","-0.015267","0","0","9.279614","-0.805103","-1.233374","-0.403149","0.05144","0.005981","0.046655","0.004785","-0.403149"
"R","1617446452.8843236","7","25","0","-22","60","41","0.659302","-0.116821","-0.741394","-0.044861","-0.015267","0","0","9.260473","-0.783569","-1.260889","-0.42229","0.072974","-0.019141","0.078955","0.017944","-0.421094"
"R","1617446452.874364","7","25","-3","-26","63","42","0.659241","-0.116699","-0.741516","-0.044739","-0.007634","0.007634","-0.007634","9.254492","-0.781177","-1.274048","-0.428271","0.075366","-0.029907","0.089722","0.016748","-0.425879"
"R","1617446452.8642378","7","24","-3","-24","61","40","0.659119","-0.116699","-0.741577","-0.044678","0","0.007634","-0.007634","9.260473","-0.801514","-1.311133","-0.421094","0.056226","-0.0646","0.118433","-0.007178","-0.41272"
"R","1617446452.8542175","7","25","-3","-22","60","37","0.658997","-0.116821","-0.741699","-0.044617","0","0.007634","-0.007634","9.277222","-0.825439","-1.336255","-0.404346","0.034692","-0.086133","0.132788","-0.031104","-0.391187"
"R","1617446452.8444328","7","25","0","-21","59","37","0.658875","-0.116943","-0.74176","-0.044678","0","0.007634","-0.007634","9.289185","-0.833813","-1.347021","-0.391187","0.026318","-0.094507","0.137573","-0.039478","-0.375635"
"R","1617446452.8342755","7","25","-3","-27","60","40","0.658752","-0.117004","-0.741882","-0.044739","0","0.007634","0","9.29397","-0.830225","-1.351807","-0.386401","0.029907","-0.095703","0.139966","-0.035889","-0.372046"
"R","1617446452.8242664","7","24","-1","-22","63","41","0.658691","-0.117004","-0.741882","-0.0448","-0.007634","0","0","9.29038","-0.81228","-1.339844","-0.38999","0.046655","-0.082544","0.130396","-0.016748","-0.378027"
"R","1617446452.8142295","7","23","-1","-27","61","37","0.658691","-0.117004","-0.741882","-0.044739","-0.007634","0","0","9.279614","-0.785962","-1.314722","-0.400757","0.072974","-0.057422","0.113647","0.011963","-0.394775"
"R","1617446452.8043826","7","22","1","-20","78","84","0.658752","-0.116943","-0.741882","-0.044678","-0.007634","0","0","9.274829","-0.788355","-1.297974","-0.405542","0.071777","-0.04187","0.099292","0.013159","-0.400757"
"R","1617446452.794237","7","25","-2","-26","62","42","0.658752","-0.116882","-0.741882","-0.044617","-0.007634","0","0","9.29038","-0.801514","-1.283618","-0.38999","0.058618","-0.027515","0.080151","0.005981","-0.386401"
"R","1617446452.7843716","7","25","-2","-23","60","39","0.658752","-0.116882","-0.741882","-0.044556","-0.007634","0","-0.007634","9.321485","-0.809888","-1.265674","-0.358887","0.050244","-0.00957","0.057422","0.004785","-0.35769"
"R","1617446452.774312","7","24","-3","-25","59","40","0.658813","-0.116821","-0.741882","-0.044495","-0.007634","-0.007634","-0.007634","9.338232","-0.832617","-1.265674","-0.343335","0.028711","-0.010767","0.052637","-0.013159","-0.339746"
"R","1617446452.7643645","7","25","-1","-22","60","39","0.658875","-0.11676","-0.741821","-0.044434","-0.007634","-0.007634","-0.007634","9.347803","-0.850561","-1.270459","-0.332568","0.010767","-0.016748","0.052637","-0.031104","-0.326587"
"R","1617446452.754445","7","24","-2","-22","60","39","0.658997","-0.11676","-0.741699","-0.044312","-0.007634","-0.015267","-0.007634","9.34541","-0.857739","-1.27644","-0.334961","0.005981","-0.026318","0.061011","-0.038281","-0.327783"
"R","1617446452.744446","7","25","-4","-26","59","39","0.65918","-0.11676","-0.741577","-0.04425","-0.007634","-0.015267","-0.007634","9.33584","-0.874487","-1.295581","-0.345728","-0.008374","-0.049048","0.081348","-0.057422","-0.333765"
"R","1617446452.7342615","7","23","-1","-23","61","40","0.659363","-0.116699","-0.741394","-0.044189","-0.007634","-0.007634","-0.007634","9.366943","-0.880469","-1.287207","-0.314624","-0.014355","-0.046655","0.07417","-0.059814","-0.302661"
"R","1617446452.7244532","7","25","0","-23","57","31","0.659485","-0.116638","-0.741333","-0.044128","-0.015267","0","-0.007634","9.413599","-0.861328","-1.250122","-0.269165","0.004785","-0.011963","0.039478","-0.028711","-0.26438"
"R","1617446452.7144449","7","26","-1","-21","60","41","0.659485","-0.116516","-0.741333","-0.043945","-0.015267","0","-0.007634","9.445898","-0.846973","-1.208252","-0.235669","0.020337","0.028711","0","0","-0.238062"
"R","1617446452.7043674","7","23","-1","-23","59","41","0.659485","-0.116455","-0.741333","-0.043823","-0.015267","0","-0.007634","9.469824","-0.866113","-1.166382","-0.211743","0.002393","0.070581","-0.045459","-0.005981","-0.217725"
"R","1617446452.6944392","7","24","-2","-24","62","40","0.659485","-0.116394","-0.741394","-0.043701","-0.007634","0","-0.007634","9.484179","-0.879272","-1.124512","-0.198584","-0.00957","0.113647","-0.090918","-0.007178","-0.209351"
"R","1617446452.684337","7","25","1","-22","59","40","0.659424","-0.116333","-0.741455","-0.043579","-0.007634","-0.007634","-0.007634","9.463842","-0.892432","-1.101782","-0.217725","-0.021533","0.137573","-0.114844","-0.015552","-0.229687"
"R","1617446452.674518","7","25","-1","-26","61","41","0.659424","-0.116333","-0.741455","-0.043457","-0.007634","-0.007634","-0.015267","9.424365","-0.913965","-1.111353","-0.257202","-0.04187","0.128003","-0.10647","-0.04187","-0.265576"
"R","1617446452.6645744","7","23","-1","-24","63","37","0.659424","-0.116394","-0.741455","-0.043274","-0.007634","-0.007634","-0.015267","9.399243","-0.91875","-1.129297","-0.282324","-0.043066","0.111255","-0.087329","-0.049048","-0.288306"
"R","1617446452.6543863","7","25","3","-19","57","39","0.659424","-0.116516","-0.741455","-0.043213","0","-0.007634","-0.007634","9.375318","-0.935498","-1.15083","-0.30625","-0.057422","0.089722","-0.068188","-0.070581","-0.308643"
"R","1617446452.6444628","7","24","-3","-26","61","39","0.659363","-0.116577","-0.741455","-0.043152","-0.007634","0","-0.007634","9.369336","-0.95105","-1.178345","-0.311035","-0.070581","0.063403","-0.044263","-0.089722","-0.308643"
"R","1617446452.6343982","7","24","-3","-26","62","39","0.659363","-0.116516","-0.741516","-0.043152","-0.007634","0","-0.007634","9.366943","-0.936694","-1.199878","-0.313428","-0.057422","0.04187","-0.020337","-0.082544","-0.308643"
"R","1617446452.6245067","7","23","-4","-24","59","40","0.659241","-0.116455","-0.741577","-0.043091","-0.007634","0.007634","-0.007634","9.348999","-0.897217","-1.211841","-0.330176","-0.017944","0.0323","0","-0.047852","-0.327783"
"R","1617446452.6145172","7","23","-1","-24","61","39","0.65918","-0.116394","-0.741699","-0.04303","-0.007634","0.007634","-0.007634","9.343018","-0.879272","-1.219019","-0.337354","0","0.027515","0.008374","-0.0323","-0.336157"
"R","1617446452.6045115","7","23","0","-28","58","39","0.658997","-0.116394","-0.741821","-0.042908","-0.007634","0.015267","-0.007634","9.350195","-0.863721","-1.210644","-0.328979","0.015552","0.040674","-0.001196","-0.013159","-0.331372"
"R","1617446452.5943816","7","27","-2","-28","63","40","0.658813","-0.116455","-0.742065","-0.042725","-0.007634","0.015267","-0.007634","9.338232","-0.862524","-1.199878","-0.340942","0.019141","0.057422","-0.014355","-0.008374","-0.345728"
"R","1617446452.5844011","7","24","-3","-23","58","40","0.658508","-0.116577","-0.742249","-0.042603","0","0.015267","-0.015267","9.325073","-0.866113","-1.195093","-0.351709","0.017944","0.069385","-0.025122","-0.008374","-0.35769"
"R","1617446452.5745332","7","25","-1","-22","58","41","0.658325","-0.116699","-0.742432","-0.04248","0","0.007634","-0.015267","9.285596","-0.873291","-1.208252","-0.391187","0.013159","0.061011","-0.014355","-0.019141","-0.394775"
"R","1617446452.5645325","7","23","0","-23","61","39","0.658142","-0.116882","-0.742554","-0.042358","0","0","-0.015267","9.246119","-0.887646","-1.238159","-0.429468","0.003589","0.035889","0.010767","-0.038281","-0.428271"
"R","1617446452.554521","7","23","0","-22","59","39","0.658081","-0.117004","-0.742615","-0.042297","-0.007634","0","-0.015267","9.20664","-0.887646","-1.259692","-0.467749","0.004785","0.016748","0.034692","-0.046655","-0.46416"
"R","1617446452.5445273","7","25","1","-26","57","38","0.65802","-0.117065","-0.742615","-0.042175","-0.007634","-0.007634","-0.007634","9.16477","-0.86731","-1.287207","-0.509619","0.027515","-0.008374","0.068188","-0.034692","-0.503638"
"R","1617446452.5343547","7","24","-1","-23","59","38","0.658081","-0.117126","-0.742554","-0.042114","0","-0.007634","-0.007634","9.12649","-0.864917","-1.31831","-0.5479","0.0323","-0.040674","0.104077","-0.04187","-0.53833"
"R","1617446452.5244648","7","22","-4","-24","59","38","0.658142","-0.117249","-0.742493","-0.042114","0.007634","0","-0.007634","9.127686","-0.882861","-1.349414","-0.546704","0.015552","-0.07417","0.132788","-0.065796","-0.531152"
"R","1617446452.5144818","7","24","-4","-27","61","40","0.658142","-0.117432","-0.742493","-0.042175","0.007634","0.007634","-0.007634","9.173144","-0.88645","-1.354199","-0.501245","0.014355","-0.077759","0.131592","-0.062207","-0.485693"
"R","1617446452.5042384","7","24","0","-26","62","41","0.65802","-0.117554","-0.742554","-0.042236","0.007634","0.007634","-0.007634","9.225781","-0.885254","-1.335059","-0.447412","0.015552","-0.056226","0.105273","-0.050244","-0.435449"
"R","1617446452.4942057","7","24","0","-24","62","39","0.657898","-0.117676","-0.742676","-0.042236","0","0.007634","-0.007634","9.256885","-0.887646","-1.319507","-0.416309","0.014355","-0.037085","0.082544","-0.043066","-0.406738"
"R","1617446452.4853172","7","25","0","-24","60","41","0.657776","-0.117798","-0.742737","-0.042297","0","0","-0.007634","9.270044","-0.893628","-1.29917","-0.403149","0.008374","-0.014355","0.058618","-0.043066","-0.395972"
"R","1617446452.474791","7","24","-1","-23","60","39","0.657715","-0.117859","-0.742798","-0.042236","-0.007634","0","-0.007634","9.283203","-0.899609","-1.278833","-0.388794","0.004785","0.007178","0.034692","-0.039478","-0.384009"
"R","1617446452.4644904","7","25","-1","-24","59","40","0.657776","-0.117859","-0.742737","-0.042175","-0.007634","-0.015267","-0.007634","9.277222","-0.906787","-1.271655","-0.394775","-0.001196","0.011963","0.029907","-0.045459","-0.38999"
"R","1617446452.455058","7","27","1","-24","62","39","0.657959","-0.117798","-0.742615","-0.042053","-0.015267","-0.022901","-0.007634","9.255689","-0.899609","-1.277637","-0.417505","0.007178","0.002393","0.043066","-0.04187","-0.41272"
"R","1617446452.44519","7","25","0","-24","59","41","0.658142","-0.117737","-0.742432","-0.041931","-0.015267","-0.022901","-0.007634","9.242529","-0.90918","-1.306348","-0.430664","0","-0.029907","0.07417","-0.057422","-0.421094"
"R","1617446452.4352446","7","23","0","-22","58","39","0.658386","-0.117737","-0.742249","-0.04187","-0.007634","-0.015267","-0.007634","9.260473","-0.940283","-1.326685","-0.413916","-0.029907","-0.056226","0.090918","-0.089722","-0.398364"
"R","1617446452.4246757","7","24","-4","-24","58","41","0.658569","-0.117676","-0.742065","-0.04187","-0.007634","-0.007634","-0.007634","9.316699","-0.957031","-1.333862","-0.35769","-0.046655","-0.068188","0.092114","-0.101685","-0.339746"
"R","1617446452.4152615","7","23","0","-23","59","41","0.658691","-0.117737","-0.742004","-0.04187","0","-0.007634","-0.007634","9.352588","-0.978564","-1.329077","-0.322998","-0.066992","-0.065796","0.081348","-0.117236","-0.303857"
"R","1617446452.4051635","7","24","0","-23","63","40","0.658752","-0.117737","-0.741882","-0.04187","0","-0.007634","-0.007634","9.388476","-1.008472","-1.324292","-0.285913","-0.096899","-0.063403","0.068188","-0.141162","-0.26438"
"R","1617446452.3949382","7","25","-1","-26","57","36","0.658813","-0.117737","-0.741821","-0.041931","-0.007634","-0.007634","-0.007634","9.41958","-1.022827","-1.300366","-0.256006","-0.111255","-0.04187","0.040674","-0.147144","-0.236865"
"R","1617446452.3851082","7","23","-1","-22","61","38","0.658936","-0.117676","-0.74176","-0.041992","-0.015267","-0.007634","0","9.432739","-1.018042","-1.275244","-0.244043","-0.107666","-0.019141","0.017944","-0.136377","-0.228491"
"R","1617446452.3751073","7","22","-3","-24","60","42","0.659058","-0.117493","-0.741699","-0.041931","-0.015267","-0.007634","0","9.433935","-0.995313","-1.241748","-0.242847","-0.086133","0.00957","-0.003589","-0.110059","-0.23208"
"R","1617446452.365161","7","25","1","-21","63","40","0.65918","-0.117249","-0.741638","-0.04187","-0.015267","-0.015267","0","9.432739","-0.973779","-1.216626","-0.245239","-0.066992","0.0323","-0.020337","-0.086133","-0.239258"
"R","1617446452.355343","7","23","1","-23","61","38","0.659302","-0.117065","-0.741516","-0.041809","-0.015267","-0.015267","0","9.415991","-0.939087","-1.199878","-0.261987","-0.033496","0.045459","-0.023926","-0.052637","-0.260791"
"R","1617446452.3443694","7","23","-1","-24","60","40","0.659485","-0.116882","-0.741455","-0.041748","-0.007634","-0.015267","0","9.383692","-0.936694","-1.209448","-0.295483","-0.0323","0.0323","-0.007178","-0.058618","-0.291895"
"R","1617446452.3345213","7","23","-3","-23","63","37","0.659546","-0.116821","-0.741333","-0.04187","0","-0.007634","0","9.369336","-0.948657","-1.213037","-0.308643","-0.046655","0.026318","-0.003589","-0.075366","-0.303857"
"R","1617446452.3252697","7","24","0","-22","61","39","0.659546","-0.11676","-0.741333","-0.042053","0.007634","0","0.007634","9.364551","-0.942676","-1.21543","-0.314624","-0.044263","0.022729","0","-0.07417","-0.308643"
"R","1617446452.315182","7","22","-2","-23","60","40","0.659485","-0.116699","-0.741394","-0.042297","0","0.007634","0.007634","9.360962","-0.917554","-1.211841","-0.318213","-0.022729","0.027515","0","-0.052637","-0.314624"
"R","1617446452.304395","7","24","0","-26","59","37","0.659424","-0.116577","-0.741455","-0.042542","-0.007634","0.007634","0.007634","9.369336","-0.863721","-1.185522","-0.309839","0.023926","0.055029","-0.015552","0","-0.314624"
"R","1617446452.2952516","7","24","0","-22","62","39","0.659241","-0.116394","-0.741638","-0.042664","-0.007634","0.007634","0.007634","9.371729","-0.809888","-1.152026","-0.307446","0.072974","0.093311","-0.040674","0.055029","-0.321802"
"R","1617446452.2851818","7","23","1","-26","60","39","0.659119","-0.116089","-0.741821","-0.042664","-0.015267","0.007634","0.007634","9.350195","-0.764429","-1.120923","-0.330176","0.114844","0.128003","-0.062207","0.100488","-0.351709"
"R","1617446452.2751818","7","25","-3","-24","62","39","0.659058","-0.115845","-0.741943","-0.042603","-0.022901","0","0.007634","9.29397","-0.720166","-1.101782","-0.386401","0.156714","0.149536","-0.068188","0.13877","-0.413916"
"R","1617446452.265138","7","23","0","-22","66","42","0.658997","-0.115662","-0.742004","-0.04248","-0.015267","-0.007634","0","9.222193","-0.68667","-1.111353","-0.456982","0.189014","0.141162","-0.045459","0.160303","-0.485693"
"R","1617446452.2545135","7","24","-1","-23","62","41","0.659058","-0.115601","-0.742004","-0.042358","0","-0.007634","-0.007634","9.169556","-0.714185","-1.146045","-0.510815","0.162695","0.105273","-0.010767","0.120825","-0.532349"
"R","1617446452.2451236","7","25","1","-26","62","39","0.658997","-0.115784","-0.742004","-0.042297","0.007634","0","-0.007634","9.157593","-0.76084","-1.181934","-0.521582","0.118433","0.070581","0.013159","0.069385","-0.534741"
"R","1617446452.2351258","7","25","0","-22","60","41","0.658875","-0.116028","-0.742065","-0.042297","0.015267","0.007634","-0.015267","9.167163","-0.805103","-1.217822","-0.512012","0.077759","0.038281","0.033496","0.023926","-0.516797"
"R","1617446452.2253013","7","16","-1","-23","62","39","0.658691","-0.116333","-0.742126","-0.042358","0.007634","0.007634","-0.015267","9.1875","-0.836206","-1.256104","-0.489282","0.049048","0.003589","0.058618","-0.008374","-0.48689"
"R","1617446452.2151303","7","26","-1","-22","62","41","0.658569","-0.116516","-0.742249","-0.042358","0","0.015267","-0.007634","9.224585","-0.851758","-1.26687","-0.452197","0.035889","-0.002393","0.057422","-0.017944","-0.448608"
"R","1617446452.2054558","7","24","-1","-28","60","41","0.658386","-0.116577","-0.742432","-0.042297","-0.015267","0.007634","-0.007634","9.264063","-0.85415","-1.26687","-0.41272","0.034692","0.002393","0.049048","-0.013159","-0.410327"
"R","1617446452.1953886","7","26","-2","-24","61","39","0.658264","-0.116516","-0.742554","-0.042053","-0.022901","0.007634","-0.007634","9.286792","-0.845776","-1.26687","-0.388794","0.045459","0.004785","0.046655","0","-0.387598"
"R","1617446452.1852255","7","23","-1","-21","61","40","0.658203","-0.116333","-0.742615","-0.041748","-0.022901","0","-0.007634","9.291577","-0.851758","-1.282422","-0.382812","0.040674","-0.007178","0.056226","-0.007178","-0.38042"
"R","1617446452.175385","7","24","1","-23","63","36","0.658264","-0.116211","-0.742615","-0.041382","-0.015267","-0.007634","-0.015267","9.287989","-0.893628","-1.313525","-0.386401","0.002393","-0.039478","0.078955","-0.05144","-0.375635"
"R","1617446452.1652536","7","25","-2","-22","99","39","0.658325","-0.116272","-0.742554","-0.041138","0","-0.007634","-0.015267","9.296362","-0.967798","-1.356592","-0.378027","-0.065796","-0.08374","0.105273","-0.12561","-0.355298"
"R","1617446452.1553328","7","23","-1","-23","59","41","0.658386","-0.116516","-0.742493","-0.041077","0.015267","-0.007634","-0.015267","9.32268","-1.050342","-1.397266","-0.351709","-0.143555","-0.12561","0.12561","-0.206958","-0.317017"
"R","1617446452.1452234","7","22","0","-23","62","40","0.658447","-0.11676","-0.742371","-0.04126","0.015267","0","-0.007634","9.374121","-1.10896","-1.418799","-0.300269","-0.202173","-0.149536","0.130396","-0.263184","-0.257202"
"R","1617446452.1353345","7","25","-3","-26","60","41","0.658447","-0.116882","-0.742371","-0.041504","0.007634","0","0","9.430346","-1.091016","-1.402051","-0.245239","-0.185425","-0.132788","0.111255","-0.236865","-0.206958"
"R","1617446452.125537","7","23","-1","-33","60","37","0.658508","-0.11676","-0.74231","-0.041748","-0.007634","-0.007634","0.007634","9.439917","-1.021631","-1.362573","-0.235669","-0.122021","-0.094507","0.087329","-0.166284","-0.208154"
"R","1617446452.1150618","7","23","-1","-23","62","41","0.658691","-0.116455","-0.742188","-0.04187","-0.022901","-0.015267","0.007634","9.426758","-0.923535","-1.296777","-0.250024","-0.028711","-0.034692","0.052637","-0.0646","-0.239258"
"R","1617446452.1055143","7","24","-1","-22","59","40","0.658997","-0.115967","-0.741943","-0.04187","-0.030534","-0.022901","0.007634","9.407618","-0.830225","-1.219019","-0.270361","0.058618","0.033496","0.008374","0.0323","-0.276343"
"R","1617446452.095538","7","23","0","-26","58","40","0.659363","-0.115479","-0.74176","-0.041748","-0.030534","-0.030534","0.007634","9.376513","-0.748877","-1.142456","-0.303857","0.136377","0.101685","-0.035889","0.118433","-0.325391"
"R","1617446452.0852563","7","27","-1","-24","60","40","0.659729","-0.115112","-0.741455","-0.041626","-0.015267","-0.038168","0.007634","9.329859","-0.722559","-1.093408","-0.350513","0.160303","0.141162","-0.063403","0.144751","-0.378027"
"R","1617446452.0751114","7","23","-3","-24","60","40","0.660095","-0.114929","-0.74115","-0.041565","0","-0.030534","0","9.314306","-0.745288","-1.062305","-0.367261","0.137573","0.162695","-0.088525","0.12561","-0.394775"
"R","1617446452.065294","7","25","-1","-24","59","33","0.660339","-0.115051","-0.740967","-0.041687","0.015267","-0.022901","0","9.321485","-0.795532","-1.058716","-0.362476","0.087329","0.160303","-0.098096","0.076563","-0.385205"
"R","1617446452.055117","7","23","-1","-26","59","41","0.6604","-0.115356","-0.740784","-0.041992","0.022901","-0.015267","-0.007634","9.328662","-0.845776","-1.075464","-0.354102","0.037085","0.141162","-0.092114","0.025122","-0.369653"
"R","1617446452.0452845","7","25","-3","-23","60","42","0.660461","-0.115662","-0.740723","-0.042297","0.022901","-0.007634","-0.007634","9.314306","-0.872095","-1.111353","-0.369653","0.010767","0.104077","-0.061011","-0.00957","-0.378027"
"R","1617446452.035393","7","23","-1","-24","60","36","0.660461","-0.115906","-0.740662","-0.042664","0.007634","0","0","9.34541","-0.869702","-1.129297","-0.33855","0.010767","0.084937","-0.045459","-0.00957","-0.345728"
"R","1617446452.0255442","7","27","-1","-23","59","40","0.660339","-0.115845","-0.740723","-0.042847","-0.015267","0.007634","0.007634","9.425562","-0.832617","-1.113745","-0.258398","0.044263","0.102881","-0.063403","0.034692","-0.271558"
"R","1617446452.0154948","7","23","-1","-23","62","38","0.660217","-0.11554","-0.740906","-0.042847","-0.030534","0","0.007634","9.425562","-0.77041","-1.111353","-0.258398","0.101685","0.108862","-0.055029","0.092114","-0.277539"
"R","1617446452.005374","7","24","-1","-26","59","40","0.660217","-0.115112","-0.740967","-0.042542","-0.038168","0","0.007634","9.405225","-0.722559","-1.106567","-0.278735","0.14834","0.113647","-0.047852","0.136377","-0.302661"
"R","1617446451.995164","7","22","-3","-23","60","41","0.660156","-0.114807","-0.741089","-0.042175","-0.022901","0","-0.007634","9.408813","-0.753662","-1.131689","-0.27395","0.118433","0.090918","-0.0323","0.102881","-0.291895"
"R","1617446451.9853396","7","24","-3","-24","59","37","0.660095","-0.114807","-0.741211","-0.04187","0","0.007634","-0.015267","9.400439","-0.838599","-1.181934","-0.282324","0.038281","0.043066","-0.003589","0.013159","-0.287109"
"R","1617446451.9753232","7","22","-1","-27","36","39","0.659912","-0.115112","-0.741333","-0.041748","0.015267","0.007634","-0.022901","9.415991","-0.942676","-1.241748","-0.266772","-0.059814","-0.010767","0.023926","-0.090918","-0.256006"
"R","1617446451.9653876","7","25","-1","-28","61","38","0.659668","-0.11554","-0.741455","-0.041809","0.022901","0.015267","-0.022901","9.423169","-1.019238","-1.288403","-0.257202","-0.132788","-0.05144","0.045459","-0.168677","-0.234473"
"R","1617446451.9551806","7","24","-1","-20","62","39","0.659424","-0.116028","-0.741577","-0.041931","0.022901","0.015267","-0.022901","9.408813","-1.053931","-1.319507","-0.270361","-0.162695","-0.076563","0.0646","-0.205762","-0.24165"
"R","1617446451.945364","7","24","-1","-22","57","42","0.65918","-0.116394","-0.74176","-0.042114","0.007634","0.007634","-0.015267","9.380102","-1.049145","-1.343433","-0.299072","-0.156714","-0.093311","0.084937","-0.206958","-0.269165"
"R","1617446451.9352822","7","22","0","-21","60","38","0.659058","-0.116516","-0.741821","-0.042236","0","0.007634","-0.007634","9.337036","-0.996509","-1.33147","-0.340942","-0.105273","-0.078955","0.087329","-0.15791","-0.317017"
"R","1617446451.9253614","7","24","-2","-26","62","42","0.659058","-0.116394","-0.741882","-0.042236","-0.022901","0","0","9.28081","-0.917554","-1.305151","-0.398364","-0.027515","-0.052637","0.086133","-0.08374","-0.384009"
"R","1617446451.9153504","7","24","-4","-26","60","39","0.659058","-0.11615","-0.741882","-0.042053","-0.030534","0","0","9.241333","-0.832617","-1.269263","-0.436646","0.056226","-0.016748","0.07417","0","-0.433057"
"R","1617446451.9052224","7","24","2","-20","60","39","0.659058","-0.115784","-0.741943","-0.041809","-0.030534","0","0","9.216211","-0.765625","-1.233374","-0.461768","0.122021","0.017944","0.057422","0.068188","-0.468945"
"R","1617446451.895493","7","25","-3","-24","60","37","0.659058","-0.115601","-0.742004","-0.041504","-0.007634","0","0","9.191089","-0.773999","-1.227393","-0.48689","0.114844","0.025122","0.05144","0.059814","-0.494067"
"R","1617446451.8854568","7","24","1","-20","62","39","0.658997","-0.115662","-0.742065","-0.041382","0.007634","0","-0.007634","9.171948","-0.836206","-1.258496","-0.50603","0.055029","-0.003589","0.068188","-0.005981","-0.503638"
"R","1617446451.8753262","7","25","1","-23","61","41","0.658936","-0.115784","-0.742126","-0.041565","0.015267","0.007634","0","9.195874","-0.893628","-1.296777","-0.482104","-0.002393","-0.039478","0.087329","-0.066992","-0.470142"
"R","1617446451.865723","7","24","0","-22","60","41","0.658752","-0.115906","-0.742188","-0.041748","0.007634","0.007634","0","9.247314","-0.894824","-1.309937","-0.429468","-0.004785","-0.049048","0.090918","-0.0646","-0.416309"
"R","1617446451.8555713","7","23","-5","-30","63","39","0.658569","-0.115967","-0.742371","-0.04187","0","0.015267","0","9.295166","-0.869702","-1.325488","-0.381616","0.017944","-0.059814","0.101685","-0.039478","-0.369653"
"R","1617446451.845354","7","23","-1","-24","59","38","0.658447","-0.115906","-0.742493","-0.041992","-0.007634","0.007634","0","9.329859","-0.842188","-1.326685","-0.346924","0.04187","-0.057422","0.101685","-0.011963","-0.33855"
"R","1617446451.8351502","7","22","0","-24","61","37","0.658264","-0.115845","-0.742615","-0.041992","-0.007634","0.007634","0","9.351392","-0.842188","-1.347021","-0.324194","0.040674","-0.07417","0.114844","-0.014355","-0.313428"
"R","1617446451.82533","7","24","-1","-25","58","41","0.658142","-0.115784","-0.742737","-0.041931","-0.007634","0.007634","0","9.366943","-0.843384","-1.368555","-0.308643","0.039478","-0.092114","0.130396","-0.016748","-0.295483"
"R","1617446451.815426","7","25","1","-24","64","41","0.65802","-0.115723","-0.742859","-0.041931","-0.007634","0.007634","0","9.378906","-0.849365","-1.381714","-0.29668","0.0323","-0.102881","0.137573","-0.025122","-0.282324"
"R","1617446451.805297","7","23","0","-24","59","38","0.657959","-0.115723","-0.74292","-0.04187","-0.007634","0","-0.007634","9.375318","-0.861328","-1.391284","-0.300269","0.020337","-0.110059","0.142358","-0.038281","-0.283521"
"R","1617446451.7955978","7","25","-1","-33","60","40","0.657959","-0.115784","-0.74292","-0.041748","0","0","-0.015267","9.359766","-0.864917","-1.391284","-0.314624","0.019141","-0.110059","0.143555","-0.04187","-0.297876"
"R","1617446451.7853584","7","25","-1","-23","63","42","0.65802","-0.115906","-0.74292","-0.041687","0","0","-0.015267","9.365747","-0.86731","-1.366162","-0.309839","0.020337","-0.084937","0.119629","-0.034692","-0.295483"
"R","1617446451.7754464","7","24","-1","-21","58","40","0.657959","-0.116089","-0.742859","-0.041626","0.007634","0","-0.007634","9.402832","-0.894824","-1.333862","-0.271558","-0.003589","-0.052637","0.078955","-0.046655","-0.260791"
"R","1617446451.7653396","7","27","-1","-23","60","41","0.657959","-0.116211","-0.742859","-0.041626","0","-0.007634","-0.007634","9.429151","-0.933105","-1.297974","-0.245239","-0.039478","-0.016748","0.033496","-0.070581","-0.235669"
"R","1617446451.7554402","7","22","-3","-22","63","41","0.658081","-0.11615","-0.742737","-0.041687","-0.015267","-0.015267","0","9.407618","-0.927124","-1.263281","-0.266772","-0.034692","0.013159","0.007178","-0.061011","-0.260791"
"R","1617446451.745509","7","32","0","-23","60","40","0.658325","-0.115967","-0.742615","-0.041626","-0.030534","-0.022901","0","9.383692","-0.884058","-1.21543","-0.291895","0.005981","0.056226","-0.021533","-0.015552","-0.295483"
"R","1617446451.7355146","7","25","-2","-24","60","39","0.658691","-0.115601","-0.742371","-0.041443","-0.038168","-0.030534","-0.007634","9.346606","-0.827832","-1.156811","-0.331372","0.061011","0.105273","-0.052637","0.04187","-0.345728"
"R","1617446451.7253177","7","22","0","-26","62","41","0.659119","-0.115295","-0.742065","-0.041077","-0.030534","-0.030534","-0.007634","9.301147","-0.791943","-1.119727","-0.378027","0.099292","0.132788","-0.065796","0.080151","-0.398364"
"R","1617446451.7154496","7","25","-2","-22","57","42","0.659485","-0.115173","-0.74176","-0.04071","-0.015267","-0.022901","-0.015267","9.309522","-0.825439","-1.095801","-0.369653","0.070581","0.147144","-0.087329","0.056226","-0.38999"
"R","1617446451.7055907","7","24","-1","-23","62","40","0.659729","-0.115234","-0.741516","-0.040466","0","-0.015267","-0.015267","9.369336","-0.917554","-1.074268","-0.309839","-0.015552","0.162695","-0.129199","-0.016748","-0.324194"
"R","1617446451.695356","7","23","-5","-26","61","40","0.65979","-0.115479","-0.741455","-0.040466","0.007634","-0.015267","-0.015267","9.396851","-0.990527","-1.081445","-0.282324","-0.084937","0.154321","-0.13877","-0.082544","-0.289502"
"R","1617446451.6854317","7","23","-1","-22","61","39","0.659851","-0.115662","-0.741333","-0.040527","0.007634","-0.007634","-0.015267","9.384888","-1.00249","-1.087427","-0.294287","-0.094507","0.145947","-0.131592","-0.094507","-0.300269"
"R","1617446451.6753552","7","22","-3","-23","59","40","0.659851","-0.115845","-0.741333","-0.040527","0","0","-0.015267","9.370532","-0.996509","-1.104175","-0.308643","-0.086133","0.129199","-0.112451","-0.092114","-0.312231"
"R","1617446451.6655712","7","24","0","-23","60","13","0.65979","-0.116028","-0.741394","-0.040527","0","0.007634","-0.015267","9.384888","-0.980957","-1.104175","-0.294287","-0.069385","0.131592","-0.112451","-0.072974","-0.300269"
"R","1617446451.6555314","7","23","-3","-25","59","39","0.659607","-0.116089","-0.741516","-0.040466","-0.007634","0.015267","-0.007634","9.427954","-0.957031","-1.094604","-0.250024","-0.044263","0.145947","-0.12561","-0.040674","-0.260791"
"R","1617446451.645286","7","24","-1","-24","62","41","0.659363","-0.116028","-0.74176","-0.040405","-0.015267","0.007634","0","9.426758","-0.92832","-1.09939","-0.251221","-0.015552","0.147144","-0.119629","-0.013159","-0.26438"
"R","1617446451.635521","7","23","0","-26","60","39","0.65918","-0.115906","-0.741943","-0.040283","-0.022901","0","0","9.364551","-0.87688","-1.132886","-0.312231","0.034692","0.118433","-0.07417","0.021533","-0.326587"
"R","1617446451.6253748","7","25","-3","-23","60","39","0.659058","-0.115723","-0.742065","-0.040161","-0.015267","0","0","9.279614","-0.843384","-1.195093","-0.395972","0.066992","0.059814","-0.001196","0.029907","-0.404346"
"R","1617446451.6158426","7","24","1","-21","62","39","0.659058","-0.115601","-0.742126","-0.040039","0","0","0","9.231763","-0.851758","-1.259692","-0.44502","0.058618","-0.003589","0.062207","0.002393","-0.443823"
"R","1617446451.6060903","7","25","0","-22","58","42","0.658936","-0.115723","-0.742188","-0.040039","0.007634","0.007634","-0.007634","9.209033","-0.896021","-1.333862","-0.466553","0.015552","-0.07417","0.123218","-0.055029","-0.452197"
"R","1617446451.5954611","7","25","-1","-24","63","41","0.658691","-0.115906","-0.74231","-0.040161","0.015267","0.022901","-0.007634","9.215014","-0.925928","-1.386499","-0.459375","-0.013159","-0.122021","0.162695","-0.093311","-0.435449"
"R","1617446451.5861752","7","23","0","-23","60","37","0.658386","-0.116211","-0.742554","-0.040283","0.015267","0.030534","-0.007634","9.249707","-0.92832","-1.408032","-0.423486","-0.014355","-0.135181","0.172266","-0.093311","-0.398364"
"R","1617446451.5754116","7","22","-5","-24","57","40","0.65802","-0.116394","-0.742859","-0.040405","0.007634","0.030534","-0.007634","9.286792","-0.915161","-1.402051","-0.385205","-0.001196","-0.119629","0.156714","-0.071777","-0.363672"
"R","1617446451.5661256","7","23","-3","-22","60","40","0.657654","-0.116577","-0.743164","-0.040466","0","0.022901","-0.007634","9.295166","-0.904395","-1.39248","-0.375635","0.008374","-0.100488","0.13877","-0.057422","-0.35769"
"R","1617446451.5561292","7","22","-1","-26","62","39","0.657349","-0.116699","-0.743408","-0.040405","-0.007634","0.015267","-0.007634","9.283203","-0.896021","-1.360181","-0.386401","0.017944","-0.061011","0.104077","-0.04187","-0.374438"
"R","1617446451.5454574","7","24","-3","-24","60","37","0.657227","-0.116577","-0.74353","-0.040344","-0.015267","0","0","9.254492","-0.869702","-1.337451","-0.415112","0.043066","-0.034692","0.088525","-0.015552","-0.407935"
"R","1617446451.535541","7","24","0","-26","62","40","0.657288","-0.116394","-0.74353","-0.040161","-0.022901","-0.007634","0","9.2198","-0.846973","-1.315918","-0.449805","0.066992","-0.014355","0.077759","0.007178","-0.447412"
"R","1617446451.526069","7","23","-2","-25","60","37","0.657471","-0.116211","-0.743408","-0.039917","-0.022901","-0.015267","-0.007634","9.199463","-0.845776","-1.307544","-0.470142","0.069385","-0.010767","0.076563","0.008374","-0.468945"
"R","1617446451.5161593","7","22","1","-23","58","40","0.657654","-0.11615","-0.743286","-0.039734","0","-0.007634","-0.007634","9.213819","-0.905591","-1.309937","-0.456982","0.011963","-0.016748","0.068188","-0.046655","-0.449805"
"R","1617446451.5061953","7","23","0","-22","58","39","0.657715","-0.116394","-0.743164","-0.039673","0.015267","0","-0.015267","9.254492","-1.009668","-1.323096","-0.415112","-0.086133","-0.0323","0.056226","-0.139966","-0.397168"
"R","1617446451.496076","7","24","-3","-24","60","37","0.657593","-0.11676","-0.743164","-0.039856","0.022901","0.007634","-0.015267","9.321485","-1.091016","-1.324292","-0.34812","-0.166284","-0.031104","0.029907","-0.209351","-0.322998"
"R","1617446451.1664276","7","25","0","-22","59","35","0.658142","-0.115479","-0.74292","-0.040222","-0.030534","-0.030534","0","9.333447","-0.94148","-1.288403","-0.340942","-0.037085","-0.008374","0.035889","-0.077759","-0.331372"
"R","1617446451.1562574","7","25","-1","-24","63","40","0.658508","-0.115051","-0.742615","-0.040039","-0.038168","-0.030534","0","9.282007","-0.874487","-1.269263","-0.392383","0.027515","0","0.046655","-0.019141","-0.388794"
"R","1617446451.146411","7","27","-3","-18","61","40","0.658936","-0.114624","-0.742371","-0.039734","-0.030534","-0.022901","0","9.259277","-0.845776","-1.241748","-0.417505","0.056226","0.016748","0.039478","0.008374","-0.418701"
"R","1617446451.1361234","7","22","-1","-24","64","42","0.659241","-0.11438","-0.742126","-0.039551","-0.007634","-0.015267","0","9.292773","-0.872095","-1.221411","-0.384009","0.029907","0.028711","0.017944","-0.00957","-0.385205"
"R","1617446451.1261437","7","23","0","-26","63","39","0.659363","-0.114319","-0.742004","-0.039551","0","-0.007634","0","9.346606","-0.912769","-1.207056","-0.330176","-0.00957","0.039478","-0.004785","-0.039478","-0.330176"
"R","1617446451.1162848","7","25","0","-23","62","40","0.659424","-0.114319","-0.742004","-0.039673","0","0","0","9.402832","-0.922339","-1.174756","-0.275146","-0.021533","0.071777","-0.045459","-0.037085","-0.278735"
"R","1617446451.106299","7","24","0","-22","58","41","0.659363","-0.114319","-0.742004","-0.039795","0","0","0","9.447095","-0.91875","-1.146045","-0.230884","-0.019141","0.100488","-0.076563","-0.023926","-0.238062"
"R","1617446451.0963998","7","25","0","-24","59","39","0.659363","-0.114319","-0.742004","-0.039978","0","-0.007634","0","9.45188","-0.91875","-1.140064","-0.226099","-0.022729","0.10647","-0.08374","-0.025122","-0.234473"
"R","1617446451.0863492","7","24","-3","-22","62","40","0.659363","-0.114319","-0.742004","-0.040161","0","-0.015267","0.007634","9.432739","-0.910376","-1.153223","-0.246436","-0.016748","0.093311","-0.068188","-0.025122","-0.253613"
"R","1617446451.076326","7","27","0","-23","63","38","0.659485","-0.114197","-0.741943","-0.040283","-0.007634","-0.015267","0.007634","9.404028","-0.86731","-1.162793","-0.276343","0.022729","0.081348","-0.044263","0.005981","-0.284717"
"R","1617446451.066296","7","23","-4","-21","58","42","0.659607","-0.113953","-0.741821","-0.040344","-0.015267","-0.022901","0.007634","9.375318","-0.818262","-1.177148","-0.305054","0.068188","0.062207","-0.013159","0.043066","-0.314624"
"R","1617446451.056295","7","25","0","-21","59","41","0.65979","-0.11377","-0.741699","-0.040344","-0.007634","-0.015267","0","9.350195","-0.794336","-1.197485","-0.330176","0.089722","0.038281","0.016748","0.056226","-0.33855"
"R","1617446451.0462875","7","23","-1","-22","62","40","0.659912","-0.11377","-0.741577","-0.040344","0","-0.007634","-0.007634","9.352588","-0.806299","-1.199878","-0.328979","0.077759","0.0323","0.019141","0.044263","-0.334961"
"R","1617446451.0364947","7","24","-2","-23","62","41","0.659973","-0.11377","-0.741577","-0.040344","0","0","-0.007634","9.394458","-0.815869","-1.175952","-0.287109","0.069385","0.055029","-0.007178","0.045459","-0.29668"
"R","1617446451.0264995","7","24","-1","-26","58","39","0.659912","-0.113831","-0.741577","-0.040283","-0.007634","0.007634","-0.007634","9.418384","-0.811084","-1.143652","-0.263184","0.075366","0.088525","-0.04187","0.061011","-0.277539"
"R","1617446451.0164063","7","25","0","-23","58","40","0.65979","-0.113831","-0.741699","-0.040222","-0.007634","0.007634","-0.007634","9.429151","-0.790747","-1.120923","-0.251221","0.095703","0.114844","-0.063403","0.087329","-0.270361"
"R","1617446451.0065372","7","24","4","-24","59","37","0.659668","-0.113892","-0.741821","-0.040039","0","0","-0.007634","9.410009","-0.801514","-1.122119","-0.270361","0.088525","0.117236","-0.065796","0.078955","-0.289502"
"R","1617446450.9963665","7","24","-3","-23","60","41","0.659546","-0.114075","-0.741882","-0.039917","0","0","-0.015267","9.376513","-0.836206","-1.143652","-0.302661","0.057422","0.098096","-0.050244","0.040674","-0.31582"
"R","1617446450.9865818","7","25","0","-23","58","36","0.659485","-0.114258","-0.741943","-0.039795","0","0","-0.015267","9.358569","-0.849365","-1.171167","-0.320605","0.047852","0.072974","-0.026318","0.023926","-0.330176"
"R","1617446450.9763536","7","24","-1","-23","59","40","0.659363","-0.114441","-0.742004","-0.039673","0","0","-0.015267","9.344213","-0.861328","-1.197485","-0.333765","0.040674","0.050244","-0.004785","0.010767","-0.339746"
"R","1617446450.9671602","7","23","-1","-23","62","39","0.659302","-0.114563","-0.742065","-0.039551","0","0.007634","-0.015267","9.327466","-0.880469","-1.238159","-0.350513","0.023926","0.010767","0.031104","-0.015552","-0.349316"
"R","1617446450.9563336","7","22","-2","-25","58","37","0.65918","-0.114746","-0.742188","-0.039429","0","0.007634","-0.015267","9.314306","-0.894824","-1.27644","-0.362476","0.013159","-0.021533","0.061011","-0.033496","-0.355298"
"R","1617446450.9464889","7","24","-4","-28","60","39","0.659058","-0.114929","-0.742249","-0.039368","0","0","-0.015267","9.292773","-0.904395","-1.314722","-0.382812","0.007178","-0.057422","0.096899","-0.050244","-0.37085"
"R","1617446450.9363928","7","24","-1","-26","60","42","0.658997","-0.115112","-0.742249","-0.039246","0","0.007634","-0.015267","9.255689","-0.913965","-1.355396","-0.419897","0.001196","-0.096899","0.137573","-0.068188","-0.401953"
"R","1617446450.926712","7","23","-1","-23","60","35","0.658936","-0.115173","-0.74231","-0.039246","0","0.007634","-0.007634","9.258081","-0.924731","-1.385303","-0.417505","-0.007178","-0.124414","0.162695","-0.082544","-0.394775"
"R","1617446450.916413","7","22","2","-24","59","38","0.658875","-0.115234","-0.742371","-0.039185","-0.007634","0.007634","-0.007634","9.274829","-0.92832","-1.390088","-0.399561","-0.00957","-0.128003","0.163892","-0.08374","-0.376831"
"R","1617446450.907082","7","27","-4","-26","58","39","0.658813","-0.115173","-0.742432","-0.039185","-0.007634","0.007634","-0.007634","9.27124","-0.913965","-1.364966","-0.403149","0.002393","-0.101685","0.141162","-0.066992","-0.384009"
"R","1617446450.8972058","7","22","-1","-25","57","42","0.658813","-0.115112","-0.742432","-0.039062","-0.015267","0","-0.007634","9.267652","-0.903198","-1.355396","-0.406738","0.014355","-0.092114","0.135181","-0.053833","-0.38999"
"R","1617446450.8865929","7","24","-3","-24","60","41","0.658813","-0.11499","-0.742493","-0.03894","-0.015267","0","-0.007634","9.278418","-0.904395","-1.336255","-0.395972","0.013159","-0.071777","0.113647","-0.049048","-0.382812"
"R","1617446450.8765504","7","22","-3","-24","58","28","0.658813","-0.114929","-0.742432","-0.038818","-0.015267","0","-0.007634","9.286792","-0.906787","-1.321899","-0.386401","0.011963","-0.058618","0.099292","-0.046655","-0.374438"
"R","1617446450.866313","7","24","-3","-24","60","39","0.658875","-0.114929","-0.742432","-0.038635","-0.007634","-0.007634","-0.007634","9.286792","-0.906787","-1.309937","-0.387598","0.014355","-0.046655","0.088525","-0.04187","-0.376831"
"R","1617446450.85641","7","24","0","-26","63","41","0.658936","-0.114868","-0.742371","-0.038513","-0.015267","-0.007634","-0.007634","9.283203","-0.919946","-1.301563","-0.391187","0.002393","-0.040674","0.080151","-0.052637","-0.38042"
"R","1617446450.8466506","7","24","-3","-23","64","42","0.659119","-0.114807","-0.742249","-0.038391","-0.015267","-0.007634","-0.007634","9.287989","-0.919946","-1.280029","-0.386401","0.003589","-0.022729","0.062207","-0.046655","-0.378027"
"R","1617446450.8362694","7","25","-4","-26","60","42","0.659241","-0.114624","-0.742188","-0.038208","-0.022901","-0.007634","-0.007634","9.30354","-0.900806","-1.244141","-0.372046","0.023926","0.008374","0.035889","-0.019141","-0.369653"
"R","1617446450.8265824","7","22","-2","-20","60","40","0.659363","-0.114441","-0.742126","-0.037964","-0.022901","-0.007634","-0.007634","9.315503","-0.885254","-1.21543","-0.360083","0.040674","0.034692","0.011963","0.002393","-0.363672"
"R","1617446450.8171318","7","23","0","-24","58","40","0.659424","-0.114319","-0.742065","-0.037659","-0.022901","-0.007634","-0.007634","9.311914","-0.903198","-1.195093","-0.362476","0.026318","0.053833","-0.008374","-0.005981","-0.366064"
"R","1617446450.8064344","7","23","-2","-24","63","35","0.659546","-0.114258","-0.742004","-0.037354","-0.015267","-0.007634","-0.007634","9.316699","-0.952246","-1.189111","-0.358887","-0.017944","0.057422","-0.021533","-0.047852","-0.358887"
"R","1617446450.7963653","7","24","0","-23","60","54","0.659607","-0.114258","-0.741943","-0.037231","-0.015267","-0.007634","-0.007634","9.350195","-1.00249","-1.178345","-0.324194","-0.065796","0.065796","-0.044263","-0.088525","-0.321802"
"R","1617446450.787389","7","22","-4","-25","62","40","0.659668","-0.114197","-0.741882","-0.037109","-0.015267","-0.007634","-0.007634","9.366943","-1.018042","-1.168774","-0.307446","-0.080151","0.07417","-0.057422","-0.099292","-0.305054"
"R","1617446450.777248","7","24","-3","-23","60","41","0.65979","-0.114075","-0.741821","-0.036926","-0.022901","-0.007634","-0.007634","9.363355","-1.004883","-1.154419","-0.312231","-0.065796","0.086133","-0.0646","-0.08374","-0.312231"
"R","1617446450.7671309","7","25","0","-24","59","39","0.659851","-0.113953","-0.74176","-0.036743","-0.015267","-0.015267","-0.007634","9.343018","-0.996509","-1.152026","-0.331372","-0.056226","0.086133","-0.061011","-0.076563","-0.332568"
"R","1617446450.7565482","7","22","-3","-28","57","39","0.659973","-0.113892","-0.741699","-0.036499","-0.015267","-0.007634","-0.015267","9.323877","-1.001294","-1.1604","-0.351709","-0.058618","0.075366","-0.049048","-0.08374","-0.350513"
"R","1617446450.7473412","7","22","-1","-26","58","39","0.659973","-0.113831","-0.741699","-0.036316","-0.007634","0.007634","-0.015267","9.371729","-0.989331","-1.129297","-0.302661","-0.044263","0.10647","-0.081348","-0.057422","-0.307446"
"R","1617446450.7371492","7","22","-4","-23","62","42","0.659912","-0.113892","-0.741821","-0.036194","0","0.007634","-0.015267","9.400439","-1.00249","-1.110156","-0.275146","-0.055029","0.129199","-0.108862","-0.059814","-0.282324"
"R","1617446450.7271683","7","25","-1","-26","57","41","0.659668","-0.114014","-0.742004","-0.036133","0.007634","0.015267","-0.007634","9.407618","-1.030005","-1.101782","-0.266772","-0.081348","0.143555","-0.129199","-0.081348","-0.272754"
"R","1617446450.7173052","7","23","-1","-26","60","41","0.659424","-0.114197","-0.742188","-0.036133","0","0.007634","-0.007634","9.372925","-1.040771","-1.114941","-0.300269","-0.089722","0.136377","-0.119629","-0.095703","-0.305054"
"R","1617446450.707143","7","25","-3","-23","60","38","0.659241","-0.114258","-0.742371","-0.036194","-0.007634","0.007634","-0.007634","9.319092","-1.024023","-1.130493","-0.354102","-0.07417","0.12561","-0.100488","-0.088525","-0.35769"
"R","1617446450.6964264","7","23","-3","-24","62","38","0.659058","-0.114197","-0.742493","-0.036194","-0.015267","0.007634","0","9.27124","-0.979761","-1.167578","-0.400757","-0.031104","0.093311","-0.055029","-0.059814","-0.404346"
"R","1617446450.6865215","7","24","-3","-24","60","40","0.658936","-0.114014","-0.742676","-0.036072","-0.015267","0.007634","0","9.231763","-0.935498","-1.213037","-0.440234","0.010767","0.05144","0","-0.0323","-0.441431"
"R","1617446450.6771207","7","23","1","-24","61","37","0.658752","-0.113831","-0.742798","-0.03595","-0.015267","0.015267","0","9.222193","-0.916357","-1.253711","-0.448608","0.029907","0.014355","0.039478","-0.021533","-0.447412"
"R","1617446450.6671915","7","22","-5","-27","58","33","0.658569","-0.113647","-0.743042","-0.035828","-0.007634","0.015267","0","9.218603","-0.912769","-1.282422","-0.452197","0.0323","-0.007178","0.062207","-0.023926","-0.447412"
"R","1617446450.657168","7","23","-4","-25","58","40","0.658325","-0.113586","-0.743225","-0.035767","0","0.015267","0","9.205444","-0.934302","-1.319507","-0.462964","0.00957","-0.039478","0.089722","-0.055029","-0.452197"
"R","1617446450.6474016","7","23","-1","-24","60","41","0.658081","-0.113647","-0.743469","-0.035767","0.007634","0.022901","-0.007634","9.222193","-0.965405","-1.336255","-0.446216","-0.020337","-0.049048","0.090918","-0.08374","-0.43186"
"R","1617446450.6371062","7","23","-1","-24","60","40","0.657776","-0.113831","-0.743713","-0.035828","0.015267","0.022901","-0.007634","9.241333","-1.009668","-1.329077","-0.425879","-0.063403","-0.033496","0.0646","-0.119629","-0.409131"
"R","1617446450.6271734","7","22","0","-23","57","37","0.657471","-0.114075","-0.743896","-0.03595","0.015267","0.022901","-0.007634","9.242529","-1.041968","-1.333862","-0.423486","-0.095703","-0.031104","0.055029","-0.150732","-0.404346"
"R","1617446450.617199","7","22","-1","-24","58","39","0.657227","-0.114258","-0.744141","-0.036133","0.007634","0.015267","-0.007634","9.247314","-1.039575","-1.333862","-0.418701","-0.094507","-0.023926","0.047852","-0.147144","-0.399561"
"R","1617446450.60732","7","24","-2","-26","62","40","0.656982","-0.114319","-0.744324","-0.036316","0","0.007634","0","9.242529","-1.000098","-1.329077","-0.42229","-0.057422","-0.014355","0.047852","-0.110059","-0.407935"
"R","1617446450.5971427","7","23","-3","-23","60","36","0.65686","-0.114258","-0.744385","-0.036316","-0.007634","0","0","9.216211","-0.966602","-1.338647","-0.448608","-0.025122","-0.021533","0.0646","-0.082544","-0.436646"
"R","1617446450.5872877","7","23","-2","-26","58","39","0.656921","-0.114197","-0.744385","-0.036377","-0.007634","-0.007634","0","9.183911","-0.930713","-1.353003","-0.480908","0.008374","-0.035889","0.089722","-0.057422","-0.470142"
"R","1617446450.5771365","7","24","-2","-24","57","36","0.656982","-0.114075","-0.744324","-0.036377","-0.007634","-0.007634","0","9.179126","-0.911572","-1.354199","-0.485693","0.026318","-0.039478","0.096899","-0.040674","-0.476123"
"R","1617446450.567109","7","25","-5","-22","60","39","0.657104","-0.114014","-0.744263","-0.036377","-0.007634","-0.007634","0","9.20664","-0.880469","-1.34104","-0.459375","0.056226","-0.028711","0.089722","-0.007178","-0.45459"
"R","1617446450.5571678","7","23","1","-24","62","4","0.657227","-0.113953","-0.744141","-0.036316","0","-0.007634","0","9.2521","-0.860132","-1.317114","-0.413916","0.077759","-0.008374","0.070581","0.022729","-0.413916"
"R","1617446450.5471878","7","22","0","-22","59","35","0.657288","-0.114014","-0.74408","-0.036377","0.007634","-0.007634","0","9.29038","-0.881665","-1.300366","-0.375635","0.056226","0.005981","0.046655","0.00957","-0.375635"
"R","1617446450.5372243","7","24","-3","-25","62","39","0.657349","-0.114197","-0.744019","-0.036621","0.015267","-0.007634","0","9.325073","-0.917554","-1.2896","-0.342139","0.019141","0.014355","0.027515","-0.019141","-0.340942"
