"Alphabet","timestamp","user_id","flex_1","flex_2","flex_3","flex_4","flex_5","Qw","Qx","Qy","Qz","GYRx","GYRy","GYRz","ACCx","ACCy","ACCz","ACCx_body","ACCy_body","ACCz_body","ACCx_world","ACCy_world","ACCz_world"
"S","1617446609.1873572","7","22","49","46","56","36","0.828674","0.047913","-0.555176","-0.052185","-0.007634","0.007634","-0.007634","8.761621","1.347021","3.497949","-0.205762","0","-0.215332","0.120825","0.0323","-0.269165"
"S","1617446609.1773016","7","22","49","44","54","35","0.828613","0.047852","-0.555298","-0.052063","-0.007634","0.007634","-0.015267","8.780762","1.311133","3.493164","-0.187817","-0.0323","-0.217725","0.129199","0","-0.258398"
"S","1617446609.1675007","7","22","48","46","57","32","0.828552","0.047729","-0.55542","-0.05188","-0.007634","0.007634","-0.015267","8.777173","1.288403","3.49436","-0.193799","-0.05144","-0.214136","0.123218","-0.019141","-0.26438"
"S","1617446609.1572149","7","22","49","46","54","39","0.828491","0.047668","-0.555542","-0.051758","-0.007634","0","-0.015267","8.76521","1.278833","3.497949","-0.206958","-0.058618","-0.208154","0.112451","-0.023926","-0.275146"
"S","1617446609.1471467","7","20","50","47","54","16","0.828491","0.047668","-0.555542","-0.051575","-0.015267","0","-0.007634","8.740088","1.274048","3.49436","-0.23208","-0.061011","-0.210547","0.105273","-0.022729","-0.300269"
"S","1617446609.137204","7","22","53","48","55","36","0.828491","0.047729","-0.555542","-0.051453","-0.015267","-0.007634","-0.007634","8.712573","1.270459","3.488379","-0.259595","-0.0646","-0.216528","0.099292","-0.022729","-0.327783"
"S","1617446609.1271503","7","21","51","48","56","34","0.828491","0.047974","-0.555542","-0.05127","-0.022901","-0.007634","-0.007634","8.703003","1.300366","3.476416","-0.269165","-0.035889","-0.228491","0.107666","0.005981","-0.337354"
"S","1617446609.1170824","7","22","52","46","56","36","0.828552","0.048218","-0.555542","-0.051086","-0.022901","0","-0.007634","8.698217","1.330273","3.469238","-0.275146","-0.008374","-0.235669","0.113647","0.034692","-0.342139"
"S","1617446609.107464","7","22","49","48","57","33","0.828491","0.048401","-0.555542","-0.050842","-0.015267","0","-0.007634","8.728125","1.329077","3.468042","-0.244043","-0.00957","-0.235669","0.12561","0.028711","-0.313428"
"S","1617446609.0971687","7","21","48","49","55","35","0.82843","0.048523","-0.555603","-0.050659","-0.007634","0.007634","-0.007634","8.758032","1.290796","3.456079","-0.214136","-0.047852","-0.246436","0.144751","-0.010767","-0.295483"
"S","1617446609.08721","7","21","49","48","57","36","0.828369","0.048462","-0.555725","-0.050598","0","0.007634","-0.007634","8.791529","1.252515","3.470435","-0.183032","-0.084937","-0.229687","0.139966","-0.052637","-0.265576"
"S","1617446609.077329","7","21","46","44","55","35","0.828308","0.048401","-0.555847","-0.050598","0","0.007634","-0.007634","8.810669","1.228589","3.491968","-0.165088","-0.107666","-0.205762","0.124414","-0.078955","-0.242847"
"S","1617446609.0673776","7","21","47","46","57","33","0.828308","0.04834","-0.555908","-0.050598","0","0","-0.007634","8.808276","1.214233","3.512305","-0.168677","-0.120825","-0.184229","0.102881","-0.090918","-0.240454"
"S","1617446609.0573125","7","21","47","45","56","33","0.828308","0.048401","-0.555908","-0.050598","-0.007634","-0.007634","-0.007634","8.799902","1.232178","3.552979","-0.177051","-0.104077","-0.143555","0.062207","-0.07417","-0.229687"
"S","1617446609.0473194","7","22","49","50","57","32","0.828369","0.048523","-0.555725","-0.050537","-0.015267","-0.022901","0","8.744873","1.272852","3.578101","-0.229687","-0.0646","-0.122021","0.023926","-0.028711","-0.26438"
"S","1617446609.0373583","7","20","49","45","54","33","0.828552","0.048828","-0.555481","-0.050476","-0.022901","-0.022901","0","8.708984","1.317114","3.593652","-0.263184","-0.025122","-0.111255","0.002393","0.013159","-0.285913"
"S","1617446609.0272565","7","22","50","47","57","38","0.828735","0.049133","-0.555237","-0.050354","-0.022901","-0.022901","0","8.70061","1.364966","3.622363","-0.269165","0.017944","-0.087329","-0.020337","0.056226","-0.276343"
"S","1617446609.017282","7","22","49","46","54","33","0.828857","0.049316","-0.554993","-0.050171","-0.015267","-0.015267","0","8.701807","1.381714","3.63313","-0.265576","0.034692","-0.081348","-0.023926","0.072974","-0.267969"
"S","1617446609.0074956","7","21","48","46","57","37","0.828918","0.049377","-0.554932","-0.050049","0","-0.007634","0","8.738892","1.348218","3.616382","-0.228491","0.001196","-0.099292","0.004785","0.034692","-0.246436"
"S","1617446608.9972482","7","21","47","48","57","36","0.828918","0.049255","-0.554932","-0.050049","0.007634","0","-0.007634","8.805883","1.2896","3.603223","-0.161499","-0.053833","-0.112451","0.040674","-0.027515","-0.197388"
"S","1617446608.9873643","7","21","48","46","56","33","0.828857","0.049072","-0.555054","-0.050171","0.007634","0.007634","-0.007634","8.863306","1.253711","3.592456","-0.105273","-0.088525","-0.122021","0.069385","-0.069385","-0.154321"
"S","1617446608.9771967","7","21","46","31","55","31","0.828796","0.04895","-0.555115","-0.050293","0.007634","0","0","8.892016","1.251318","3.593652","-0.076563","-0.090918","-0.118433","0.077759","-0.075366","-0.126807"
"S","1617446608.967381","7","22","45","46","57","33","0.828796","0.048889","-0.555115","-0.050415","0","-0.007634","0","8.875269","1.274048","3.60083","-0.093311","-0.068188","-0.111255","0.0646","-0.05144","-0.136377"
"S","1617446608.9573455","7","22","53","50","57","36","0.828857","0.04895","-0.554993","-0.050476","-0.007634","-0.015267","0","8.827417","1.317114","3.604419","-0.139966","-0.026318","-0.110059","0.047852","-0.003589","-0.172266"
"S","1617446608.9471607","7","22","48","45","57","33","0.828979","0.049133","-0.554749","-0.050537","-0.015267","-0.022901","0","8.787939","1.374536","3.598438","-0.175854","0.026318","-0.120825","0.045459","0.052637","-0.202173"
"S","1617446608.9372678","7","21","49","46","57","33","0.829163","0.049438","-0.554504","-0.050476","-0.015267","-0.022901","0","8.753247","1.437939","3.603223","-0.209351","0.084937","-0.122021","0.034692","0.11604","-0.226099"
"S","1617446608.9272926","7","22","51","46","52","31","0.829285","0.049622","-0.554321","-0.050415","-0.007634","-0.015267","0","8.737696","1.471436","3.605615","-0.22251","0.11604","-0.123218","0.0323","0.14834","-0.233276"
"S","1617446608.917352","7","21","51","47","57","33","0.829346","0.049622","-0.55426","-0.050354","0","0","0","8.749659","1.446314","3.603223","-0.210547","0.092114","-0.126807","0.039478","0.123218","-0.227295"
"S","1617446608.907195","7","20","51","47","52","36","0.829346","0.049438","-0.55426","-0.050415","0.007634","0.007634","-0.007634","8.785547","1.412817","3.596045","-0.174658","0.061011","-0.133984","0.058618","0.087329","-0.202173"
"S","1617446608.897352","7","21","49","48","57","37","0.829285","0.049255","-0.554382","-0.050537","0.007634","0","0","8.811865","1.402051","3.596045","-0.149536","0.05144","-0.132788","0.066992","0.07417","-0.179443"
"S","1617446608.88754","7","21","49","48","54","32","0.829224","0.049133","-0.554382","-0.050659","0","0","0","8.811865","1.414014","3.608008","-0.149536","0.0646","-0.119629","0.055029","0.087329","-0.172266"
"S","1617446608.8771129","7","21","49","46","57","33","0.829285","0.049133","-0.554382","-0.05072","-0.007634","-0.007634","0","8.792725","1.422388","3.617578","-0.168677","0.071777","-0.111255","0.040674","0.096899","-0.186621"
"S","1617446608.8674004","7","22","48","49","57","36","0.829346","0.049194","-0.55426","-0.05072","-0.007634","-0.015267","0","8.754443","1.423584","3.618774","-0.205762","0.071777","-0.112451","0.027515","0.101685","-0.220117"
"S","1617446608.8574755","7","21","49","47","56","33","0.829407","0.049255","-0.554138","-0.050659","-0.015267","-0.015267","0","8.73291","1.411621","3.603223","-0.226099","0.059814","-0.130396","0.035889","0.093311","-0.247632"
"S","1617446608.847268","7","19","49","47","56","35","0.829468","0.049316","-0.554016","-0.050537","-0.007634","-0.007634","-0.007634","8.758032","1.386499","3.590064","-0.19978","0.035889","-0.144751","0.058618","0.065796","-0.23208"
"S","1617446608.837279","7","22","48","47","56","31","0.829529","0.049255","-0.554016","-0.050354","-0.007634","-0.007634","-0.015267","8.779566","1.34104","3.570923","-0.178247","-0.005981","-0.165088","0.08374","0.022729","-0.226099"
"S","1617446608.827348","7","21","47","48","56","37","0.829529","0.049133","-0.554016","-0.050171","0","0","-0.015267","8.801099","1.288403","3.552979","-0.15791","-0.055029","-0.183032","0.10647","-0.027515","-0.221313"
"S","1617446608.8172815","7","22","52","48","56","37","0.829529","0.049072","-0.554077","-0.050049","-0.007634","0.007634","-0.015267","8.846558","1.269263","3.556567","-0.113647","-0.071777","-0.178247","0.118433","-0.050244","-0.18064"
"S","1617446608.807255","7","22","48","44","56","37","0.829468","0.049072","-0.554138","-0.049927","-0.007634","0.007634","-0.007634","8.872876","1.280029","3.572119","-0.087329","-0.059814","-0.161499","0.113647","-0.04187","-0.149536"
"S","1617446608.797332","7","20","52","46","57","36","0.829407","0.049133","-0.554199","-0.049866","-0.015267","0","-0.007634","8.857325","1.302759","3.593652","-0.102881","-0.037085","-0.137573","0.086133","-0.017944","-0.150732"
"S","1617446608.7872045","7","22","49","46","56","33","0.829407","0.049255","-0.554199","-0.049744","-0.015267","-0.007634","-0.007634","8.842969","1.319507","3.618774","-0.117236","-0.021533","-0.112451","0.058618","-0.001196","-0.151929"
"S","1617446608.7775257","7","22","47","49","55","36","0.829468","0.049377","-0.554138","-0.049622","-0.015267","-0.015267","0","8.80708","1.319507","3.631934","-0.153125","-0.021533","-0.100488","0.033496","0.001196","-0.18064"
"S","1617446608.7672057","7","22","49","46","55","35","0.82959","0.049622","-0.553955","-0.049561","-0.015267","-0.015267","0","8.771192","1.325488","3.630737","-0.187817","-0.019141","-0.105273","0.025122","0.00957","-0.214136"
"S","1617446608.7574146","7","20","49","49","54","35","0.829651","0.049805","-0.553772","-0.049438","-0.015267","-0.015267","0","8.79751","1.333862","3.629541","-0.159106","-0.011963","-0.110059","0.039478","0.011963","-0.189014"
"S","1617446608.7474637","7","21","49","47","54","36","0.829773","0.049927","-0.55365","-0.049377","-0.007634","-0.007634","0","8.822632","1.317114","3.618774","-0.132788","-0.029907","-0.123218","0.062207","-0.007178","-0.172266"
"S","1617446608.7372897","7","22","51","46","57","33","0.829834","0.049988","-0.553589","-0.049316","-0.007634","-0.007634","-0.007634","8.836987","1.294385","3.615185","-0.118433","-0.052637","-0.129199","0.071777","-0.031104","-0.163892"
"S","1617446608.7274723","7","22","47","48","57","35","0.829834","0.050049","-0.553528","-0.049316","-0.007634","-0.007634","-0.007634","8.850146","1.290796","3.639111","-0.104077","-0.057422","-0.105273","0.055029","-0.039478","-0.142358"
"S","1617446608.71745","7","20","49","47","55","35","0.829895","0.050171","-0.553406","-0.049255","-0.015267","-0.007634","-0.007634","8.828613","1.314722","3.675","-0.124414","-0.034692","-0.071777","0.016748","-0.014355","-0.144751"
"S","1617446608.7073665","7","21","49","48","54","33","0.830017","0.050293","-0.553284","-0.049133","-0.015267","-0.015267","-0.007634","8.810669","1.332666","3.720459","-0.141162","-0.017944","-0.028711","-0.027515","0.002393","-0.142358"
"S","1617446608.697255","7","20","51","48","56","37","0.830078","0.050415","-0.553162","-0.049011","-0.015267","-0.015267","-0.007634","8.798706","1.337451","3.761133","-0.151929","-0.013159","0.008374","-0.065796","0.007178","-0.136377"
"S","1617446608.688131","7","22","50","46","57","33","0.8302","0.050476","-0.55304","-0.048889","-0.007634","-0.015267","-0.007634","8.792725","1.309937","3.783862","-0.15791","-0.040674","0.027515","-0.086133","-0.019141","-0.13877"
"S","1617446608.677343","7","22","49","47","54","35","0.830261","0.050476","-0.552917","-0.048767","-0.007634","-0.015267","-0.007634","8.783154","1.286011","3.798218","-0.166284","-0.063403","0.039478","-0.101685","-0.040674","-0.144751"
"S","1617446608.6675315","7","21","49","45","56","36","0.830322","0.050476","-0.552856","-0.048767","-0.007634","-0.015267","0","8.778369","1.277637","3.780273","-0.169873","-0.071777","0.020337","-0.084937","-0.047852","-0.156714"
"S","1617446608.6573713","7","22","53","48","57","36","0.830383","0.050598","-0.552734","-0.048828","-0.007634","-0.015267","0","8.773584","1.284814","3.759937","-0.173462","-0.066992","-0.001196","-0.066992","-0.04187","-0.16748"
"S","1617446608.64734","7","22","51","47","57","36","0.830383","0.050781","-0.552673","-0.048828","-0.007634","-0.007634","0","8.781958","1.303955","3.732422","-0.163892","-0.05144","-0.028711","-0.037085","-0.027515","-0.16748"
"S","1617446608.637565","7","21","49","47","55","32","0.830383","0.050964","-0.552612","-0.048889","-0.015267","-0.007634","0","8.783154","1.337451","3.69773","-0.161499","-0.021533","-0.0646","-0.002393","0.002393","-0.174658"
"S","1617446608.627458","7","20","48","47","52","35","0.830383","0.051208","-0.552612","-0.048828","-0.015267","-0.007634","0","8.778369","1.372144","3.69773","-0.166284","0.00957","-0.0646","-0.003589","0.033496","-0.174658"
"S","1617446608.617498","7","22","49","47","56","33","0.830383","0.051392","-0.552612","-0.048767","-0.015267","0","-0.007634","8.769995","1.375732","3.694141","-0.174658","0.010767","-0.066992","-0.004785","0.035889","-0.183032"
"S","1617446608.6081057","7","21","46","46","36","36","0.830322","0.051453","-0.552734","-0.048645","-0.007634","0","-0.007634","8.789136","1.35061","3.695337","-0.156714","-0.013159","-0.063403","-0.001196","0.00957","-0.168677"
"S","1617446608.5974607","7","22","43","46","56","37","0.830261","0.051392","-0.552856","-0.048523","0","0.007634","-0.007634","8.827417","1.302759","3.702515","-0.119629","-0.058618","-0.053833","0.001196","-0.039478","-0.137573"
"S","1617446608.5875456","7","21","45","46","56","33","0.8302","0.05127","-0.552917","-0.048523","0","0","-0.007634","8.84895","1.260889","3.7073","-0.099292","-0.098096","-0.047852","0.003589","-0.081348","-0.122021"
"S","1617446608.5774777","7","21","49","46","55","33","0.8302","0.051147","-0.552979","-0.048523","0","-0.007634","-0.007634","8.84895","1.235767","3.706104","-0.099292","-0.122021","-0.049048","0.003589","-0.105273","-0.12561"
"S","1617446608.567293","7","21","51","47","57","37","0.8302","0.051147","-0.552979","-0.048523","0","-0.007634","0","8.840576","1.223804","3.685767","-0.107666","-0.133984","-0.069385","0.019141","-0.114844","-0.142358"
"S","1617446608.5575533","7","22","49","47","56","32","0.8302","0.051208","-0.552979","-0.048645","-0.007634","-0.007634","0","8.847754","1.244141","3.658252","-0.100488","-0.11604","-0.096899","0.047852","-0.096899","-0.144751"
"S","1617446608.548039","7","27","49","46","89","37","0.8302","0.051392","-0.552979","-0.048706","-0.015267","0","0","8.853735","1.291992","3.643897","-0.094507","-0.071777","-0.110059","0.063403","-0.053833","-0.137573"
"S","1617446608.5374498","7","21","48","46","56","31","0.8302","0.051636","-0.552917","-0.048767","-0.015267","0","0.007634","8.831006","1.345825","3.628345","-0.11604","-0.022729","-0.126807","0.071777","-0.002393","-0.156714"
"S","1617446608.5276923","7","20","48","44","55","36","0.830139","0.052002","-0.552979","-0.048767","-0.022901","0","0.007634","8.828613","1.423584","3.619971","-0.118433","0.047852","-0.132788","0.077759","0.066992","-0.151929"
"S","1617446608.5173614","7","22","49","46","56","36","0.830078","0.052307","-0.55304","-0.048767","-0.022901","0.007634","0.007634","8.833399","1.477417","3.616382","-0.113647","0.096899","-0.135181","0.082544","0.11604","-0.141162"
"S","1617446608.5072925","7","22","51","46","57","39","0.830017","0.05249","-0.553162","-0.048706","-0.007634","0.007634","0","8.850146","1.471436","3.615185","-0.098096","0.088525","-0.132788","0.086133","0.105273","-0.126807"
"S","1617446608.49735","7","19","47","47","57","35","0.829895","0.05249","-0.553284","-0.048767","0","0.015267","0","8.884839","1.437939","3.63313","-0.0646","0.055029","-0.112451","0.080151","0.066992","-0.093311"
"S","1617446608.4874864","7","21","49","47","55","36","0.829773","0.052429","-0.553467","-0.048828","0","0","0","8.876465","1.425977","3.677392","-0.07417","0.043066","-0.063403","0.031104","0.053833","-0.084937"
"S","1617446608.478012","7","22","49","47","57","36","0.829773","0.052429","-0.553406","-0.048889","0","-0.007634","0","8.799902","1.417603","3.686963","-0.149536","0.033496","-0.055029","-0.004785","0.055029","-0.151929"
"S","1617446608.468248","7","21","48","47","54","37","0.829895","0.05249","-0.553284","-0.04895","-0.007634","-0.015267","0","8.767603","1.433154","3.708496","-0.18064","0.047852","-0.037085","-0.033496","0.072974","-0.172266"
"S","1617446608.4581373","7","22","48","46","56","36","0.829956","0.052612","-0.553162","-0.04895","-0.007634","-0.015267","0","8.748462","1.453491","3.715674","-0.198584","0.065796","-0.0323","-0.044263","0.093311","-0.184229"
"S","1617446608.4473486","7","21","48","45","56","31","0.829956","0.052612","-0.553162","-0.048889","-0.007634","-0.007634","0","8.749659","1.441528","3.701318","-0.197388","0.055029","-0.046655","-0.031104","0.082544","-0.19021"
"S","1617446608.4381163","7","22","49","45","54","36","0.829956","0.052551","-0.553223","-0.048889","0","0","-0.007634","8.785547","1.40564","3.66543","-0.162695","0.020337","-0.081348","0.013159","0.045459","-0.175854"
"S","1617446608.4281137","7","21","48","45","57","37","0.829834","0.052368","-0.553345","-0.048889","0","0.007634","-0.007634","8.835791","1.369751","3.639111","-0.113647","-0.011963","-0.105273","0.052637","0.007178","-0.144751"
"S","1617446608.418017","7","22","49","48","57","35","0.829773","0.052307","-0.553528","-0.04895","0","0.007634","-0.007634","8.863306","1.362573","3.611597","-0.088525","-0.019141","-0.129199","0.084937","-0.002393","-0.132788"
"S","1617446608.4080305","7","22","49","47","56","35","0.829651","0.052246","-0.55365","-0.04895","-0.007634","0.007634","-0.007634","8.882446","1.367358","3.596045","-0.069385","-0.013159","-0.141162","0.102881","0.001196","-0.118433"
"S","1617446608.3982563","7","20","52","28","56","33","0.829529","0.052307","-0.553833","-0.048889","-0.007634","0.007634","-0.007634","8.880054","1.376929","3.59126","-0.07417","-0.003589","-0.142358","0.102881","0.010767","-0.122021"
"S","1617446608.3884006","7","22","48","47","56","35","0.829529","0.052368","-0.553894","-0.048828","-0.007634","0","-0.007634","8.851343","1.374536","3.574512","-0.104077","-0.005981","-0.15791","0.105273","0.013159","-0.155518"
"S","1617446608.3781233","7","20","51","48","55","33","0.829529","0.052429","-0.553833","-0.048767","-0.007634","-0.007634","0","8.834595","1.37334","3.561352","-0.119629","-0.008374","-0.172266","0.112451","0.013159","-0.175854"
"S","1617446608.3682692","7","22","49","48","57","33","0.829529","0.05249","-0.553833","-0.048706","-0.007634","-0.007634","-0.007634","8.829809","1.375732","3.55896","-0.124414","-0.005981","-0.174658","0.113647","0.016748","-0.18064"
"S","1617446608.358211","7","22","52","48","56","33","0.82959","0.052551","-0.553772","-0.048645","0","-0.007634","0","8.823828","1.364966","3.550586","-0.129199","-0.016748","-0.184229","0.119629","0.007178","-0.19021"
"S","1617446608.348054","7","19","48","46","55","36","0.829651","0.052551","-0.55365","-0.048645","0","-0.007634","0","8.828613","1.372144","3.561352","-0.123218","-0.00957","-0.175854","0.114844","0.013159","-0.18064"
"S","1617446608.3380404","7","22","48","47","56","36","0.829712","0.052612","-0.553589","-0.048706","-0.007634","-0.007634","0","8.822632","1.400854","3.587671","-0.129199","0.016748","-0.150732","0.089722","0.039478","-0.172266"
"S","1617446608.3281252","7","21","49","42","55","37","0.829773","0.052612","-0.553467","-0.048706","-0.007634","-0.007634","0","8.792725","1.425977","3.623559","-0.15791","0.04187","-0.117236","0.047852","0.066992","-0.183032"
"S","1617446608.318115","7","20","49","46","53","37","0.829834","0.052673","-0.553406","-0.048767","-0.007634","-0.007634","0","8.771192","1.442725","3.643897","-0.179443","0.056226","-0.099292","0.023926","0.08374","-0.193799"
"S","1617446608.3083117","7","22","48","46","51","36","0.829895","0.052734","-0.553284","-0.048706","-0.007634","-0.007634","0","8.758032","1.451099","3.66543","-0.19021","0.0646","-0.078955","0.001196","0.092114","-0.193799"
"S","1617446608.2983985","7","21","52","48","56","28","0.829895","0.052673","-0.553284","-0.048645","-0.007634","-0.007634","-0.007634","8.75205","1.439136","3.682178","-0.197388","0.053833","-0.062207","-0.016748","0.082544","-0.196191"
"S","1617446608.2883048","7","22","49","47","57","37","0.829895","0.052612","-0.553284","-0.048584","0","-0.007634","-0.007634","8.738892","1.403247","3.677392","-0.210547","0.020337","-0.066992","-0.017944","0.05144","-0.214136"
"S","1617446608.278313","7","21","47","47","56","35","0.829895","0.05249","-0.553284","-0.048462","0","0","-0.007634","8.753247","1.369751","3.663037","-0.196191","-0.00957","-0.081348","0","0.020337","-0.210547"
"S","1617446608.268201","7","21","28","47","55","33","0.829895","0.052368","-0.553345","-0.048401","0","0","-0.007634","8.777173","1.347021","3.647485","-0.173462","-0.028711","-0.096899","0.021533","-0.001196","-0.198584"
"S","1617446608.25821","7","20","50","46","57","36","0.829895","0.052368","-0.553345","-0.04834","-0.007634","-0.007634","-0.007634","8.778369","1.342236","3.627148","-0.172266","-0.033496","-0.117236","0.040674","-0.004785","-0.205762"
"S","1617446608.2482266","7","21","51","47","56","34","0.829895","0.052429","-0.553345","-0.048218","-0.015267","-0.007634","-0.007634","8.786743","1.354199","3.619971","-0.163892","-0.021533","-0.124414","0.05144","0.004785","-0.19978"
"S","1617446608.2382672","7","21","49","44","52","36","0.829895","0.052551","-0.553345","-0.048096","-0.015267","-0.007634","-0.007634","8.793921","1.364966","3.622363","-0.156714","-0.010767","-0.122021","0.05144","0.014355","-0.19021"
"S","1617446608.2282884","7","21","50","46","54","32","0.829895","0.052673","-0.553284","-0.047913","-0.007634","0","-0.007634","8.801099","1.360181","3.618774","-0.14834","-0.015552","-0.12561","0.058618","0.008374","-0.185425"
"S","1617446608.2181995","7","22","49","45","84","39","0.829895","0.052612","-0.553345","-0.047791","0","0","-0.007634","8.815454","1.330273","3.618774","-0.135181","-0.043066","-0.124414","0.061011","-0.019141","-0.175854"
"S","1617446608.208254","7","20","52","48","50","56","0.829895","0.052551","-0.553406","-0.047791","0","0","-0.007634","8.834595","1.290796","3.631934","-0.117236","-0.081348","-0.111255","0.055029","-0.059814","-0.160303"
"S","1617446608.1982677","7","22","48","46","56","35","0.829834","0.052368","-0.553406","-0.047729","0.007634","0","-0.007634","8.842969","1.264477","3.645093","-0.108862","-0.104077","-0.096899","0.045459","-0.08374","-0.150732"
"S","1617446608.1883152","7","21","51","48","57","37","0.829834","0.052246","-0.553467","-0.047791","0","0","-0.007634","8.850146","1.244141","3.653467","-0.102881","-0.123218","-0.088525","0.039478","-0.104077","-0.144751"
"S","1617446608.1781948","7","22","48","44","56","33","0.829834","0.052185","-0.553467","-0.047791","0","-0.007634","-0.007634","8.850146","1.260889","3.673804","-0.102881","-0.105273","-0.068188","0.020337","-0.087329","-0.133984"
"S","1617446608.1683","7","22","52","46","58","34","0.829895","0.052246","-0.553406","-0.047791","-0.007634","-0.015267","0","8.817846","1.303955","3.683374","-0.133984","-0.063403","-0.059814","0.002393","-0.04187","-0.153125"
"S","1617446608.1580403","7","22","49","47","57","36","0.829956","0.052429","-0.553223","-0.047729","-0.015267","-0.015267","0","8.766406","1.360181","3.673804","-0.183032","-0.00957","-0.071777","-0.003589","0.017944","-0.194995"
"S","1617446608.148244","7","22","49","47","57","36","0.830078","0.052673","-0.55304","-0.047668","-0.015267","-0.015267","0","8.738892","1.404443","3.663037","-0.209351","0.029907","-0.086133","0","0.061011","-0.218921"
"S","1617446608.1381176","7","22","51","48","57","36","0.830139","0.052856","-0.552979","-0.047607","-0.007634","-0.007634","0","8.754443","1.427173","3.669019","-0.192603","0.050244","-0.082544","0.002393","0.078955","-0.19978"
"S","1617446608.1281402","7","22","51","48","57","35","0.830139","0.052917","-0.552917","-0.047546","0","0","0","8.772388","1.406836","3.663037","-0.174658","0.029907","-0.088525","0.014355","0.056226","-0.189014"
"S","1617446608.1182566","7","21","49","48","56","36","0.830139","0.052795","-0.552979","-0.047546","0.007634","0.007634","-0.007634","8.799902","1.366162","3.663037","-0.147144","-0.007178","-0.088525","0.023926","0.015552","-0.168677"
"S","1617446608.1082897","7","21","51","48","56","35","0.830078","0.052612","-0.553101","-0.047607","0.007634","0.007634","-0.007634","8.815454","1.339844","3.670215","-0.133984","-0.031104","-0.078955","0.020337","-0.00957","-0.156714"
"S","1617446608.098439","7","21","48","47","57","36","0.830017","0.052429","-0.553223","-0.047668","0","0.007634","-0.007634","8.838183","1.330273","3.700122","-0.112451","-0.039478","-0.046655","0","-0.021533","-0.12561"
"S","1617446608.088271","7","22","48","46","57","38","0.829956","0.052307","-0.553284","-0.047729","0","-0.007634","-0.007634","8.831006","1.339844","3.728833","-0.119629","-0.027515","-0.016748","-0.029907","-0.00957","-0.118433"
"S","1617446608.0782597","7","22","49","47","57","36","0.830017","0.052307","-0.553223","-0.047668","-0.007634","-0.015267","-0.007634","8.789136","1.344629","3.738403","-0.161499","-0.022729","-0.008374","-0.053833","0","-0.153125"
"S","1617446608.0681655","7","21","48","44","54","35","0.830139","0.052429","-0.55304","-0.047607","-0.015267","-0.022901","0","8.754443","1.358984","3.730029","-0.193799","-0.00957","-0.020337","-0.055029","0.016748","-0.185425"
"S","1617446608.0582552","7","21","48","48","57","35","0.830261","0.052551","-0.552856","-0.047546","-0.015267","-0.015267","0","8.737696","1.372144","3.72644","-0.209351","0.001196","-0.028711","-0.053833","0.029907","-0.200977"
"S","1617446608.0484","7","21","49","46","57","-6","0.830322","0.052612","-0.552734","-0.047424","-0.007634","-0.007634","-0.007634","8.729321","1.364966","3.708496","-0.216528","-0.004785","-0.047852","-0.038281","0.026318","-0.216528"
"S","1617446608.0382726","7","21","48","47","55","29","0.830322","0.05249","-0.552795","-0.047363","0.007634","0.007634","-0.007634","8.760425","1.323096","3.676196","-0.186621","-0.044263","-0.080151","0.001196","-0.014355","-0.206958"
"S","1617446608.028277","7","21","49","45","53","35","0.8302","0.052246","-0.552979","-0.047363","0.007634","0.015267","-0.015267","8.81665","1.294385","3.653467","-0.132788","-0.068188","-0.099292","0.038281","-0.045459","-0.168677"
"S","1617446608.0182142","7","20","50","47","55","35","0.830017","0.052063","-0.553284","-0.047424","0.007634","0.015267","-0.007634","8.838183","1.295581","3.616382","-0.113647","-0.0646","-0.130396","0.075366","-0.043066","-0.161499"
"S","1617446608.0082145","7","21","52","47","57","36","0.829834","0.051941","-0.553528","-0.047485","0","0.015267","-0.007634","8.841772","1.307544","3.582886","-0.112451","-0.05144","-0.15791","0.101685","-0.029907","-0.169873"
"S","1617446607.998617","7","22","49","46","55","37","0.829712","0.051941","-0.55365","-0.047485","-0.007634","0.007634","0","8.835791","1.336255","3.552979","-0.118433","-0.022729","-0.184229","0.123218","0","-0.18064"
"S","1617446607.9884737","7","22","52","47","55","35","0.829651","0.052063","-0.553772","-0.047485","-0.015267","0.007634","0","8.817846","1.374536","3.529053","-0.137573","0.011963","-0.205762","0.137573","0.037085","-0.202173"
"S","1617446607.978253","7","22","40","47","55","35","0.82959","0.052246","-0.553894","-0.047363","-0.015267","0","0","8.80708","1.410425","3.524268","-0.149536","0.046655","-0.208154","0.135181","0.072974","-0.209351"
"S","1617446607.9683683","7","21","48","47","57","33","0.82959","0.052368","-0.553894","-0.047302","-0.007634","0","-0.007634","8.805883","1.391284","3.499146","-0.150732","0.025122","-0.233276","0.15791","0.052637","-0.22251"
"S","1617446607.9582217","7","22","49","48","57","35","0.82959","0.052246","-0.553894","-0.047241","0.007634","0","-0.007634","8.811865","1.34104","3.495557","-0.145947","-0.020337","-0.236865","0.161499","0.007178","-0.226099"
"S","1617446607.948481","7","22","49","48","57","33","0.82959","0.052063","-0.553894","-0.047302","0.007634","0.007634","-0.007634","8.821436","1.306348","3.507519","-0.136377","-0.052637","-0.224902","0.154321","-0.025122","-0.216528"
"S","1617446607.938388","7","22","52","46","57","36","0.82959","0.051819","-0.553955","-0.047363","0.007634","0","-0.007634","8.833399","1.29917","3.542212","-0.12561","-0.057422","-0.19021","0.12561","-0.0323","-0.194995"
"S","1617446607.928398","7","21","45","45","57","33","0.82959","0.051636","-0.553955","-0.047424","0.007634","0","-0.007634","8.826221","1.313525","3.574512","-0.132788","-0.040674","-0.15791","0.093311","-0.016748","-0.186621"
"S","1617446607.918321","7","22","52","46","57","33","0.829651","0.051575","-0.553894","-0.047485","-0.007634","-0.007634","0","8.810669","1.353003","3.618774","-0.147144","0","-0.11604","0.050244","0.022729","-0.178247"
"S","1617446607.9083364","7","22","49","46","56","40","0.829712","0.051697","-0.553711","-0.047485","-0.015267","-0.015267","0","8.766406","1.404443","3.653467","-0.189014","0.047852","-0.08374","0.005981","0.075366","-0.197388"
"S","1617446607.8983738","7","22","48","47","57","35","0.829834","0.051941","-0.553528","-0.047424","-0.022901","-0.022901","0","8.718554","1.441528","3.659448","-0.235669","0.081348","-0.081348","-0.013159","0.114844","-0.234473"
"S","1617446607.8884835","7","7","51","46","57","35","0.829956","0.052185","-0.553345","-0.047363","-0.015267","-0.015267","0","8.707788","1.44751","3.6427","-0.244043","0.08374","-0.101685","0.001196","0.119629","-0.250024"
"S","1617446607.878315","7","21","49","47","54","37","0.830017","0.052307","-0.553284","-0.047241","-0.015267","-0.007634","0","8.734106","1.430762","3.624756","-0.217725","0.066992","-0.120825","0.028711","0.099292","-0.235669"
"S","1617446607.8682754","7","17","49","46","56","32","0.830017","0.052307","-0.553223","-0.047119","-0.007634","0","-0.007634","8.766406","1.398462","3.602026","-0.184229","0.035889","-0.144751","0.063403","0.0646","-0.217725"
"S","1617446607.8584604","7","22","48","47","58","36","0.830017","0.052185","-0.553284","-0.047058","0","0.007634","-0.007634","8.813062","1.357788","3.594849","-0.13877","-0.001196","-0.150732","0.084937","0.022729","-0.184229"
"S","1617446607.8483195","7","17","47","47","57","33","0.830017","0.052002","-0.553345","-0.046997","0.007634","0.007634","-0.007634","8.841772","1.30874","3.613989","-0.111255","-0.046655","-0.131592","0.077759","-0.026318","-0.15791"
"S","1617446607.8383856","7","22","48","46","55","33","0.829956","0.051758","-0.553406","-0.047058","0.007634","0","-0.007634","8.851343","1.272852","3.621167","-0.102881","-0.078955","-0.123218","0.071777","-0.059814","-0.151929"
"S","1617446607.82848","7","22","49","47","56","36","0.829956","0.051636","-0.553467","-0.047119","-0.007634","0","-0.007634","8.845362","1.27644","3.641504","-0.110059","-0.07417","-0.101685","0.049048","-0.055029","-0.149536"
"S","1617446607.8184843","7","21","49","77","55","33","0.829956","0.051758","-0.553406","-0.047119","-0.015267","-0.015267","-0.007634","8.810669","1.327881","3.672607","-0.143555","-0.025122","-0.071777","0.010767","-0.002393","-0.161499"
"S","1617446607.8085294","7","21","49","45","56","32","0.830017","0.052002","-0.553284","-0.046936","-0.022901","-0.015267","0","8.775976","1.390088","3.690552","-0.177051","0.034692","-0.055029","-0.015552","0.059814","-0.177051"
"S","1617446607.7983088","7","22","48","48","57","33","0.830139","0.052307","-0.553101","-0.046753","-0.022901","-0.015267","0","8.76521","1.410425","3.688159","-0.185425","0.05144","-0.061011","-0.013159","0.077759","-0.185425"
"S","1617446607.7884874","7","22","49","47","57","35","0.8302","0.052429","-0.55304","-0.04657","-0.007634","-0.007634","0","8.779566","1.374536","3.672607","-0.171069","0.015552","-0.077759","0.005981","0.040674","-0.183032"
"S","1617446607.7784898","7","22","51","46","56","35","0.8302","0.052429","-0.552979","-0.046509","0","0","-0.007634","8.826221","1.315918","3.654663","-0.123218","-0.040674","-0.096899","0.040674","-0.019141","-0.154321"
"S","1617446607.768489","7","22","47","46","54","33","0.8302","0.052429","-0.55304","-0.04657","0","0","-0.007634","8.874072","1.291992","3.651074","-0.076563","-0.065796","-0.099292","0.059814","-0.050244","-0.11604"
"S","1617446607.7586577","7","20","49","47","55","33","0.830139","0.052368","-0.553101","-0.04657","0","0","-0.007634","8.880054","1.291992","3.659448","-0.070581","-0.0646","-0.089722","0.053833","-0.050244","-0.107666"
"S","1617446607.749105","7","21","47","46","52","36","0.830139","0.052307","-0.553101","-0.046631","0","0","-0.007634","8.872876","1.286011","3.66543","-0.077759","-0.069385","-0.08374","0.045459","-0.055029","-0.112451"
"S","1617446607.7390432","7","22","49","44","57","36","0.830139","0.052246","-0.553101","-0.046692","0","-0.007634","-0.007634","8.856128","1.284814","3.678589","-0.094507","-0.070581","-0.070581","0.026318","-0.053833","-0.122021"
"S","1617446607.729119","7","21","47","50","57","33","0.8302","0.052246","-0.55304","-0.046692","-0.015267","-0.007634","-0.007634","8.838183","1.315918","3.706104","-0.112451","-0.039478","-0.045459","-0.001196","-0.021533","-0.124414"
"S","1617446607.7197075","7","20","49","48","56","35","0.830261","0.05249","-0.552917","-0.04657","-0.022901","-0.015267","-0.007634","8.802295","1.372144","3.736011","-0.147144","0.013159","-0.016748","-0.040674","0.033496","-0.13877"
"S","1617446607.70912","7","22","49","45","54","35","0.830383","0.052734","-0.552734","-0.046387","-0.022901","-0.022901","0","8.748462","1.409229","3.753955","-0.198584","0.047852","-0.002393","-0.072974","0.07417","-0.174658"
"S","1617446607.6991415","7","21","49","48","56","35","0.830444","0.052979","-0.552612","-0.046265","-0.015267","-0.015267","0","8.73291","1.421191","3.741992","-0.212939","0.057422","-0.016748","-0.0646","0.086133","-0.192603"
"S","1617446606.8800883","7","22","51","46","57","35","0.830872","0.051636","-0.552307","-0.043457","-0.007634","-0.007634","0","8.853735","1.286011","3.741992","-0.095703","-0.025122","-0.026318","-0.011963","-0.010767","-0.100488"
"S","1617446606.8700626","7","21","44","47","57","32","0.830933","0.051636","-0.552246","-0.043396","0","-0.015267","0","8.853735","1.271655","3.750366","-0.095703","-0.038281","-0.019141","-0.019141","-0.023926","-0.099292"
"S","1617446606.8600404","7","21","51","47","56","37","0.831055","0.051636","-0.552124","-0.043457","0","-0.015267","0","8.840576","1.259692","3.756348","-0.107666","-0.05144","-0.016748","-0.026318","-0.035889","-0.111255"
"S","1617446606.8493204","7","22","51","48","57","36","0.831116","0.051697","-0.552002","-0.043579","0","-0.007634","0","8.833399","1.286011","3.774292","-0.113647","-0.027515","-0.001196","-0.043066","-0.011963","-0.107666"
"S","1617446606.8400438","7","22","49","47","57","33","0.831177","0.051697","-0.55188","-0.043701","0","-0.007634","0","8.833399","1.315918","3.799414","-0.112451","0","0.020337","-0.062207","0.013159","-0.094507"
"S","1617446606.8301437","7","16","47","47","53","31","0.831177","0.051636","-0.55188","-0.043762","0","-0.007634","0","8.815454","1.332666","3.818555","-0.130396","0.017944","0.039478","-0.086133","0.0323","-0.100488"
"S","1617446606.8199892","7","22","48","46","54","33","0.831177","0.051697","-0.55188","-0.043884","-0.007634","-0.007634","0","8.799902","1.353003","3.836499","-0.145947","0.035889","0.057422","-0.107666","0.05144","-0.105273"
"S","1617446606.8100772","7","22","51","47","56","33","0.831177","0.051758","-0.55188","-0.043884","-0.015267","-0.007634","0","8.781958","1.385303","3.854443","-0.163892","0.066992","0.075366","-0.131592","0.08374","-0.111255"
"S","1617446606.800036","7","21","48","46","54","36","0.831177","0.05188","-0.551819","-0.043823","-0.015267","-0.007634","0","8.746069","1.418799","3.859229","-0.198584","0.099292","0.080151","-0.14834","0.120825","-0.136377"
"S","1617446606.7892325","7","22","49","46","55","31","0.831177","0.052002","-0.551819","-0.043701","-0.007634","-0.007634","-0.007634","8.725733","1.410425","3.837695","-0.218921","0.089722","0.058618","-0.136377","0.114844","-0.165088"
"S","1617446606.780091","7","19","47","42","57","33","0.831116","0.051941","-0.55188","-0.043579","0","0","-0.007634","8.736499","1.361377","3.776685","-0.208154","0.043066","0","-0.078955","0.069385","-0.183032"
"S","1617446606.770063","7","21","47","46","57","36","0.831055","0.051758","-0.552063","-0.043579","0.007634","0.007634","-0.007634","8.785547","1.295581","3.712085","-0.161499","-0.017944","-0.061011","-0.005981","0.004785","-0.172266"
"S","1617446606.760326","7","21","52","49","55","31","0.830933","0.051514","-0.552246","-0.043579","0.007634","0.015267","-0.007634","8.840576","1.251318","3.655859","-0.108862","-0.058618","-0.113647","0.061011","-0.039478","-0.150732"
"S","1617446606.75025","7","22","49","45","57","34","0.83075","0.051331","-0.55249","-0.043701","0.007634","0.015267","-0.007634","8.862109","1.227393","3.606812","-0.089722","-0.081348","-0.15791","0.108862","-0.062207","-0.153125"
"S","1617446606.7400556","7","21","50","49","53","36","0.830627","0.05127","-0.552673","-0.043701","-0.007634","0.007634","-0.007634","8.859716","1.244141","3.587671","-0.093311","-0.063403","-0.172266","0.120825","-0.044263","-0.159106"
"S","1617446606.7301366","7","21","45","45","56","33","0.830566","0.051331","-0.552795","-0.04364","-0.015267","0","-0.007634","8.841772","1.294385","3.592456","-0.112451","-0.013159","-0.165088","0.107666","0.007178","-0.16748"
"S","1617446606.7202082","7","22","47","46","55","37","0.830566","0.051392","-0.552795","-0.043579","-0.015267","-0.007634","0","8.783154","1.335059","3.590064","-0.171069","0.025122","-0.16748","0.088525","0.052637","-0.216528"
"S","1617446606.7100356","7","22","49","46","56","36","0.830627","0.051514","-0.552734","-0.043457","-0.007634","-0.007634","0","8.747266","1.339844","3.588867","-0.206958","0.029907","-0.169873","0.076563","0.062207","-0.250024"
"S","1617446606.69998","7","22","53","49","55","33","0.830627","0.051453","-0.552673","-0.043457","0","0","0","8.764013","1.325488","3.597241","-0.189014","0.016748","-0.162695","0.076563","0.046655","-0.23208"
"S","1617446606.6900263","7","20","47","47","57","35","0.830627","0.051331","-0.552734","-0.043579","0.007634","0.007634","0","8.790332","1.312329","3.612793","-0.163892","0.003589","-0.147144","0.071777","0.029907","-0.204565"
"S","1617446606.680238","7","21","48","46","54","32","0.830566","0.051208","-0.552856","-0.04364","0.007634","0.007634","0","8.809473","1.314722","3.631934","-0.145947","0.007178","-0.12561","0.059814","0.029907","-0.179443"
"S","1617446606.6700523","7","22","47","46","56","33","0.830505","0.051086","-0.552979","-0.043762","0","0.007634","-0.007634","8.81665","1.309937","3.629541","-0.139966","0.003589","-0.12561","0.061011","0.025122","-0.174658"
"S","1617446606.660221","7","20","45","46","54","32","0.830444","0.050964","-0.55304","-0.043762","0","0","-0.007634","8.823828","1.30874","3.624756","-0.133984","0.004785","-0.129199","0.066992","0.026318","-0.171069"
"S","1617446606.6501548","7","20","48","45","57","33","0.830383","0.050903","-0.553101","-0.043701","-0.007634","-0.007634","-0.007634","8.813062","1.301563","3.609204","-0.144751","0","-0.143555","0.076563","0.022729","-0.186621"
"S","1617446606.6402292","7","22","52","47","57","37","0.830444","0.050964","-0.55304","-0.04364","-0.015267","-0.015267","-0.007634","8.781958","1.29917","3.578101","-0.175854","-0.002393","-0.175854","0.094507","0.026318","-0.227295"
"S","1617446606.6301446","7","19","48","46","54","31","0.830505","0.051025","-0.552917","-0.043518","-0.015267","-0.007634","-0.007634","8.775976","1.296777","3.550586","-0.18064","-0.004785","-0.205762","0.119629","0.025122","-0.244043"
"S","1617446606.6200638","7","21","48","44","51","33","0.830566","0.051086","-0.552856","-0.043396","-0.007634","0","-0.007634","8.804688","1.272852","3.536231","-0.150732","-0.028711","-0.221313","0.144751","0","-0.226099"
"S","1617446606.610229","7","21","47","47","55","42","0.830566","0.051086","-0.552856","-0.043335","-0.007634","0.007634","-0.007634","8.836987","1.239355","3.532642","-0.118433","-0.061011","-0.224902","0.160303","-0.035889","-0.202173"
"S","1617446606.6001186","7","22","49","47","56","32","0.830566","0.051025","-0.552917","-0.043274","-0.007634","0.007634","-0.007634","8.866895","1.230981","3.551782","-0.089722","-0.068188","-0.204565","0.153125","-0.047852","-0.168677"
"S","1617446606.5903172","7","22","49","48","55","32","0.830505","0.051025","-0.552979","-0.043274","-0.007634","0.007634","-0.007634","8.877661","1.252515","3.582886","-0.080151","-0.046655","-0.172266","0.126807","-0.028711","-0.144751"
"S","1617446606.5802338","7","21","48","47","54","33","0.830444","0.051025","-0.55304","-0.043213","-0.007634","0","-0.007634","8.844165","1.274048","3.593652","-0.113647","-0.023926","-0.159106","0.101685","-0.002393","-0.16748"
"S","1617446606.5701015","7","22","48","48","57","23","0.830505","0.051086","-0.552979","-0.043213","-0.007634","-0.007634","0","8.80708","1.293188","3.616382","-0.150732","-0.005981","-0.13877","0.069385","0.017944","-0.191406"
"S","1617446606.5602636","7","22","47","47","56","33","0.830505","0.05127","-0.552917","-0.043213","-0.015267","-0.007634","0","8.76521","1.330273","3.630737","-0.191406","0.026318","-0.124414","0.040674","0.055029","-0.218921"
"S","1617446606.5501437","7","20","47","46","55","35","0.830566","0.051453","-0.552795","-0.043152","-0.022901","-0.007634","0","8.738892","1.379321","3.645093","-0.216528","0.07417","-0.112451","0.020337","0.105273","-0.230884"
"S","1617446606.5401988","7","20","49","45","55","32","0.830566","0.051697","-0.552795","-0.04303","-0.015267","0","0","8.736499","1.396069","3.647485","-0.217725","0.087329","-0.110059","0.017944","0.118433","-0.228491"
"S","1617446606.530425","7","22","52","48","56","32","0.830566","0.051819","-0.552856","-0.042969","-0.015267","0","0","8.75564","1.37334","3.643897","-0.19978","0.063403","-0.112451","0.027515","0.092114","-0.216528"
"S","1617446606.5201318","7","21","47","47","54","35","0.830505","0.051819","-0.552917","-0.042847","-0.007634","0","0","8.780762","1.330273","3.635522","-0.175854","0.021533","-0.118433","0.04187","0.047852","-0.202173"
"S","1617446606.5102458","7","19","49","44","56","37","0.830444","0.051758","-0.552979","-0.042847","0","0","-0.007634","8.805883","1.26687","3.622363","-0.150732","-0.039478","-0.130396","0.061011","-0.014355","-0.192603"
"S","1617446606.500317","7","21","47","45","55","31","0.830444","0.051697","-0.55304","-0.042847","0","0","-0.007634","8.809473","1.219019","3.621167","-0.14834","-0.086133","-0.131592","0.062207","-0.061011","-0.197388"
"S","1617446606.490131","7","22","49","49","54","33","0.830444","0.051636","-0.55304","-0.042847","-0.007634","0","-0.007634","8.804688","1.203467","3.624756","-0.153125","-0.100488","-0.128003","0.057422","-0.07417","-0.202173"
"S","1617446606.480364","7","21","48","46","58","33","0.830444","0.051636","-0.55304","-0.042786","-0.007634","0","-0.007634","8.80708","1.209448","3.653467","-0.150732","-0.094507","-0.099292","0.0323","-0.069385","-0.187817"
"S","1617446606.4702806","7","20","49","45","56","37","0.830444","0.051697","-0.553101","-0.042664","-0.015267","0","-0.007634","8.822632","1.229785","3.688159","-0.136377","-0.07417","-0.063403","0.004785","-0.052637","-0.15791"
"S","1617446606.4603117","7","21","47","49","57","32","0.830383","0.051758","-0.553101","-0.042542","-0.007634","-0.007634","-0.007634","8.823828","1.239355","3.703711","-0.133984","-0.063403","-0.046655","-0.008374","-0.043066","-0.14834"
"S","1617446606.4501755","7","21","47","46","56","33","0.830383","0.051819","-0.553101","-0.04248","-0.007634","-0.007634","-0.007634","8.813062","1.229785","3.702515","-0.144751","-0.072974","-0.047852","-0.011963","-0.05144","-0.160303"
"S","1617446606.440369","7","20","52","45","57","39","0.830444","0.05188","-0.55304","-0.04248","-0.007634","-0.007634","0","8.791529","1.246533","3.704907","-0.166284","-0.057422","-0.046655","-0.021533","-0.033496","-0.177051"
"S","1617446606.4303973","7","22","49","45","57","31","0.830444","0.052002","-0.552979","-0.04248","-0.007634","-0.007634","0","8.773584","1.26687","3.698926","-0.183032","-0.039478","-0.053833","-0.020337","-0.013159","-0.192603"
"S","1617446606.420268","7","22","47","44","56","31","0.830444","0.052124","-0.552979","-0.042419","-0.007634","-0.007634","0","8.775976","1.280029","3.689355","-0.18064","-0.027515","-0.063403","-0.010767","-0.001196","-0.192603"
"S","1617446606.4101613","7","22","48","45","56","35","0.830444","0.052185","-0.552979","-0.04248","-0.007634","-0.007634","0","8.791529","1.295581","3.670215","-0.165088","-0.013159","-0.081348","0.010767","0.010767","-0.183032"
"S","1617446606.4010105","7","22","48","48","55","35","0.830444","0.052307","-0.552979","-0.04248","-0.007634","0","0","8.814258","1.303955","3.669019","-0.142358","-0.007178","-0.082544","0.020337","0.014355","-0.161499"
"S","1617446606.399922","7","22","50","46","53","36","0.830444","0.052368","-0.55304","-0.042603","-0.007634","0","0","8.846558","1.321899","3.673804","-0.111255","0.007178","-0.077759","0.028711","0.023926","-0.130396"
"S","1617446606.398775","7","21","44","46","57","33","0.830383","0.052429","-0.55304","-0.042664","0","0","0","8.868091","1.33147","3.685767","-0.088525","0.015552","-0.0646","0.025122","0.028711","-0.102881"
"S","1617446606.3702292","7","22","49","46","57","33","0.830383","0.05249","-0.553101","-0.042786","0","0","0","8.872876","1.355396","3.7073","-0.084937","0.037085","-0.043066","0.007178","0.049048","-0.088525"
"S","1617446606.360404","7","22","48","47","54","37","0.830322","0.05249","-0.553101","-0.042847","0","-0.007634","0","8.854932","1.366162","3.727637","-0.101685","0.046655","-0.021533","-0.017944","0.059814","-0.094507"
"S","1617446606.350263","7","22","46","45","57","36","0.830383","0.05249","-0.55304","-0.042969","0","-0.007634","0","8.831006","1.374536","3.745581","-0.12561","0.053833","-0.004785","-0.043066","0.069385","-0.108862"
"S","1617446606.340396","7","16","47","45","54","35","0.830383","0.052368","-0.55304","-0.04303","0.007634","-0.007634","0","8.815454","1.374536","3.75874","-0.141162","0.055029","0.007178","-0.059814","0.071777","-0.118433"
"S","1617446606.3301797","7","19","48","46","54","33","0.830383","0.052307","-0.55304","-0.043152","0","0","0","8.809473","1.374536","3.768311","-0.147144","0.055029","0.016748","-0.070581","0.071777","-0.119629"
"S","1617446606.320192","7","20","47","46","56","33","0.830383","0.052185","-0.55304","-0.043152","0","0","-0.007634","8.801099","1.387695","3.782666","-0.155518","0.070581","0.029907","-0.086133","0.088525","-0.120825"
"S","1617446606.3103194","7","21","49","46","52","37","0.830383","0.052185","-0.553101","-0.043152","0","-0.007634","-0.007634","8.792725","1.409229","3.785058","-0.165088","0.090918","0.033496","-0.092114","0.110059","-0.12561"
"S","1617446606.3001387","7","22","49","47","52","33","0.830322","0.052124","-0.553101","-0.043091","0","-0.007634","-0.007634","8.777173","1.403247","3.757544","-0.179443","0.087329","0.007178","-0.07417","0.108862","-0.149536"
"S","1617446606.290465","7","19","48","47","51","33","0.830322","0.052002","-0.553162","-0.043091","0","0","-0.007634","8.778369","1.37334","3.719263","-0.179443","0.059814","-0.029907","-0.039478","0.082544","-0.166284"
"S","1617446606.2803822","7","21","47","48","57","33","0.830261","0.051758","-0.553284","-0.04303","0.007634","0.007634","-0.007634","8.802295","1.336255","3.68457","-0.156714","0.026318","-0.062207","-0.001196","0.047852","-0.162695"
"S","1617446606.270369","7","22","48","48","56","32","0.830139","0.051575","-0.553467","-0.04303","0.007634","0.007634","-0.007634","8.836987","1.307544","3.655859","-0.124414","0.001196","-0.087329","0.0323","0.020337","-0.145947"
"S","1617446606.260381","7","22","49","46","57","35","0.830078","0.051392","-0.553589","-0.04303","0.007634","0.007634","-0.007634","8.857325","1.281226","3.637915","-0.105273","-0.021533","-0.102881","0.053833","-0.003589","-0.137573"
"S","1617446606.2504156","7","20","49","45","55","35","0.829956","0.051208","-0.553772","-0.04303","0.007634","0.007634","-0.015267","8.868091","1.252515","3.628345","-0.096899","-0.046655","-0.108862","0.062207","-0.028711","-0.135181"
"S","1617446606.2407465","7","22","49","48","52","35","0.829895","0.050964","-0.553894","-0.04303","0.007634","0.007634","-0.015267","8.870483","1.225","3.63313","-0.095703","-0.070581","-0.101685","0.056226","-0.053833","-0.135181"
"S","1617446606.230235","7","21","49","46","54","33","0.829834","0.050781","-0.554016","-0.04303","0.007634","0.007634","-0.015267","8.852539","1.207056","3.634326","-0.114844","-0.086133","-0.098096","0.044263","-0.066992","-0.153125"
"S","1617446606.220554","7","22","49","48","57","37","0.829773","0.050598","-0.554138","-0.04303","0","0.007634","-0.007634","8.833399","1.207056","3.637915","-0.135181","-0.082544","-0.093311","0.0323","-0.061011","-0.169873"
"S","1617446606.2102456","7","19","48","46","54","35","0.829712","0.050476","-0.554199","-0.04303","0","0","-0.007634","8.798706","1.21543","3.648682","-0.171069","-0.071777","-0.080151","0.007178","-0.045459","-0.196191"
"S","1617446606.200262","7","22","51","48","57","35","0.829712","0.050476","-0.55426","-0.04303","-0.007634","0","-0.007634","8.761621","1.241748","3.6427","-0.209351","-0.045459","-0.086133","0","-0.014355","-0.229687"
"S","1617446606.1906164","7","20","47","46","49","36","0.829651","0.050598","-0.55426","-0.04303","-0.015267","-0.007634","-0.007634","8.734106","1.284814","3.630737","-0.235669","-0.004785","-0.096899","0","0.028711","-0.252417"
"S","1617446606.1810212","7","22","51","46","57","33","0.829651","0.05072","-0.554321","-0.042847","-0.015267","0","-0.007634","8.731714","1.317114","3.602026","-0.239258","0.026318","-0.124414","0.023926","0.061011","-0.261987"
"S","1617446606.170257","7","20","49","47","56","36","0.82959","0.05072","-0.554443","-0.042664","-0.007634","0.007634","-0.007634","8.75564","1.302759","3.561352","-0.216528","0.014355","-0.162695","0.066992","0.046655","-0.257202"
"S","1617446606.1604917","7","21","49","46","55","35","0.829468","0.050659","-0.554626","-0.042542","0","0.015267","-0.015267","8.790332","1.24773","3.511108","-0.184229","-0.038281","-0.209351","0.122021","-0.005981","-0.252417"
"S","1617446606.1502793","7","22","48","46","57","35","0.829285","0.050415","-0.554871","-0.04248","0.007634","0.015267","-0.015267","8.840576","1.191504","3.470435","-0.135181","-0.089722","-0.244043","0.172266","-0.062207","-0.227295"
"S","1617446606.1410513","7","21","50","46","51","31","0.829163","0.050232","-0.555176","-0.042419","0.007634","0.015267","-0.015267","8.880054","1.15083","3.440527","-0.100488","-0.126807","-0.269165","0.208154","-0.102881","-0.209351"
"S","1617446606.131147","7","21","51","47","56","36","0.829041","0.050049","-0.555359","-0.042419","0.007634","0.007634","-0.007634","8.878858","1.131689","3.405835","-0.102881","-0.142358","-0.300269","0.235669","-0.117236","-0.226099"
"S","1617446606.1202836","7","22","51","47","57","32","0.828979","0.049927","-0.55542","-0.04248","0","0.007634","-0.007634","8.868091","1.134082","3.398657","-0.113647","-0.13877","-0.305054","0.236865","-0.111255","-0.236865"
"S","1617446606.111017","7","9","49","49","57","36","0.828979","0.049927","-0.555359","-0.042542","0","0","0","8.846558","1.162793","3.422583","-0.135181","-0.111255","-0.282324","0.208154","-0.082544","-0.244043"
"S","1617446606.1010284","7","19","51","50","56","33","0.829102","0.050049","-0.555237","-0.042603","-0.007634","-0.007634","0","8.798706","1.21543","3.456079","-0.181836","-0.061011","-0.252417","0.162695","-0.027515","-0.269165"
"S","1617446606.091048","7","21","48","48","56","32","0.829163","0.05011","-0.555054","-0.042664","-0.007634","-0.007634","0","8.758032","1.263281","3.491968","-0.220117","-0.014355","-0.218921","0.118433","0.020337","-0.285913"
"S","1617446606.0802352","7","21","47","46","54","36","0.829285","0.050171","-0.554932","-0.042664","-0.007634","-0.007634","0","8.743677","1.295581","3.536231","-0.233276","0.015552","-0.178247","0.075366","0.050244","-0.278735"
"S","1617446606.0711389","7","21","50","45","55","33","0.829346","0.050171","-0.554871","-0.042664","0","-0.007634","0","8.746069","1.294385","3.569726","-0.230884","0.014355","-0.145947","0.046655","0.047852","-0.26438"
"S","1617446606.060465","7","22","49","45","57","31","0.829346","0.05011","-0.55481","-0.042725","0","-0.007634","0","8.747266","1.290796","3.596045","-0.228491","0.010767","-0.120825","0.023926","0.043066","-0.253613"
"S","1617446606.051202","7","21","48","47","56","32","0.829407","0.05011","-0.554749","-0.042725","-0.007634","-0.007634","0","8.74248","1.297974","3.619971","-0.233276","0.017944","-0.098096","0.001196","0.050244","-0.247632"
"S","1617446606.0412416","7","20","49","47","57","33","0.829468","0.05011","-0.554626","-0.042664","-0.007634","-0.015267","-0.007634","8.731714","1.297974","3.627148","-0.242847","0.019141","-0.093311","-0.005981","0.052637","-0.25481"
"S","1617446606.0312142","7","21","49","48","54","29","0.829529","0.05011","-0.554504","-0.042603","0","-0.015267","-0.007634","8.722143","1.271655","3.621167","-0.251221","-0.005981","-0.101685","-0.001196","0.028711","-0.269165"
"S","1617446606.0211308","7","21","47","46","25","36","0.829651","0.049988","-0.554382","-0.042603","0","-0.015267","-0.007634","8.714966","1.230981","3.594849","-0.257202","-0.044263","-0.131592","0.022729","-0.005981","-0.290698"
"S","1617446606.0111034","7","21","47","46","56","37","0.829773","0.049927","-0.554199","-0.042603","0","-0.015267","-0.007634","8.735303","1.204663","3.560156","-0.235669","-0.069385","-0.169873","0.065796","-0.0323","-0.288306"
"S","1617446606.001199","7","22","49","47","57","35","0.829834","0.049866","-0.554138","-0.042664","0","-0.007634","-0.007634","8.773584","1.205859","3.543408","-0.197388","-0.068188","-0.189014","0.098096","-0.035889","-0.260791"
"S","1617446605.9911082","7","23","47","47","57","36","0.829834","0.049744","-0.554077","-0.042664","0.007634","0","-0.007634","8.791529","1.21543","3.536231","-0.178247","-0.056226","-0.196191","0.111255","-0.026318","-0.244043"
"S","1617446605.9812288","7","21","49","46","55","35","0.829834","0.049622","-0.554138","-0.042786","0","0","-0.007634","8.813062","1.230981","3.54939","-0.15791","-0.040674","-0.183032","0.107666","-0.013159","-0.218921"
"S","1617446605.971243","7","21","49","46","55","36","0.829834","0.049622","-0.554138","-0.042786","-0.007634","0","0","8.813062","1.272852","3.582886","-0.15791","0","-0.149536","0.077759","0.023926","-0.200977"
"S","1617446605.9609687","7","21","48","48","57","37","0.829895","0.049683","-0.554077","-0.042786","-0.015267","-0.007634","0","8.779566","1.309937","3.611597","-0.19021","0.037085","-0.122021","0.039478","0.0646","-0.215332"
"S","1617446605.950998","7","21","48","46","52","33","0.829956","0.049866","-0.553955","-0.042725","-0.015267","-0.015267","0","8.761621","1.325488","3.634326","-0.206958","0.050244","-0.101685","0.014355","0.078955","-0.221313"
"S","1617446605.94105","7","20","49","47","57","33","0.830078","0.050049","-0.553772","-0.042603","-0.015267","-0.022901","0","8.75205","1.333862","3.634326","-0.215332","0.056226","-0.105273","0.015552","0.086133","-0.229687"
"S","1617446605.9311898","7","22","49","47","54","36","0.8302","0.050171","-0.553528","-0.042542","-0.015267","-0.022901","0","8.762817","1.306348","3.627148","-0.202173","0.027515","-0.117236","0.031104","0.056226","-0.226099"
"S","1617446605.9212255","7","22","49","47","55","36","0.830383","0.050293","-0.553284","-0.04248","-0.007634","-0.015267","0","8.811865","1.269263","3.624756","-0.150732","-0.00957","-0.124414","0.056226","0.013159","-0.186621"
"S","1617446605.9111447","7","22","49","48","56","35","0.830444","0.050232","-0.553162","-0.04248","0.007634","-0.007634","-0.007634","8.888428","1.204663","3.623559","-0.072974","-0.072974","-0.128003","0.088525","-0.057422","-0.124414"
"S","1617446605.901106","7","21","47","46","56","35","0.830505","0.050049","-0.553101","-0.042542","0.015267","-0.007634","-0.007634","8.943457","1.148438","3.630737","-0.017944","-0.126807","-0.123218","0.104077","-0.118433","-0.078955"
"S","1617446605.891192","7","22","51","46","57","35","0.830566","0.049866","-0.55304","-0.042664","0.007634","-0.007634","-0.007634","8.981738","1.144849","3.670215","0.020337","-0.129199","-0.086133","0.084937","-0.126807","-0.031104"
"S","1617446605.8811967","7","22","45","48","56","32","0.830627","0.049805","-0.552856","-0.042786","0","-0.015267","-0.007634","8.964991","1.197485","3.731225","0.005981","-0.076563","-0.027515","0.026318","-0.075366","-0.014355"
"S","1617446605.871104","7","22","48","48","57","32","0.830811","0.049866","-0.552673","-0.042847","-0.007634","-0.022901","0","8.902783","1.26687","3.787451","-0.053833","-0.008374","0.022729","-0.040674","-0.001196","-0.040674"
"S","1617446605.8612075","7","22","49","46","57","36","0.830994","0.05011","-0.552368","-0.042908","-0.015267","-0.030534","0.007634","8.846558","1.347021","3.847266","-0.107666","0.065796","0.075366","-0.108862","0.075366","-0.059814"
"S","1617446605.851242","7","21","51","48","56","35","0.831177","0.050415","-0.552063","-0.042908","-0.015267","-0.030534","0.007634","8.801099","1.419995","3.892725","-0.149536","0.133984","0.114844","-0.161499","0.147144","-0.07417"
"S","1617446605.8411136","7","22","51","49","55","36","0.83136","0.050659","-0.551758","-0.042908","-0.015267","-0.022901","0.007634","8.76521","1.45708","3.909473","-0.181836","0.16748","0.12561","-0.183032","0.184229","-0.094507"
"S","1617446605.8312483","7","22","50","48","56","33","0.831421","0.050781","-0.551636","-0.042908","-0.007634","-0.015267","0.007634","8.778369","1.477417","3.90708","-0.16748","0.185425","0.122021","-0.173462","0.19978","-0.080151"
"S","1617446605.8210332","7","22","48","49","57","37","0.831421","0.050781","-0.551575","-0.042969","0","0","0","8.826221","1.461865","3.893921","-0.118433","0.168677","0.107666","-0.142358","0.178247","-0.044263"
"S","1617446605.8110929","7","17","47","45","56","31","0.83136","0.050659","-0.551697","-0.04303","0.007634","0.007634","-0.007634","8.894409","1.417603","3.87478","-0.05144","0.126807","0.090918","-0.101685","0.128003","0.004785"
"S","1617446605.80133","7","21","51","48","57","37","0.831299","0.050415","-0.55188","-0.04303","0.007634","0.007634","-0.007634","8.924316","1.375732","3.862817","-0.025122","0.088525","0.081348","-0.082544","0.087329","0.019141"
"S","1617446605.7910905","7","19","48","45","60","36","0.831177","0.050171","-0.552002","-0.043091","0.007634","0","-0.007634","8.907568","1.356592","3.835303","-0.04187","0.072974","0.057422","-0.066992","0.075366","-0.005981"
"S","1617446605.781171","7","21","47","46","57","35","0.831116","0.049927","-0.552124","-0.043091","0","0","-0.007634","8.876465","1.337451","3.810181","-0.075366","0.057422","0.033496","-0.058618","0.0646","-0.047852"
"S","1617446605.7712235","7","22","47","46","56","33","0.831116","0.049866","-0.552185","-0.04303","-0.007634","-0.007634","-0.007634","8.840576","1.339844","3.78147","-0.111255","0.061011","0.005981","-0.046655","0.07417","-0.090918"
"S","1617446605.7614288","7","20","47","45","55","37","0.831116","0.049927","-0.552185","-0.042847","-0.015267","-0.007634","-0.007634","8.801099","1.36377","3.745581","-0.151929","0.086133","-0.028711","-0.029907","0.105273","-0.137573"
"S","1617446605.7511685","7","18","42","47","55","33","0.831055","0.049988","-0.552246","-0.042664","-0.015267","0","-0.007634","8.786743","1.379321","3.7073","-0.166284","0.102881","-0.0646","-0.002393","0.124414","-0.162695"
"S","1617446605.741225","7","21","49","45","56","32","0.830994","0.050049","-0.552368","-0.042419","-0.015267","0.007634","-0.007634","8.80708","1.378125","3.669019","-0.147144","0.102881","-0.100488","0.037085","0.123218","-0.159106"
"S","1617446605.731183","7","49","48","45","56","33","0.830872","0.049927","-0.552612","-0.042175","0","0.015267","-0.015267","8.822632","1.336255","3.640308","-0.135181","0.065796","-0.124414","0.063403","0.086133","-0.162695"
"S","1617446605.7214162","7","22","48","47","57","33","0.830688","0.049683","-0.552856","-0.042114","0.007634","0.015267","-0.007634","8.838183","1.259692","3.6104","-0.122021","-0.004785","-0.149536","0.089722","0.015552","-0.168677"
"S","1617446605.711086","7","21","49","47","56","33","0.830566","0.049377","-0.553101","-0.042175","0.007634","0.015267","-0.007634","8.838183","1.213037","3.587671","-0.124414","-0.047852","-0.16748","0.105273","-0.025122","-0.183032"
"S","1617446605.7011714","7","22","46","45","56","33","0.830444","0.049255","-0.553284","-0.042236","0","0.007634","-0.007634","8.805883","1.227393","3.590064","-0.15791","-0.0323","-0.161499","0.087329","-0.005981","-0.209351"
"S","1617446605.6911988","7","22","47","46","57","38","0.830444","0.049133","-0.553345","-0.042236","-0.007634","0","-0.007634","8.753247","1.252515","3.590064","-0.211743","-0.004785","-0.161499","0.066992","0.026318","-0.256006"
"S","1617446605.6813066","7","20","49","82","55","36","0.830383","0.049072","-0.553406","-0.042114","-0.007634","0","-0.015267","8.724536","1.256104","3.576904","-0.24165","0","-0.172266","0.065796","0.035889","-0.285913"
"S","1617446605.671379","7","22","49","47","55","33","0.830322","0.049011","-0.553528","-0.041931","-0.007634","0.007634","-0.015267","8.718554","1.233374","3.566138","-0.248828","-0.019141","-0.18064","0.070581","0.017944","-0.299072"
"S","1617446605.6613348","7","20","47","46","55","36","0.830261","0.048889","-0.55365","-0.041809","-0.007634","0.007634","-0.015267","8.738892","1.198682","3.551782","-0.229687","-0.050244","-0.192603","0.088525","-0.014355","-0.289502"
"S","1617446605.6514137","7","22","48","49","56","39","0.830139","0.048889","-0.553833","-0.041687","-0.015267","0.007634","-0.015267","8.758032","1.190308","3.551782","-0.212939","-0.057422","-0.189014","0.092114","-0.023926","-0.27395"
"S","1617446605.6413405","7","20","49","47","56","35","0.830078","0.049011","-0.553894","-0.041504","-0.022901","0","-0.015267","8.756836","1.204663","3.545801","-0.214136","-0.043066","-0.192603","0.094507","-0.008374","-0.27395"
"S","1617446605.6313424","7","21","45","45","54","36","0.830078","0.049133","-0.553955","-0.04126","-0.015267","0","-0.015267","8.74248","1.195093","3.521875","-0.229687","-0.05144","-0.215332","0.110059","-0.014355","-0.297876"
"S","1617446605.6212888","7","21","49","47","57","4","0.830017","0.049133","-0.554016","-0.041016","-0.007634","0.007634","-0.015267","8.77478","1.158008","3.493164","-0.198584","-0.086133","-0.242847","0.145947","-0.05144","-0.284717"
"S","1617446605.611403","7","22","48","47","54","35","0.829956","0.049011","-0.554199","-0.040894","0.007634","0.015267","-0.015267","8.828613","1.093408","3.46206","-0.147144","-0.147144","-0.270361","0.191406","-0.117236","-0.256006"
"S","1617446605.6013422","7","21","47","46","28","35","0.829834","0.048767","-0.554321","-0.040894","0.007634","0.015267","-0.015267","8.860913","1.058716","3.448901","-0.114844","-0.178247","-0.281128","0.212939","-0.151929","-0.234473"
"S","1617446605.5913062","7","37","49","46","57","36","0.829773","0.048645","-0.554443","-0.040894","0","0.007634","-0.007634","8.856128","1.075464","3.468042","-0.122021","-0.159106","-0.259595","0.19021","-0.132788","-0.229687"
"S","1617446605.5812943","7","22","48","45","57","36","0.829773","0.048706","-0.554443","-0.040955","-0.007634","0","-0.007634","8.805883","1.125708","3.503931","-0.171069","-0.111255","-0.223706","0.13877","-0.081348","-0.25481"
"S","1617446605.571322","7","20","49","49","53","38","0.829895","0.048828","-0.55426","-0.040955","-0.015267","-0.007634","0","8.750854","1.186719","3.566138","-0.224902","-0.05144","-0.165088","0.065796","-0.016748","-0.275146"
"S","1617446605.5613196","7","20","49","50","56","38","0.829956","0.04895","-0.554138","-0.040955","-0.007634","-0.007634","0","8.725733","1.233374","3.637915","-0.248828","-0.007178","-0.095703","-0.005981","0.026318","-0.26438"
"S","1617446605.5514104","7","21","48","48","57","36","0.830017","0.049072","-0.554016","-0.040955","0","-0.007634","0","8.71377","1.248926","3.686963","-0.259595","0.004785","-0.049048","-0.053833","0.037085","-0.25481"
"S","1617446605.54128","7","22","47","48","55","35","0.830078","0.049011","-0.554016","-0.040955","0","-0.007634","0","8.714966","1.245337","3.704907","-0.258398","0.002393","-0.0323","-0.068188","0.034692","-0.247632"
"S","1617446605.5314767","7","20","48","45","57","32","0.830078","0.04895","-0.553955","-0.041016","0","-0.007634","0","8.720947","1.239355","3.714478","-0.251221","-0.001196","-0.022729","-0.07417","0.029907","-0.238062"
"S","1617446605.521181","7","22","49","46","54","34","0.830078","0.048889","-0.553955","-0.041077","0","-0.007634","0","8.722143","1.239355","3.715674","-0.250024","-0.001196","-0.021533","-0.075366","0.029907","-0.236865"
"S","1617446605.5112362","7","21","48","45","57","39","0.830078","0.048889","-0.553955","-0.041138","-0.007634","-0.007634","-0.007634","8.726929","1.250122","3.701318","-0.245239","0.007178","-0.035889","-0.059814","0.038281","-0.236865"
"S","1617446605.501529","7","21","48","46","57","39","0.830078","0.048889","-0.554016","-0.041077","-0.007634","0","-0.007634","8.760425","1.258496","3.680981","-0.212939","0.016748","-0.056226","-0.028711","0.044263","-0.214136"
"S","1617446605.491171","7","19","49","49","57","37","0.830017","0.048889","-0.554077","-0.041016","-0.007634","0","-0.007634","8.790332","1.264477","3.657056","-0.184229","0.022729","-0.077759","0.001196","0.046655","-0.194995"
"S","1617446605.481219","7","22","51","48","57","35","0.829956","0.048889","-0.554138","-0.040894","0","0","-0.007634","8.804688","1.240552","3.616382","-0.169873","0","-0.117236","0.043066","0.023926","-0.19978"
"S","1617446605.4712768","7","22","51","48","54","32","0.829895","0.048767","-0.55426","-0.040833","0.007634","0.007634","-0.007634","8.838183","1.195093","3.579297","-0.137573","-0.040674","-0.151929","0.086133","-0.017944","-0.187817"
"S","1617446605.4611986","7","22","52","49","57","37","0.829834","0.048523","-0.554321","-0.040894","0.007634","0.007634","-0.007634","8.875269","1.14126","3.545801","-0.101685","-0.092114","-0.184229","0.129199","-0.071777","-0.174658"
"S","1617446605.451651","7","21","49","46","56","37","0.829773","0.04834","-0.554443","-0.040955","0.007634","0.007634","-0.007634","8.901587","1.106567","3.532642","-0.076563","-0.124414","-0.194995","0.14834","-0.10647","-0.159106"
"S","1617446605.4414637","7","22","49","47","55","33","0.829712","0.048218","-0.554565","-0.041077","0","0.007634","-0.007634","8.909961","1.105371","3.532642","-0.069385","-0.124414","-0.192603","0.149536","-0.107666","-0.151929"
"S","1617446605.4313126","7","21","51","46","56","35","0.829712","0.048279","-0.554565","-0.041138","-0.007634","0","0","8.900391","1.135278","3.543408","-0.078955","-0.096899","-0.181836","0.136377","-0.080151","-0.153125"
"S","1617446605.4213266","7","22","52","47","57","36","0.829773","0.048401","-0.554504","-0.041077","-0.015267","-0.007634","0","8.874072","1.166382","3.564941","-0.104077","-0.066992","-0.162695","0.108862","-0.047852","-0.165088"
"S","1617446605.4120934","7","19","51","46","54","32","0.829834","0.048584","-0.554382","-0.041016","-0.022901","-0.007634","0","8.853735","1.190308","3.588867","-0.123218","-0.045459","-0.139966","0.081348","-0.025122","-0.171069"
"S","1617446605.401265","7","21","49","47","57","33","0.829895","0.048828","-0.55426","-0.040894","-0.015267","-0.007634","0","8.821436","1.202271","3.587671","-0.154321","-0.035889","-0.143555","0.072974","-0.010767","-0.19978"
"S","1617446605.3911476","7","21","49","45","55","33","0.829895","0.04895","-0.55426","-0.040771","-0.007634","0","0","8.845362","1.190308","3.576904","-0.130396","-0.047852","-0.154321","0.090918","-0.025122","-0.184229"
"S","1617446604.8721845","7","20","48","46","55","29","0.832397","0.052856","-0.550049","-0.041077","0.015267","0.030534","0","8.943457","1.165186","3.68457","0.011963","-0.139966","-0.129199","0.122021","-0.133984","-0.057422"
"S","1617446604.8620665","7","21","51","49","55","33","0.832214","0.052673","-0.550415","-0.041382","0.007634","0.022901","0","8.98772","1.189111","3.686963","0.05144","-0.11604","-0.120825","0.129199","-0.11604","-0.014355"
"S","1617446604.8521063","7","22","47","44","55","33","0.832031","0.052734","-0.550659","-0.041565","-0.007634","0.007634","0.007634","9.010449","1.26687","3.725244","0.072974","-0.040674","-0.076563","0.098096","-0.045459","0.031104"
"S","1617446604.842409","7","16","50","44","56","37","0.83197","0.052917","-0.55072","-0.041748","-0.007634","-0.007634","0.007634","8.950635","1.339844","3.7396","0.013159","0.025122","-0.061011","0.061011","0.025122","-0.007178"
"S","1617446604.832431","7","22","49","46","55","-2","0.832031","0.053101","-0.550598","-0.041931","-0.007634","-0.015267","0.007634","8.899195","1.387695","3.738403","-0.035889","0.068188","-0.063403","0.044263","0.07417","-0.047852"
"S","1617446604.8220615","7","21","51","47","59","32","0.832092","0.053223","-0.550476","-0.042175","0","-0.007634","0.007634","8.876465","1.443921","3.747974","-0.056226","0.120825","-0.056226","0.031104","0.129199","-0.056226"
"S","1617446604.812371","7","22","53","50","57","36","0.832153","0.053223","-0.550354","-0.042358","0.007634","-0.007634","0.007634","8.865698","1.484595","3.759937","-0.065796","0.159106","-0.047852","0.019141","0.16748","-0.056226"
"S","1617446604.8024807","7","22","46","48","56","35","0.832153","0.053101","-0.550293","-0.042603","0.015267","-0.007634","0.007634","8.870483","1.52168","3.767114","-0.059814","0.194995","-0.040674","0.015552","0.202173","-0.043066"
"S","1617446604.7921183","7","21","47","44","56","33","0.832214","0.052917","-0.550293","-0.042847","0.015267","0","0.007634","8.853735","1.542017","3.765918","-0.077759","0.216528","-0.044263","0.013159","0.226099","-0.058618"
"S","1617446604.7822838","7","21","49","48","55","36","0.832153","0.052734","-0.550293","-0.043152","0.015267","0","0.007634","8.847754","1.55398","3.756348","-0.082544","0.227295","-0.052637","0.019141","0.236865","-0.0646"
"S","1617446604.772144","7","20","48","46","54","33","0.832153","0.052612","-0.550354","-0.043396","0","0.007634","0.007634","8.862109","1.587476","3.753955","-0.069385","0.260791","-0.055029","0.026318","0.269165","-0.049048"
"S","1617446604.7621882","7","21","48","46","52","36","0.832092","0.052551","-0.550476","-0.043518","-0.007634","0","0","8.859716","1.632935","3.763525","-0.072974","0.30625","-0.043066","0.015552","0.314624","-0.040674"
"S","1617446604.7521377","7","20","48","46","53","32","0.832031","0.052551","-0.550476","-0.043457","-0.015267","-0.007634","0","8.805883","1.671216","3.750366","-0.12561","0.344531","-0.055029","0.005981","0.358887","-0.088525"
"S","1617446604.742186","7","21","45","45","56","35","0.832092","0.052612","-0.550415","-0.043396","-0.015267","-0.007634","0","8.75205","1.667627","3.71687","-0.179443","0.340942","-0.089722","0.016748","0.363672","-0.151929"
"S","1617446604.7324016","7","21","47","44","53","37","0.832092","0.052612","-0.550415","-0.043213","-0.015267","-0.007634","-0.007634","8.729321","1.653271","3.694141","-0.202173","0.328979","-0.112451","0.028711","0.356494","-0.183032"
"S","1617446604.7222254","7","19","49","49","55","35","0.832092","0.052612","-0.550415","-0.042908","-0.015267","0","-0.015267","8.71018","1.644897","3.66543","-0.221313","0.322998","-0.141162","0.047852","0.354102","-0.212939"
"S","1617446604.71234","7","21","52","48","56","33","0.832092","0.052612","-0.550476","-0.042542","-0.022901","0","-0.015267","8.71377","1.626953","3.648682","-0.218921","0.309839","-0.156714","0.062207","0.340942","-0.217725"
"S","1617446604.7023785","7","20","49","47","56","34","0.832092","0.052551","-0.550537","-0.042114","-0.022901","0","-0.022901","8.694629","1.609009","3.630737","-0.240454","0.29668","-0.173462","0.069385","0.331372","-0.246436"
"S","1617446604.692317","7","22","47","48","57","36","0.832031","0.052429","-0.550598","-0.041626","-0.015267","0","-0.022901","8.680273","1.547998","3.599634","-0.25481","0.242847","-0.203369","0.089722","0.281128","-0.278735"
"S","1617446604.6826012","7","22","51","50","56","33","0.832031","0.052185","-0.55072","-0.041138","-0.007634","0.007634","-0.030534","8.689844","1.458276","3.566138","-0.248828","0.162695","-0.235669","0.120825","0.202173","-0.29668"
"S","1617446604.6721864","7","21","49","43","53","32","0.83197","0.051819","-0.550903","-0.040649","-0.007634","0.015267","-0.038168","8.711377","1.355396","3.529053","-0.229687","0.070581","-0.269165","0.15791","0.108862","-0.303857"
"S","1617446604.6622064","7","22","49","48","55","29","0.831848","0.051453","-0.551147","-0.040161","-0.007634","0.015267","-0.038168","8.749659","1.278833","3.513501","-0.194995","0.005981","-0.279932","0.181836","0.040674","-0.284717"
"S","1617446604.6523857","7","20","53","47","51","36","0.831726","0.051147","-0.551331","-0.039673","-0.007634","0.007634","-0.030534","8.759229","1.204663","3.499146","-0.187817","-0.057422","-0.290698","0.193799","-0.021533","-0.290698"
"S","1617446604.6423476","7","22","49","47","56","32","0.831665","0.050903","-0.551514","-0.039246","-0.015267","0.007634","-0.030534","8.773584","1.131689","3.49436","-0.177051","-0.122021","-0.291895","0.198584","-0.087329","-0.289502"
"S","1617446604.632216","7","21","47","45","56","36","0.831604","0.050781","-0.551636","-0.038757","-0.022901","0.007634","-0.030534","8.791529","1.086231","3.512305","-0.160303","-0.160303","-0.271558","0.185425","-0.128003","-0.271558"
"S","1617446604.622255","7","22","49","46","52","33","0.831543","0.05072","-0.551758","-0.038269","-0.022901","0.007634","-0.030534","8.791529","1.046753","3.525464","-0.162695","-0.192603","-0.256006","0.171069","-0.160303","-0.271558"
"S","1617446604.6123192","7","21","47","46","56","32","0.831543","0.05072","-0.55188","-0.037781","-0.022901","0","-0.030534","8.76521","0.998901","3.530249","-0.191406","-0.235669","-0.250024","0.154321","-0.19978","-0.300269"
"S","1617446604.6023035","7","21","49","47","56","36","0.831543","0.050781","-0.55188","-0.037354","-0.022901","0","-0.030534","8.750854","0.978564","3.539819","-0.205762","-0.252417","-0.239258","0.13877","-0.215332","-0.311035"
"S","1617446604.5922148","7","21","49","46","57","33","0.831543","0.050964","-0.551819","-0.036926","-0.022901","-0.007634","-0.022901","8.73291","0.998901","3.554175","-0.223706","-0.230884","-0.224902","0.118433","-0.192603","-0.319409"
"S","1617446604.582976","7","21","49","47","57","31","0.831604","0.051147","-0.551758","-0.03656","-0.022901","-0.007634","-0.022901","8.725733","1.039575","3.574512","-0.230884","-0.189014","-0.205762","0.098096","-0.150732","-0.313428"
"S","1617446604.5729828","7","19","49","45","57","41","0.831665","0.051392","-0.551758","-0.036194","-0.022901","-0.007634","-0.015267","8.734106","1.061108","3.605615","-0.22251","-0.16748","-0.175854","0.07417","-0.131592","-0.291895"
"S","1617446604.562294","7","11","49","47","55","31","0.831665","0.051514","-0.551697","-0.035889","-0.015267","-0.007634","-0.015267","8.736499","1.053931","3.634326","-0.220117","-0.173462","-0.147144","0.049048","-0.13877","-0.278735"
"S","1617446604.5530634","7","21","47","48","56","37","0.831726","0.051453","-0.551636","-0.035645","-0.007634","0","-0.015267","8.762817","1.02522","3.669019","-0.193799","-0.198584","-0.113647","0.028711","-0.168677","-0.245239"
"S","1617446604.543043","7","22","49","48","56","35","0.831665","0.051392","-0.551697","-0.035461","0","0","-0.015267","8.803492","0.982153","3.71687","-0.153125","-0.238062","-0.0646","0","-0.215332","-0.193799"
"S","1617446604.5331347","7","22","48","42","57","30","0.831665","0.05127","-0.551758","-0.0354","0","0","-0.015267","8.834595","0.977368","3.761133","-0.123218","-0.240454","-0.019141","-0.029907","-0.22251","-0.149536"
"S","1617446604.523258","7","22","49","45","57","33","0.831604","0.051331","-0.551819","-0.0354","-0.007634","0","-0.007634","8.852539","1.010864","3.810181","-0.105273","-0.208154","0.029907","-0.068188","-0.194995","-0.110059"
"S","1617446604.5131133","7","21","51","46","57","36","0.831604","0.051514","-0.55188","-0.035278","-0.015267","0","-0.007634","8.847754","1.065894","3.848462","-0.111255","-0.154321","0.069385","-0.10647","-0.142358","-0.093311"
"S","1617446604.503063","7","19","49","45","57","33","0.831543","0.051758","-0.55188","-0.035217","-0.022901","-0.007634","0","8.844165","1.117334","3.877173","-0.113647","-0.10647","0.099292","-0.135181","-0.096899","-0.077759"
"S","1617446604.493184","7","22","51","46","56","35","0.831543","0.052002","-0.551941","-0.035095","-0.015267","-0.007634","0","8.833399","1.147241","3.871192","-0.12561","-0.078955","0.094507","-0.135181","-0.068188","-0.087329"
"S","1617446604.4823055","7","21","51","46","56","33","0.831482","0.052185","-0.551941","-0.035034","-0.015267","-0.007634","0","8.820239","1.147241","3.844873","-0.13877","-0.081348","0.069385","-0.117236","-0.066992","-0.110059"
"S","1617446604.4723363","7","20","48","47","57","36","0.831421","0.052368","-0.552063","-0.034973","-0.007634","0","0","8.844165","1.132886","3.799414","-0.11604","-0.098096","0.026318","-0.068188","-0.084937","-0.107666"
"S","1617446604.4622898","7","21","47","47","56","39","0.83136","0.052429","-0.552185","-0.034973","-0.007634","0.007634","0","8.890821","1.122119","3.767114","-0.070581","-0.110059","-0.002393","-0.025122","-0.100488","-0.078955"
"S","1617446604.4530363","7","22","53","49","56","36","0.831238","0.052429","-0.552307","-0.034973","0","0.015267","-0.007634","8.944654","1.104175","3.731225","-0.016748","-0.128003","-0.034692","0.025122","-0.123218","-0.044263"
"S","1617446604.442347","7","22","51","47","55","37","0.831055","0.052307","-0.552551","-0.035095","0.007634","0.015267","-0.007634","8.993701","1.086231","3.715674","0.028711","-0.144751","-0.045459","0.052637","-0.143555","-0.008374"
"S","1617446604.4330137","7","22","55","50","55","36","0.830933","0.052124","-0.552795","-0.035278","0.015267","0.015267","0","9.021215","1.079053","3.720459","0.053833","-0.151929","-0.035889","0.052637","-0.154321","0.015552"
"S","1617446604.422456","7","23","51","48","57","42","0.830872","0.051941","-0.552917","-0.035583","0.015267","0.007634","0","8.982935","1.100586","3.743188","0.014355","-0.130396","-0.011963","0.015552","-0.130396","-0.007178"
"S","1617446604.413001","7","21","51","46","54","33","0.830811","0.051819","-0.552917","-0.035889","0.015267","0","0","8.924316","1.178345","3.79104","-0.04187","-0.053833","0.035889","-0.049048","-0.049048","-0.031104"
"S","1617446604.4025035","7","22","49","48","56","35","0.830811","0.051758","-0.552917","-0.036194","0.007634","-0.007634","0.007634","8.842969","1.260889","3.81377","-0.123218","0.025122","0.058618","-0.100488","0.035889","-0.086133"
"S","1617446604.3931923","7","22","49","47","56","36","0.830872","0.051758","-0.552795","-0.036438","0.007634","-0.007634","0.007634","8.786743","1.345825","3.822144","-0.178247","0.107666","0.0646","-0.128003","0.124414","-0.124414"
"S","1617446604.3822062","7","22","41","44","56","33","0.830933","0.051819","-0.552795","-0.036682","0","-0.007634","0.007634","8.743677","1.418799","3.814966","-0.221313","0.177051","0.056226","-0.136377","0.198584","-0.15791"
"S","1617446604.3730571","7","20","49","45","52","31","0.830933","0.051819","-0.552734","-0.036804","0","-0.007634","0","8.704199","1.473828","3.782666","-0.259595","0.230884","0.022729","-0.119629","0.258398","-0.198584"
"S","1617446604.363231","7","22","49","48","56","35","0.830872","0.051758","-0.552795","-0.036804","0","0","0","8.707788","1.495361","3.724048","-0.256006","0.253613","-0.033496","-0.065796","0.282324","-0.214136"
"S","1617446604.3530784","7","22","51","45","56","35","0.83075","0.051636","-0.552979","-0.036804","0","0.007634","0","8.75205","1.488184","3.669019","-0.214136","0.247632","-0.08374","-0.003589","0.27395","-0.196191"
"S","1617446604.3430266","7","21","49","48","55","35","0.830627","0.051392","-0.553162","-0.036804","0.015267","0.015267","-0.007634","8.77478","1.435547","3.615185","-0.192603","0.19978","-0.133984","0.050244","0.226099","-0.202173"
"S","1617446604.3331292","7","22","50","48","57","35","0.830505","0.050964","-0.553406","-0.036804","0.015267","0.015267","-0.015267","8.783154","1.368555","3.563745","-0.187817","0.13877","-0.181836","0.095703","0.16748","-0.223706"
"S","1617446604.3229852","7","25","49","46","55","35","0.830444","0.050537","-0.553589","-0.036865","0.015267","0.007634","-0.015267","8.75564","1.330273","3.539819","-0.217725","0.107666","-0.203369","0.104077","0.139966","-0.263184"
"S","1617446604.3123136","7","22","52","47","57","36","0.830383","0.050171","-0.553711","-0.036865","0.007634","0.007634","-0.015267","8.741284","1.327881","3.538623","-0.233276","0.110059","-0.202173","0.096899","0.144751","-0.276343"
"S","1617446604.3030047","7","22","48","49","56","36","0.830322","0.049866","-0.553833","-0.036804","0.007634","0.007634","-0.015267","8.72334","1.330273","3.538623","-0.253613","0.118433","-0.19978","0.087329","0.154321","-0.293091"
"S","1617446604.2931376","7","22","51","48","57","37","0.830261","0.049622","-0.553894","-0.036743","0","0.007634","-0.015267","8.707788","1.326685","3.530249","-0.269165","0.119629","-0.206958","0.088525","0.15791","-0.309839"
"S","1617446604.283064","7","22","49","47","54","35","0.8302","0.049438","-0.554016","-0.036621","-0.007634","0","-0.015267","8.688647","1.329077","3.523071","-0.290698","0.126807","-0.211743","0.08374","0.16748","-0.331372"
"S","1617446604.2731087","7","22","49","46","57","33","0.8302","0.049255","-0.554077","-0.036377","-0.007634","0","-0.022901","8.674292","1.31831","3.511108","-0.30625","0.120825","-0.223706","0.089722","0.163892","-0.350513"
"S","1617446604.2630265","7","22","50","46","55","33","0.8302","0.049011","-0.554138","-0.036072","0","0","-0.022901","8.6719","1.275244","3.49436","-0.309839","0.084937","-0.239258","0.101685","0.129199","-0.363672"
"S","1617446604.2530386","7","22","51","48","57","37","0.830139","0.048706","-0.554199","-0.035889","0.007634","0","-0.015267","8.680273","1.208252","3.469238","-0.302661","0.025122","-0.263184","0.126807","0.069385","-0.374438"
"S","1617446604.2433274","7","22","47","45","57","35","0.830139","0.048401","-0.55426","-0.035706","0","0","-0.015267","8.683863","1.135278","3.429761","-0.300269","-0.039478","-0.301465","0.162695","0.005981","-0.394775"
"S","1617446604.2330875","7","19","49","47","55","35","0.830139","0.048218","-0.554321","-0.035583","-0.007634","0.007634","-0.015267","8.717359","1.101782","3.417798","-0.267969","-0.068188","-0.313428","0.185425","-0.023926","-0.372046"
"S","1617446604.2232718","7","22","48","47","57","33","0.830078","0.048218","-0.554382","-0.0354","-0.022901","0","-0.015267","8.750854","1.093408","3.408227","-0.234473","-0.075366","-0.321802","0.206958","-0.034692","-0.345728"
"S","1617446604.213135","7","19","51","49","56","9","0.830078","0.04834","-0.554382","-0.035095","-0.022901","-0.007634","-0.015267","8.747266","1.089819","3.398657","-0.238062","-0.077759","-0.330176","0.212939","-0.035889","-0.352905"
"S","1617446604.2031949","7","22","49","46","57","33","0.830139","0.048523","-0.554321","-0.034729","-0.022901","-0.007634","-0.015267","8.740088","1.074268","3.381909","-0.245239","-0.092114","-0.34812","0.226099","-0.049048","-0.367261"
"S","1617446604.1932108","7","21","47","47","55","36","0.8302","0.048706","-0.55426","-0.034363","-0.022901","0","-0.015267","8.781958","1.064697","3.380713","-0.203369","-0.100488","-0.350513","0.245239","-0.061011","-0.331372"
"S","1617446604.1832736","7","21","48","48","56","37","0.8302","0.048889","-0.55426","-0.034058","-0.030534","0.007634","-0.015267","8.826221","1.086231","3.390283","-0.159106","-0.078955","-0.340942","0.253613","-0.045459","-0.284717"
"S","1617446604.173089","7","22","49","47","55","36","0.830139","0.049133","-0.554321","-0.033691","-0.030534","0.007634","-0.015267","8.858521","1.107764","3.430957","-0.128003","-0.057422","-0.297876","0.224902","-0.028711","-0.236865"
"S","1617446604.1631558","7","21","49","48","57","37","0.830139","0.049377","-0.554382","-0.033386","-0.030534","0","-0.007634","8.877661","1.126904","3.480005","-0.110059","-0.038281","-0.247632","0.185425","-0.014355","-0.198584"
"S","1617446604.1531897","7","21","51","48","55","35","0.8302","0.049683","-0.55426","-0.033142","-0.030534","-0.015267","0","8.859716","1.138867","3.518286","-0.126807","-0.028711","-0.211743","0.145947","-0.004785","-0.19978"
"S","1617446604.1431818","7","21","48","46","56","33","0.830322","0.050171","-0.554016","-0.032898","-0.038168","-0.030534","0","8.817846","1.146045","3.533838","-0.165088","-0.027515","-0.19978","0.120825","0","-0.229687"
"S","1617446604.1332123","7","21","51","47","55","33","0.830566","0.050659","-0.55365","-0.032593","-0.038168","-0.030534","0","8.80708","1.167578","3.555371","-0.173462","-0.010767","-0.185425","0.104077","0.016748","-0.230884"
"S","1617446604.1233118","7","21","49","47","57","35","0.83075","0.051086","-0.553284","-0.032227","-0.030534","-0.022901","-0.007634","8.817846","1.144849","3.557764","-0.15791","-0.035889","-0.19021","0.113647","-0.008374","-0.221313"
"S","1617446604.1132662","7","22","49","47","57","35","0.830933","0.051331","-0.55304","-0.03186","-0.022901","-0.015267","-0.007634","8.864502","1.073071","3.552979","-0.110059","-0.107666","-0.19978","0.141162","-0.08374","-0.19021"
"S","1617446604.103424","7","21","46","48","57","37","0.830994","0.051453","-0.552979","-0.031677","-0.015267","0","-0.007634","8.960205","1.020435","3.576904","-0.014355","-0.160303","-0.177051","0.15791","-0.14834","-0.099292"
"S","1617446604.0931537","7","22","49","46","57","37","0.830994","0.051575","-0.552917","-0.031494","-0.015267","0","-0.007634","9.028394","1.013257","3.604419","0.053833","-0.16748","-0.149536","0.159106","-0.163892","-0.027515"
"S","1617446604.083177","7","21","50","47","56","33","0.831055","0.051819","-0.552917","-0.031433","-0.022901","0","-0.007634","9.064282","1.026416","3.655859","0.089722","-0.15791","-0.099292","0.126807","-0.160303","0.023926"
"S","1617446604.073217","7","20","48","45","57","36","0.831116","0.052063","-0.552795","-0.031311","-0.022901","-0.015267","0","9.053515","1.070679","3.736011","0.080151","-0.11604","-0.021533","0.05144","-0.122021","0.050244"
"S","1617446604.0631716","7","22","49","46","57","39","0.831238","0.05249","-0.552551","-0.031189","-0.030534","-0.022901","0","8.990112","1.122119","3.814966","0.019141","-0.070581","0.052637","-0.040674","-0.07417","0.028711"
"S","1617446604.0533023","7","21","50","48","57","39","0.831482","0.052917","-0.552124","-0.031067","-0.022901","-0.030534","0.007634","8.903979","1.168774","3.877173","-0.061011","-0.028711","0.10647","-0.120825","-0.026318","-0.017944"
"S","1617446604.0431538","7","19","51","47","56","36","0.831726","0.053284","-0.551758","-0.031006","-0.015267","-0.030534","0.007634","8.844165","1.198682","3.922632","-0.117236","-0.004785","0.144751","-0.178247","0","-0.05144"
"S","1617446604.0332725","7","21","48","47","57","36","0.831909","0.053528","-0.551453","-0.031006","-0.007634","-0.022901","0.007634","8.805883","1.207056","3.953735","-0.153125","0","0.169873","-0.215332","0.007178","-0.07417"
"S","1617446604.0232413","7","22","51","46","55","37","0.83197","0.053711","-0.55127","-0.031006","-0.007634","-0.015267","0","8.790332","1.205859","3.977661","-0.166284","-0.004785","0.19021","-0.239258","0.002393","-0.078955"
"S","1617446604.0132222","7","22","49","46","57","37","0.832031","0.053711","-0.55127","-0.031128","0","-0.007634","0","8.781958","1.185522","3.984839","-0.174658","-0.026318","0.197388","-0.248828","-0.016748","-0.086133"
"S","1617446604.0032666","7","22","48","47","53","36","0.83197","0.05365","-0.551331","-0.03125","0.007634","0.007634","0","8.785547","1.159204","3.982446","-0.171069","-0.052637","0.196191","-0.246436","-0.043066","-0.086133"
"S","1617446603.993344","7","22","48","47","56","35","0.831787","0.053528","-0.551575","-0.031372","0.007634","0.007634","0","8.783154","1.154419","3.974072","-0.175854","-0.056226","0.192603","-0.245239","-0.046655","-0.093311"
"S","1617446603.9832628","7","21","47","46","57","35","0.831604","0.053406","-0.55188","-0.031494","0.007634","0.015267","-0.007634","8.78435","1.154419","3.95852","-0.177051","-0.056226","0.183032","-0.236865","-0.045459","-0.098096"
"S","1617446603.9732232","7","21","47","46","56","33","0.83136","0.053223","-0.552246","-0.031555","0.007634","0.015267","-0.007634","8.768799","1.148438","3.935791","-0.196191","-0.059814","0.168677","-0.230884","-0.045459","-0.122021"
"S","1617446603.9634085","7","21","52","48","54","38","0.831177","0.053101","-0.552551","-0.031677","0.007634","0.015267","-0.007634","8.730517","1.159204","3.913062","-0.238062","-0.047852","0.151929","-0.230884","-0.028711","-0.165088"
"S","1617446603.9533567","7","21","49","48","57","35","0.830933","0.052979","-0.552917","-0.031738","0","0.015267","-0.007634","8.685059","1.174756","3.889136","-0.285913","-0.031104","0.136377","-0.235669","-0.005981","-0.212939"
"S","1617446603.9431634","7","22","48","48","55","36","0.83075","0.052917","-0.553223","-0.031738","0","0.015267","-0.007634","8.655151","1.193897","3.873584","-0.319409","-0.010767","0.126807","-0.239258","0.017944","-0.245239"
"S","1617446603.9334557","7","21","48","46","56","33","0.830566","0.052795","-0.553528","-0.031677","0","0.015267","-0.007634","8.640796","1.199878","3.854443","-0.337354","-0.002393","0.113647","-0.234473","0.028711","-0.265576"
"S","1617446603.9233818","7","22","51","46","54","36","0.830322","0.052612","-0.553894","-0.031677","0.007634","0.022901","-0.007634","8.673096","1.161597","3.820947","-0.307446","-0.038281","0.087329","-0.197388","-0.008374","-0.252417"
"S","1617446603.9131854","7","21","43","46","56","36","0.830017","0.052307","-0.554382","-0.031677","0.015267","0.022901","-0.015267","8.712573","1.114941","3.782666","-0.272754","-0.080151","0.059814","-0.159106","-0.05144","-0.236865"
"S","1617446603.9033692","7","22","51","47","57","36","0.829773","0.051941","-0.55481","-0.031799","0.015267","0.022901","-0.007634","8.743677","1.073071","3.736011","-0.246436","-0.117236","0.021533","-0.112451","-0.089722","-0.23208"
"S","1617446603.8932936","7","19","50","48","57","36","0.829468","0.051636","-0.555237","-0.031921","0.022901","0.022901","-0.007634","8.773584","1.061108","3.698926","-0.220117","-0.12561","-0.005981","-0.077759","-0.099292","-0.218921"
"S","1617446603.8833754","7","22","51","46","55","35","0.829224","0.05127","-0.555603","-0.032104","0.022901","0.022901","-0.007634","8.819043","1.061108","3.649878","-0.178247","-0.120825","-0.046655","-0.023926","-0.096899","-0.194995"
"S","1617446603.8732543","7","21","49","46","56","35","0.828979","0.050964","-0.55603","-0.032288","0.015267","0.022901","-0.015267","8.863306","1.079053","3.584082","-0.13877","-0.100488","-0.105273","0.044263","-0.078955","-0.178247"
"S","1617446603.863396","7","21","49","47","54","30","0.828735","0.050659","-0.556396","-0.03241","0.015267","0.015267","-0.007634","8.895605","1.105371","3.520679","-0.108862","-0.070581","-0.160303","0.10647","-0.050244","-0.168677"
"S","1617446603.8533194","7","21","48","48","56","37","0.828552","0.050354","-0.556641","-0.032593","0.015267","0.007634","0","8.889624","1.153223","3.436939","-0.117236","-0.019141","-0.239258","0.177051","0.004785","-0.19978"
"S","1617446603.8433628","7","22","51","47","54","31","0.828552","0.050232","-0.556702","-0.032837","0.007634","0","0","8.852539","1.225","3.366357","-0.155518","0.050244","-0.309839","0.227295","0.081348","-0.252417"
"S","1617446603.8333514","7","22","49","46","55","36","0.828552","0.050232","-0.556641","-0.03302","0","-0.007634","0.007634","8.832202","1.338647","3.319702","-0.174658","0.161499","-0.356494","0.263184","0.196191","-0.27395"
"S","1617446603.8232229","7","22","49","45","50","33","0.828613","0.050171","-0.55658","-0.033203","0.007634","0","0.007634","8.811865","1.419995","3.268262","-0.193799","0.242847","-0.410327","0.30625","0.281128","-0.302661"
"S","1617446603.8132646","7","21","48","48","55","38","0.828674","0.049988","-0.556519","-0.033386","0.015267","0","0.007634","8.810669","1.440332","3.22041","-0.194995","0.263184","-0.459375","0.350513","0.303857","-0.319409"
"S","1617446603.8033557","7","22","48","46","56","36","0.828674","0.049622","-0.556519","-0.033569","0.030534","0.007634","0","8.83938","1.411621","3.172559","-0.166284","0.239258","-0.508423","0.406738","0.278735","-0.314624"
"S","1617446603.7932725","7","21","49","47","57","33","0.828674","0.049072","-0.55658","-0.033813","0.038168","0.007634","0","8.890821","1.354199","3.147437","-0.11604","0.187817","-0.533545","0.449805","0.22251","-0.284717"
"S","1617446603.7834723","7","20","49","46","54","33","0.828674","0.048462","-0.55658","-0.034119","0.038168","0","-0.007634","8.908765","1.300366","3.117529","-0.098096","0.139966","-0.564648","0.485693","0.173462","-0.284717"
"S","1617446603.7734964","7","21","48","47","54","36","0.828796","0.047852","-0.556396","-0.034424","0.022901","-0.007634","-0.007634","8.913549","1.270459","3.101978","-0.092114","0.117236","-0.584985","0.50603","0.149536","-0.290698"
"S","1617446603.7634068","7","19","48","48","56","37","0.829041","0.047424","-0.556091","-0.034607","0.015267","-0.022901","-0.007634","8.896802","1.27644","3.10437","-0.10647","0.128003","-0.58977","0.504834","0.161499","-0.305054"
"S","1617446603.753655","7","21","48","46","57","33","0.829346","0.04718","-0.555664","-0.034668","0.007634","-0.030534","0","8.886035","1.291992","3.112744","-0.113647","0.147144","-0.590967","0.503638","0.181836","-0.309839"
"S","1617446603.7431526","7","22","49","46","57","33","0.829712","0.046997","-0.555115","-0.034729","0","-0.038168","0","8.871679","1.291992","3.128296","-0.123218","0.149536","-0.587378","0.49646","0.184229","-0.318213"
"S","1617446603.7334547","7","19","49","47","56","32","0.830139","0.046936","-0.554443","-0.034668","-0.007634","-0.038168","-0.007634","8.84895","1.281226","3.149829","-0.139966","0.139966","-0.5802","0.482104","0.177051","-0.332568"
"S","1617446603.7234333","7","44","49","45","57","35","0.830627","0.046875","-0.553772","-0.034546","-0.015267","-0.038168","-0.007634","8.845362","1.265674","3.204858","-0.137573","0.126807","-0.540723","0.446216","0.161499","-0.317017"
"S","1617446603.713305","7","20","45","46","55","33","0.831116","0.046814","-0.553101","-0.034241","-0.007634","-0.038168","-0.015267","8.860913","1.210644","3.277832","-0.117236","0.076563","-0.483301","0.400757","0.107666","-0.283521"
"S","1617446603.7039893","7","22","49","48","56","31","0.831543","0.046631","-0.55249","-0.033997","0","-0.030534","-0.022901","8.890821","1.107764","3.365161","-0.082544","-0.020337","-0.409131","0.344531","0.004785","-0.234473"
"S","1617446603.6940994","7","22","49","48","56","37","0.831909","0.046326","-0.551941","-0.033691","0.007634","-0.030534","-0.022901","8.929102","0.97019","3.471631","-0.039478","-0.149536","-0.314624","0.272754","-0.131592","-0.174658"
"S","1617446603.6833467","7","21","49","47","54","36","0.832214","0.046021","-0.551514","-0.033569","0.007634","-0.022901","-0.022901","8.967382","0.85415","3.566138","0.001196","-0.258398","-0.229687","0.210547","-0.247632","-0.117236"
"S","1617446603.673357","7","21","48","48","57","35","0.832458","0.045776","-0.551147","-0.033447","0","-0.022901","-0.015267","8.992505","0.775195","3.651074","0.028711","-0.332568","-0.153125","0.149536","-0.326587","-0.070581"
"S","1617446603.663567","7","21","49","46","54","32","0.832703","0.045715","-0.550781","-0.033325","-0.007634","-0.022901","-0.015267","8.993701","0.748877","3.7396","0.033496","-0.356494","-0.072974","0.077759","-0.354102","-0.037085"
"S","1617446603.6534705","7","22","47","45","54","36","0.832947","0.045837","-0.550476","-0.033203","-0.015267","-0.022901","-0.015267","8.957812","0.75127","3.801807","0","-0.355298","-0.017944","0.014355","-0.351709","-0.046655"
"S","1617446603.6435034","7","19","48","46","54","33","0.83313","0.046143","-0.550171","-0.03302","-0.022901","-0.022901","-0.007634","8.947046","0.787158","3.872388","-0.005981","-0.321802","0.046655","-0.045459","-0.320605","-0.022729"
"S","1617446603.6332452","7","21","49","49","56","35","0.833252","0.046509","-0.549927","-0.032837","-0.022901","-0.022901","-0.007634","8.900391","0.818262","3.899902","-0.050244","-0.294287","0.069385","-0.08374","-0.289502","-0.05144"
"S","1617446603.62403","7","21","48","47","57","33","0.833374","0.046875","-0.549744","-0.032715","-0.015267","-0.015267","0","8.866895","0.830225","3.919043","-0.082544","-0.287109","0.084937","-0.111255","-0.279932","-0.07417"
"S","1617446603.6140244","7","20","49","46","112","33","0.833374","0.04718","-0.549683","-0.032715","-0.015267","-0.007634","0","8.827417","0.860132","3.921436","-0.120825","-0.261987","0.087329","-0.128003","-0.250024","-0.105273"
"S","1617446603.6041026","7","22","49","46","57","35","0.833374","0.047485","-0.549683","-0.032837","-0.015267","0","0.007634","8.817846","0.913965","3.93938","-0.129199","-0.215332","0.105273","-0.147144","-0.204565","-0.100488"
"S","1617446603.593989","7","22","47","44","54","36","0.833252","0.047791","-0.549805","-0.03302","-0.007634","0","0.007634","8.779566","0.998901","3.945361","-0.168677","-0.136377","0.114844","-0.171069","-0.122021","-0.124414"
"S","1617446603.583491","7","21","48","48","57","38","0.83313","0.048096","-0.549927","-0.033264","0","0","0.015267","8.730517","1.07666","3.945361","-0.217725","-0.066992","0.118433","-0.193799","-0.047852","-0.160303"
"S","1617446603.573989","7","21","49","46","55","36","0.833069","0.048279","-0.550049","-0.033569","0.007634","0","0.015267","8.685059","1.154419","3.957324","-0.26438","0.003589","0.132788","-0.224902","0.026318","-0.189014"
"S","1617446603.5641098","7","20","48","46","53","31","0.832947","0.04834","-0.550171","-0.033875","0.007634","0","0.015267","8.634814","1.233374","3.983643","-0.314624","0.077759","0.161499","-0.271558","0.104077","-0.214136"
"S","1617446603.553545","7","21","48","46","55","37","0.832886","0.04834","-0.550232","-0.034241","0.007634","0","0.007634","8.566626","1.311133","4.018335","-0.382812","0.151929","0.197388","-0.330176","0.184229","-0.253613"
"S","1617446603.5441782","7","20","48","47","55","32","0.832825","0.048218","-0.550293","-0.034485","0.007634","0","0.007634","8.513989","1.384106","4.066186","-0.435449","0.224902","0.247632","-0.397168","0.260791","-0.27395"
"S","1617446603.5339935","7","22","50","47","56","35","0.832825","0.048096","-0.550354","-0.034729","0.007634","-0.007634","0","8.466138","1.454687","4.116431","-0.484497","0.294287","0.297876","-0.461768","0.332568","-0.290698"
"S","1617446603.524029","7","21","47","47","55","37","0.832764","0.047913","-0.550415","-0.03479","0.007634","-0.015267","-0.007634","8.418286","1.509717","4.145142","-0.532349","0.351709","0.327783","-0.507227","0.393579","-0.317017"
"S","1617446603.5141685","7","22","50","47","55","36","0.832764","0.047607","-0.550476","-0.034729","0.015267","-0.007634","-0.015267","8.411108","1.533643","4.160693","-0.540723","0.381616","0.343335","-0.525171","0.423486","-0.314624"
"S","1617446603.5040011","7","22","47","46","57","37","0.832642","0.047119","-0.550659","-0.034668","0.022901","0","-0.015267","8.446997","1.503735","4.16189","-0.507227","0.360083","0.34812","-0.515601","0.398364","-0.285913"
"S","1617446603.4940906","7","20","51","44","56","35","0.83252","0.046387","-0.550903","-0.034546","0.030534","0.007634","-0.022901","8.510401","1.430762","4.12959","-0.447412","0.300269","0.320605","-0.467749","0.333765","-0.248828"
"S","1617446603.4841616","7","22","48","48","57","38","0.832336","0.045532","-0.55127","-0.034485","0.030534","0.007634","-0.022901","8.59773","1.357788","4.091309","-0.363672","0.24165","0.288306","-0.404346","0.267969","-0.192603"
"S","1617446603.4741518","7","20","48","47","57","33","0.832153","0.0448","-0.551636","-0.034424","0.022901","0.007634","-0.022901","8.670703","1.307544","4.060205","-0.295483","0.204565","0.263184","-0.355298","0.224902","-0.144751"
"S","1617446603.4642246","7","22","48","46","57","33","0.832031","0.044189","-0.551941","-0.034302","0.007634","0","-0.030534","8.677881","1.312329","4.060205","-0.293091","0.220117","0.267969","-0.358887","0.239258","-0.139966"
"S","1617446603.454164","7","22","51","47","55","34","0.831909","0.043823","-0.552063","-0.033997","-0.007634","0","-0.022901","8.65874","1.323096","4.04585","-0.313428","0.240454","0.257202","-0.356494","0.261987","-0.160303"
"S","1617446603.444106","7","21","47","46","54","36","0.831848","0.043701","-0.552246","-0.033569","-0.022901","0","-0.022901","8.686255","1.36377","4.039868","-0.288306","0.287109","0.25481","-0.343335","0.30625","-0.133984"
"S","1617446603.434169","7","21","48","47","57","39","0.831665","0.04364","-0.55249","-0.03302","-0.022901","0.007634","-0.030534","8.748462","1.354199","4.036279","-0.228491","0.284717","0.257202","-0.322998","0.29668","-0.078955"
"S","1617446603.4239974","7","22","57","45","57","38","0.831421","0.043396","-0.552917","-0.032349","-0.007634","0.022901","-0.030534","8.814258","1.260889","4.008765","-0.16748","0.202173","0.238062","-0.282324","0.209351","-0.039478"
"S","1617446603.414164","7","22","49","48","55","33","0.831055","0.042847","-0.553589","-0.03186","0.007634","0.038168","-0.038168","8.937475","1.075464","3.954932","-0.052637","0.031104","0.197388","-0.202173","0.028711","0.029907"
"S","1617446603.4039695","7","22","51","47","57","33","0.830627","0.042236","-0.554321","-0.031433","0.007634","0.045802","-0.038168","9.027197","0.913965","3.873584","0.027515","-0.114844","0.130396","-0.110059","-0.120825","0.062207"
"S","1617446603.39407","7","22","52","47","52","33","0.8302","0.041748","-0.555054","-0.031128","-0.007634","0.038168","-0.030534","9.057104","0.824243","3.818555","0.050244","-0.192603","0.089722","-0.0646","-0.198584","0.059814"
"S","1617446603.3840876","7","21","48","44","57","39","0.829773","0.041748","-0.555664","-0.030884","-0.022901","0.030534","-0.022901","9.043945","0.805103","3.752759","0.031104","-0.209351","0.038281","-0.023926","-0.211743","0.020337"
"S","1617446602.8549714","7","21","49","45","52","31","0.840332","0.060303","-0.537109","-0.041321","-0.007634","0.015267","-0.022901","8.862109","1.490576","4.258789","0.063403","0.062207","0.184229","-0.139966","0.04187","0.142358"
"S","1617446602.8442943","7","40","53","48","57","37","0.84021","0.060181","-0.537354","-0.040955","-0.022901","0.007634","-0.022901","8.945849","1.428369","4.362866","0.144751","0.004785","0.293091","-0.204565","-0.031104","0.251221"
"S","1617446602.8350437","7","21","49","46","56","37","0.840088","0.060303","-0.537537","-0.040466","-0.030534","0","-0.022901","8.963794","1.408032","4.451392","0.160303","-0.010767","0.385205","-0.282324","-0.053833","0.301465"
"S","1617446602.824521","7","20","49","45","56","33","0.840027","0.060608","-0.537659","-0.039917","-0.045802","-0.007634","-0.022901","8.95542","1.422388","4.515991","0.149536","0.003589","0.453394","-0.34812","-0.04187","0.321802"
"S","1617446602.814438","7","17","49","45","57","35","0.839905","0.060974","-0.537842","-0.039307","-0.045802","0","-0.022901","8.920728","1.430762","4.526758","0.113647","0.011963","0.468945","-0.378027","-0.031104","0.297876"
"S","1617446602.8050811","7","22","47","45","103","32","0.839783","0.061218","-0.538086","-0.038696","-0.030534","0.007634","-0.030534","8.908765","1.406836","4.492065","0.098096","-0.008374","0.440234","-0.358887","-0.047852","0.267969"
"S","1617446602.7950122","7","21","48","46","56","33","0.839478","0.06134","-0.538513","-0.038086","-0.022901","0.022901","-0.030534","8.913549","1.348218","4.447803","0.098096","-0.062207","0.405542","-0.326587","-0.099292","0.246436"
"S","1617446602.7851367","7","21","47","46","56","33","0.839111","0.061279","-0.539185","-0.037598","-0.015267","0.038168","-0.030534","8.936279","1.263281","4.365259","0.113647","-0.141162","0.336157","-0.257202","-0.174658","0.220117"
"S","1617446602.7749653","7","20","49","47","55","39","0.838623","0.061096","-0.539917","-0.03717","-0.007634","0.045802","-0.038168","8.95542","1.202271","4.263574","0.124414","-0.194995","0.250024","-0.174658","-0.223706","0.186621"
"S","1617446602.7645786","7","20","49","47","57","36","0.838135","0.060913","-0.540833","-0.036804","0","0.053435","-0.038168","8.960205","1.152026","4.154712","0.119629","-0.238062","0.159106","-0.094507","-0.260791","0.13877"
"S","1617446602.7550142","7","20","52","46","52","36","0.837524","0.060608","-0.541748","-0.036499","0","0.053435","-0.038168","8.966187","1.120923","4.049438","0.11604","-0.260791","0.07417","-0.017944","-0.276343","0.096899"
"S","1617446602.745057","7","22","51","47","57","37","0.837036","0.060303","-0.542603","-0.036194","0.007634","0.053435","-0.038168","8.933887","1.102978","3.941772","0.07417","-0.270361","-0.015552","0.045459","-0.275146","0.022729"
"S","1617446602.7350705","7","22","48","45","57","35","0.836548","0.059998","-0.543396","-0.036011","0.007634","0.045802","-0.030534","8.874072","1.122119","3.83291","0.005981","-0.244043","-0.108862","0.102881","-0.235669","-0.071777"
"S","1617446602.7251267","7","22","48","46","54","36","0.836182","0.059753","-0.544006","-0.035889","0.007634","0.038168","-0.022901","8.803492","1.184326","3.743188","-0.069385","-0.177051","-0.185425","0.141162","-0.154321","-0.161499"
"S","1617446602.7152498","7","22","52","49","54","31","0.835876","0.05957","-0.544495","-0.035889","0.015267","0.030534","-0.015267","8.73291","1.252515","3.683374","-0.144751","-0.105273","-0.235669","0.156714","-0.071777","-0.239258"
"S","1617446602.7049556","7","21","48","46","56","35","0.835632","0.059265","-0.544861","-0.03595","0.022901","0.022901","-0.007634","8.662329","1.297974","3.639111","-0.218921","-0.056226","-0.272754","0.160303","-0.011963","-0.314624"
"S","1617446602.6949773","7","20","50","46","54","35","0.83551","0.058899","-0.545105","-0.036194","0.030534","0.022901","0","8.6073","1.335059","3.625952","-0.277539","-0.015552","-0.281128","0.144751","0.034692","-0.364868"
"S","1617446602.685014","7","20","49","48","55","35","0.835388","0.058533","-0.545288","-0.036621","0.022901","0.015267","0.007634","8.551074","1.403247","3.649878","-0.334961","0.052637","-0.25481","0.098096","0.107666","-0.397168"
"S","1617446602.6749623","7","20","49","47","55","33","0.835266","0.058289","-0.54541","-0.037048","0.022901","0.007634","0.015267","8.498438","1.491772","3.721655","-0.387598","0.141162","-0.179443","0.007178","0.198584","-0.403149"
"S","1617446602.6651962","7","17","49","47","53","32","0.835266","0.058044","-0.545471","-0.037537","0.022901","0.007634","0.015267","8.436231","1.577905","3.803003","-0.451001","0.226099","-0.098096","-0.090918","0.285913","-0.416309"
"S","1617446602.6550117","7","21","51","48","55","36","0.835205","0.057678","-0.545532","-0.038025","0.030534","0","0.015267","8.380005","1.631738","3.880762","-0.507227","0.279932","-0.020337","-0.184229","0.342139","-0.429468"
"S","1617446602.645027","7","22","51","48","55","36","0.835205","0.057373","-0.545593","-0.038513","0.022901","0","0.015267","8.345312","1.684375","3.933398","-0.541919","0.332568","0.031104","-0.245239","0.395972","-0.433057"
"S","1617446602.6350472","7","21","49","48","57","33","0.835144","0.057007","-0.545654","-0.038879","0.022901","-0.007634","0.007634","8.350098","1.741797","3.957324","-0.537134","0.392383","0.056226","-0.265576","0.453394","-0.410327"
"S","1617446602.6252584","7","21","49","48","54","35","0.835144","0.056702","-0.545715","-0.039124","0.015267","-0.007634","0.007634","8.371631","1.783667","3.944165","-0.516797","0.436646","0.043066","-0.245239","0.495264","-0.391187"
"S","1617446602.615156","7","19","49","47","55","31","0.835083","0.056458","-0.545837","-0.039246","0","-0.007634","0","8.427856","1.821948","3.892725","-0.461768","0.477319","-0.004785","-0.178247","0.531152","-0.355298"
"S","1617446602.6051743","7","22","29","48","56","35","0.834961","0.056213","-0.545959","-0.039185","0","0","-0.007634","8.511597","1.826733","3.828125","-0.379224","0.48689","-0.066992","-0.088525","0.533545","-0.303857"
"S","1617446602.5951846","7","22","49","47","56","31","0.834839","0.055908","-0.546204","-0.039001","0","0.015267","-0.015267","8.596533","1.781274","3.709692","-0.297876","0.448608","-0.18064","0.047852","0.490479","-0.279932"
"S","1617446602.5850508","7","22","49","48","48","35","0.834656","0.055359","-0.546631","-0.038757","0.007634","0.030534","-0.022901","8.701807","1.678394","3.580493","-0.198584","0.356494","-0.302661","0.198584","0.392383","-0.251221"
"S","1617446602.5751395","7","21","42","45","57","35","0.834351","0.054749","-0.54718","-0.038452","0.007634","0.038168","-0.030534","8.823828","1.527661","3.444116","-0.082544","0.218921","-0.428271","0.360083","0.247632","-0.214136"
"S","1617446602.5651126","7","21","51","47","55","36","0.833984","0.054199","-0.547729","-0.038208","0","0.038168","-0.030534","8.894409","1.406836","3.312524","-0.017944","0.110059","-0.549097","0.49646","0.137573","-0.217725"
"S","1617446602.555267","7","22","49","44","56","32","0.833679","0.053894","-0.548218","-0.037842","-0.022901","0.038168","-0.022901","8.956616","1.323096","3.223999","0.038281","0.034692","-0.626855","0.58977","0.059814","-0.206958"
"S","1617446602.5450437","7","0","47","46","54","33","0.833435","0.053955","-0.548645","-0.037415","-0.045802","0.030534","-0.022901","8.994898","1.311133","3.177344","0.071777","0.026318","-0.665137","0.638818","0.049048","-0.191406"
"S","1617446602.535041","7","22","48","45","57","36","0.833313","0.054382","-0.548889","-0.036865","-0.053435","0.022901","-0.015267","8.961401","1.33147","3.174951","0.034692","0.045459","-0.661548","0.620874","0.072974","-0.221313"
"S","1617446602.5252645","7","22","52","48","56","35","0.833191","0.054871","-0.549011","-0.036255","-0.045802","0.022901","-0.015267","8.939868","1.306348","3.200073","0.013159","0.019141","-0.631641","0.584985","0.049048","-0.23208"
"S","1617446602.5153036","7","22","49","47","56","36","0.833069","0.055115","-0.549194","-0.035706","-0.022901","0.022901","-0.015267","8.927905","1.177148","3.234766","0","-0.10647","-0.593359","0.544312","-0.07417","-0.245239"
"S","1617446602.5053706","7","22","49","45","57","35","0.833008","0.055115","-0.549377","-0.035461","-0.007634","0.022901","-0.007634","8.909961","1.001294","3.257495","-0.020337","-0.279932","-0.567041","0.513208","-0.244043","-0.276343"
"S","1617446602.4951336","7","22","49","47","57","36","0.832947","0.055237","-0.549438","-0.035583","-0.015267","0.030534","-0.007634","8.921924","0.939087","3.302954","-0.008374","-0.345728","-0.519189","0.47373","-0.313428","-0.25481"
"S","1617446602.4851208","7","22","49","46","56","33","0.832825","0.055603","-0.549561","-0.035461","-0.022901","0.007634","0","8.877661","1.050342","3.384302","-0.053833","-0.238062","-0.434253","0.378027","-0.205762","-0.248828"
"S","1617446602.4752712","7","22","51","47","56","33","0.832886","0.055847","-0.549438","-0.0354","-0.007634","0","0","8.813062","1.045557","3.506323","-0.117236","-0.246436","-0.314624","0.242847","-0.212939","-0.261987"
"S","1617446602.4652174","7","21","51","45","54","33","0.833008","0.05603","-0.549255","-0.035461","-0.007634","-0.007634","0","8.749659","1.051538","3.619971","-0.178247","-0.244043","-0.204565","0.117236","-0.208154","-0.27395"
"S","1617446602.4551227","7","21","51","46","57","35","0.83313","0.056274","-0.549072","-0.035583","-0.015267","-0.015267","0","8.71377","1.122119","3.744385","-0.212939","-0.179443","-0.08374","-0.005981","-0.147144","-0.250024"
"S","1617446602.445253","7","22","49","47","57","39","0.833252","0.05658","-0.548767","-0.035645","-0.022901","-0.022901","0.007634","8.68147","1.217822","3.848462","-0.240454","-0.088525","0.014355","-0.107666","-0.058618","-0.224902"
"S","1617446602.4352758","7","22","51","46","57","33","0.833496","0.057007","-0.548462","-0.035645","-0.022901","-0.038168","0.007634","8.645581","1.317114","3.941772","-0.27395","0.002393","0.100488","-0.19978","0.029907","-0.209351"
"S","1617446602.4250438","7","20","52","47","57","32","0.83374","0.057373","-0.548035","-0.035522","-0.022901","-0.045802","0.007634","8.606104","1.362573","3.98125","-0.308643","0.043066","0.131592","-0.242847","0.071777","-0.22251"
"S","1617446602.4153645","7","21","51","48","57","55","0.833984","0.057617","-0.547607","-0.0354","-0.015267","-0.038168","0","8.603711","1.351807","4.00398","-0.307446","0.029907","0.145947","-0.256006","0.058618","-0.217725"
"S","1617446602.4052863","7","22","48","47","57","33","0.834229","0.057739","-0.547241","-0.035339","-0.007634","-0.030534","0","8.621655","1.320703","4.007568","-0.285913","-0.002393","0.142358","-0.244043","0.023926","-0.203369"
"S","1617446602.3951578","7","22","49","46","56","36","0.834412","0.057739","-0.546997","-0.035278","0","-0.022901","0","8.653955","1.290796","4.002783","-0.251221","-0.031104","0.131592","-0.220117","-0.007178","-0.179443"
"S","1617446602.385299","7","22","52","48","57","36","0.834473","0.057617","-0.546814","-0.035339","0.007634","-0.015267","0","8.698217","1.256104","3.992017","-0.204565","-0.0646","0.117236","-0.187817","-0.045459","-0.147144"
"S","1617446602.3752513","7","21","48","46","54","29","0.834534","0.057556","-0.546753","-0.035522","0.007634","-0.007634","0","8.748462","1.254907","3.99082","-0.154321","-0.066992","0.114844","-0.166284","-0.053833","-0.102881"
"S","1617446602.365296","7","20","49","46","57","35","0.834595","0.057495","-0.546692","-0.035645","0","-0.015267","0","8.761621","1.294385","3.993213","-0.139966","-0.027515","0.114844","-0.160303","-0.015552","-0.084937"
"S","1617446602.355453","7","21","49","47","56","36","0.834595","0.057556","-0.546631","-0.035645","-0.007634","-0.015267","0","8.760425","1.337451","3.984839","-0.141162","0.013159","0.10647","-0.153125","0.023926","-0.08374"
"S","1617446602.345161","7","22","49","46","57","33","0.834656","0.057678","-0.54657","-0.035645","-0.015267","-0.015267","0","8.769995","1.379321","3.962109","-0.130396","0.053833","0.082544","-0.126807","0.063403","-0.077759"
"S","1617446602.3353462","7","22","49","48","54","31","0.834656","0.057861","-0.546509","-0.035583","-0.015267","-0.015267","-0.007634","8.779566","1.411621","3.94895","-0.119629","0.08374","0.068188","-0.110059","0.093311","-0.069385"
"S","1617446602.3252437","7","21","47","44","57","34","0.834717","0.057861","-0.546448","-0.035461","0","-0.015267","-0.007634","8.767603","1.397266","3.93938","-0.131592","0.070581","0.057422","-0.105273","0.082544","-0.086133"
"S","1617446602.315386","7","22","52","47","57","33","0.834778","0.0578","-0.546387","-0.035461","0","-0.007634","0","8.753247","1.366162","3.935791","-0.145947","0.040674","0.052637","-0.10647","0.055029","-0.105273"
"S","1617446602.3052478","7","20","49","49","56","33","0.834778","0.057739","-0.546326","-0.035522","-0.007634","-0.007634","0","8.764013","1.368555","3.92981","-0.133984","0.043066","0.045459","-0.094507","0.056226","-0.096899"
"S","1617446602.2952452","7","22","51","48","56","36","0.834778","0.057861","-0.546326","-0.035522","-0.015267","-0.007634","0","8.780762","1.406836","3.947754","-0.117236","0.078955","0.063403","-0.105273","0.088525","-0.070581"
"S","1617446602.2852576","7","21","49","47","57","35","0.834778","0.057983","-0.546387","-0.035461","-0.015267","0","0","8.789136","1.434351","3.954932","-0.110059","0.105273","0.071777","-0.110059","0.112451","-0.056226"
"S","1617446602.2752848","7","21","47","46","56","36","0.834717","0.058044","-0.546448","-0.035339","-0.015267","0","-0.007634","8.785547","1.430762","3.938184","-0.113647","0.101685","0.056226","-0.096899","0.111255","-0.066992"
"S","1617446602.2653673","7","22","48","46","54","36","0.834656","0.058105","-0.54657","-0.035217","-0.015267","0","-0.007634","8.78435","1.403247","3.904687","-0.11604","0.075366","0.025122","-0.069385","0.087329","-0.084937"
"S","1617446602.2551436","7","22","49","47","54","33","0.834595","0.058167","-0.546692","-0.035095","-0.007634","0","-0.007634","8.813062","1.379321","3.867603","-0.089722","0.05144","-0.008374","-0.027515","0.062207","-0.077759"
"S","1617446602.245249","7","20","48","45","57","32","0.834473","0.058105","-0.546875","-0.034851","-0.007634","0.007634","-0.015267","8.838183","1.33147","3.820947","-0.065796","0.007178","-0.050244","0.019141","0.017944","-0.077759"
"S","1617446602.2352176","7","21","48","46","55","33","0.834351","0.0578","-0.547058","-0.034607","0.007634","0.015267","-0.022901","8.882446","1.239355","3.786255","-0.023926","-0.076563","-0.081348","0.0646","-0.068188","-0.063403"
"S","1617446602.2253146","7","21","49","48","55","35","0.834229","0.057434","-0.547363","-0.034424","0.015267","0.015267","-0.030534","8.92312","1.138867","3.74917","0.011963","-0.168677","-0.113647","0.108862","-0.161499","-0.056226"
"S","1617446602.2152722","7","20","47","46","57","39","0.834045","0.057068","-0.547607","-0.034302","0.007634","0.007634","-0.022901","8.92312","1.081445","3.683374","0.00957","-0.218921","-0.174658","0.165088","-0.206958","-0.088525"
"S","1617446602.205253","7","22","49","47","57","36","0.833984","0.056824","-0.547729","-0.034241","0","0.007634","-0.022901","8.912354","1.06709","3.623559","-0.002393","-0.228491","-0.23208","0.212939","-0.211743","-0.123218"
"S","1617446602.1952922","7","22","49","46","54","38","0.833984","0.056702","-0.547791","-0.034119","0","0","-0.015267","8.88125","1.075464","3.587671","-0.034692","-0.216528","-0.266772","0.23208","-0.194995","-0.163892"
"S","1617446602.1852207","7","22","52","46","55","33","0.834045","0.05658","-0.547729","-0.034119","0.007634","0","-0.007634","8.835791","1.089819","3.575708","-0.080151","-0.200977","-0.281128","0.226099","-0.173462","-0.209351"
"S","1617446602.1751995","7","20","51","47","54","33","0.834045","0.056519","-0.547668","-0.03418","0.007634","0","-0.007634","8.783154","1.093408","3.551782","-0.131592","-0.197388","-0.305054","0.228491","-0.161499","-0.265576"
"S","1617446602.1652818","7","22","51","47","55","6","0.834106","0.056335","-0.547668","-0.034363","0.015267","0.007634","0","8.764013","1.100586","3.546997","-0.150732","-0.189014","-0.312231","0.227295","-0.150732","-0.284717"
"S","1617446602.1551075","7","22","49","45","54","35","0.834045","0.056152","-0.547668","-0.034607","0.015267","0.015267","0","8.756836","1.126904","3.566138","-0.15791","-0.161499","-0.291895","0.204565","-0.124414","-0.278735"
