timestamp,user_id,flex_1,flex_2,flex_3,flex_4,flex_5,Qw,Qx,Qy,Qz,GYRx,GYRy,GYRz,ACCx,ACCy,ACCz,ACCx_body,ACCy_body,ACCz_body,ACCx_world,ACCy_world,ACCz_world,Alphabet
1616135613.395074,1,9.0,52.0,66.0,68.0,58.0,0.73761,0.631836,-0.236755,0.02356,-0.007634,-0.007634,-0.007634,3.905884,9.596631,0.81228,0.19021,0.57063,-0.062207,-0.001196,0.122021,0.590967,sorry
1616135613.4050975,1,3.0,54.0,70.0,71.0,56.0,0.73761,0.631836,-0.236877,0.023438,-0.007634,-0.007634,-0.007634,3.922632,9.581079,0.800317,0.206958,0.555078,-0.07417,0.021533,0.12561,0.582593,sorry
1616135613.4149845,1,9.0,56.0,67.0,69.0,58.0,0.737549,0.631897,-0.236938,0.023376,-0.007634,-0.007634,-0.007634,3.935791,9.579883,0.795532,0.220117,0.552686,-0.076563,0.034692,0.124414,0.584985,sorry
1616135613.4250305,1,9.0,54.0,64.0,73.0,58.0,0.737488,0.631958,-0.237,0.023254,0.0,-0.015267,-0.007634,3.945361,9.603808,0.789551,0.230884,0.576611,-0.081348,0.037085,0.130396,0.611304,sorry
1616135613.4350028,1,9.0,53.0,67.0,70.0,56.0,0.737427,0.632019,-0.237061,0.023071,-0.007634,-0.015267,-0.007634,3.954932,9.630127,0.776392,0.24165,0.601733,-0.092114,0.04187,0.142358,0.637622,sorry
1616135613.445133,1,9.0,56.0,66.0,72.0,58.0,0.737366,0.632019,-0.237122,0.022888,-0.007634,-0.015267,-0.007634,3.977661,9.648071,0.758447,0.266772,0.619678,-0.108862,0.0646,0.155518,0.661548,sorry
1616135613.454914,1,11.0,56.0,66.0,70.0,58.0,0.737427,0.631958,-0.237183,0.022705,-0.015267,-0.007634,-0.007634,3.986035,9.65166,0.744092,0.276343,0.62207,-0.124414,0.076563,0.16748,0.666333,sorry
1616135613.4650412,1,9.0,52.0,66.0,71.0,54.0,0.737427,0.631958,-0.237244,0.022522,-0.015267,-0.007634,-0.007634,4.000391,9.633716,0.730933,0.291895,0.604126,-0.137573,0.101685,0.172266,0.65437,sorry
1616135613.4751432,1,9.0,52.0,66.0,73.0,58.0,0.737427,0.631897,-0.237244,0.022461,-0.015267,-0.007634,-0.007634,4.018335,9.605005,0.732129,0.311035,0.575415,-0.136377,0.126807,0.160303,0.635229,sorry
1616135613.4849236,1,8.0,54.0,66.0,72.0,58.0,0.737427,0.631897,-0.237305,0.0224,-0.007634,-0.007634,-0.007634,4.012353,9.57749,0.73811,0.303857,0.5479,-0.130396,0.128003,0.150732,0.607715,sorry
1616135613.4949734,1,8.0,49.0,66.0,71.0,58.0,0.737427,0.631897,-0.237305,0.022339,-0.007634,-0.007634,-0.007634,4.007568,9.549975,0.757251,0.300269,0.520386,-0.111255,0.128003,0.128003,0.582593,sorry
1616135613.5049496,1,7.0,53.0,66.0,73.0,58.0,0.737366,0.631958,-0.237305,0.022278,0.0,-0.007634,-0.007634,4.002783,9.524854,0.777588,0.29668,0.494067,-0.089722,0.126807,0.104077,0.558667,sorry
1616135613.5149312,1,7.0,52.0,66.0,72.0,56.0,0.737366,0.632019,-0.237305,0.022217,0.0,-0.007634,-0.007634,4.006372,9.517675,0.805103,0.301465,0.485693,-0.061011,0.124414,0.072974,0.555078,sorry
1616135613.5248735,1,7.0,54.0,65.0,72.0,56.0,0.737305,0.632019,-0.237305,0.022156,0.0,-0.007634,-0.007634,3.999194,9.521265,0.829028,0.294287,0.490479,-0.035889,0.108862,0.052637,0.559863,sorry
1616135613.5349317,1,10.0,56.0,66.0,70.0,56.0,0.737305,0.63208,-0.237305,0.022034,0.0,-0.007634,-0.007634,3.993213,9.542798,0.850561,0.290698,0.510815,-0.014355,0.092114,0.037085,0.579004,sorry
1616135613.5449226,1,6.0,53.0,64.0,122.0,57.0,0.737244,0.632141,-0.237305,0.021912,-0.007634,-0.007634,-0.015267,4.007568,9.575098,0.861328,0.30625,0.541919,-0.001196,0.090918,0.026318,0.614893,sorry
1616135613.5551493,1,9.0,55.0,64.0,71.0,58.0,0.737244,0.632141,-0.237305,0.02179,-0.007634,-0.007634,-0.015267,4.017138,9.603808,0.858936,0.317017,0.57063,-0.003589,0.092114,0.0323,0.6448,sorry
1616135613.5644848,1,7.0,53.0,66.0,71.0,58.0,0.737244,0.632141,-0.237183,0.021667,-0.007634,0.0,-0.015267,4.017138,9.639697,0.855347,0.320605,0.605322,-0.008374,0.084937,0.04187,0.6771,sorry
1616135613.5742495,1,8.0,53.0,63.0,69.0,57.0,0.737305,0.632141,-0.237183,0.021606,-0.007634,0.0,-0.007634,4.011157,9.66482,0.860132,0.31582,0.629248,-0.003589,0.071777,0.044263,0.698633,sorry
1616135613.5845723,1,11.0,55.0,65.0,72.0,58.0,0.737366,0.63208,-0.237122,0.021545,-0.007634,0.0,-0.007634,4.00398,9.670801,0.864917,0.309839,0.635229,-0.001196,0.063403,0.044263,0.702222,sorry
1616135613.59491,1,8.0,54.0,66.0,71.0,58.0,0.737427,0.632019,-0.237122,0.021484,-0.007634,-0.007634,-0.007634,4.00398,9.667212,0.861328,0.309839,0.631641,-0.005981,0.066992,0.047852,0.697437,sorry
1616135613.6049051,1,10.0,54.0,65.0,72.0,58.0,0.737427,0.631958,-0.237122,0.021484,-0.007634,-0.007634,-0.007634,4.006372,9.65166,0.861328,0.312231,0.617285,-0.007178,0.07417,0.046655,0.685474,sorry
1616135613.6149528,1,9.0,52.0,65.0,73.0,56.0,0.737488,0.631897,-0.237244,0.021423,-0.007634,-0.007634,0.0,4.015943,9.637304,0.863721,0.320605,0.60293,-0.005981,0.086133,0.039478,0.675903,sorry
1616135613.625066,1,7.0,52.0,64.0,82.0,54.0,0.737488,0.631897,-0.237366,0.021423,-0.007634,-0.007634,0.0,4.007568,9.625341,0.863721,0.311035,0.590967,-0.004785,0.080151,0.039478,0.661548,sorry
1616135613.635044,1,7.0,52.0,66.0,70.0,56.0,0.737427,0.631836,-0.237427,0.021423,-0.007634,-0.007634,0.0,3.993213,9.628931,0.857739,0.295483,0.595752,-0.010767,0.066992,0.050244,0.659155,sorry
1616135613.6450596,1,9.0,56.0,65.0,72.0,55.0,0.737427,0.631836,-0.237549,0.021301,-0.007634,-0.015267,0.0,3.98125,9.654053,0.863721,0.283521,0.620874,-0.003589,0.045459,0.05144,0.678296,sorry
1616135613.6548688,1,8.0,55.0,66.0,73.0,58.0,0.737488,0.631714,-0.237671,0.021179,-0.015267,-0.015267,-0.007634,3.975269,9.689941,0.870898,0.277539,0.656763,0.0,0.027515,0.056226,0.709399,sorry
1616135613.6649225,1,10.0,53.0,66.0,72.0,58.0,0.737671,0.631531,-0.237671,0.020996,-0.022901,-0.007634,-0.007634,3.97168,9.70669,0.858936,0.275146,0.673511,-0.015552,0.025122,0.075366,0.722559,sorry
1616135613.67444,1,9.0,55.0,65.0,72.0,44.0,0.737854,0.631348,-0.237671,0.020874,-0.022901,0.0,-0.007634,3.957324,9.710279,0.85415,0.260791,0.675903,-0.025122,0.015552,0.089722,0.71897,sorry
1616135613.684176,1,9.0,53.0,66.0,70.0,58.0,0.738037,0.631165,-0.23761,0.020752,-0.022901,0.0,-0.007634,3.934595,9.713867,0.850561,0.240454,0.679492,-0.033496,0.0,0.104077,0.712988,sorry
1616135613.6942449,1,6.0,53.0,65.0,67.0,57.0,0.73822,0.630981,-0.23761,0.02063,-0.022901,0.0,-0.007634,3.904687,9.74856,0.848169,0.210547,0.714185,-0.040674,-0.035889,0.12561,0.733325,sorry
1616135613.704291,1,7.0,26.0,65.0,72.0,58.0,0.738403,0.630737,-0.237549,0.020508,-0.030534,0.0,-0.007634,3.875977,9.798803,0.855347,0.184229,0.765625,-0.039478,-0.075366,0.142358,0.77041,sorry
1616135613.714198,1,11.0,53.0,65.0,93.0,57.0,0.738708,0.630432,-0.237488,0.020264,-0.038168,-0.007634,-0.007634,3.84248,9.847852,0.879272,0.153125,0.813477,-0.023926,-0.124414,0.147144,0.805103,sorry
1616135613.7248976,1,8.0,51.0,65.0,70.0,57.0,0.739136,0.630005,-0.237366,0.02002,-0.045802,-0.007634,-0.007634,3.812573,9.905273,0.924731,0.12561,0.870898,0.008374,-0.177051,0.136377,0.850561,sorry
1616135613.7342122,1,8.0,53.0,64.0,72.0,55.0,0.739624,0.629456,-0.237305,0.019714,-0.053435,-0.007634,-0.007634,3.78147,9.956714,0.976172,0.098096,0.922339,0.045459,-0.229687,0.120825,0.891235,sorry
1616135613.7443554,1,7.0,55.0,65.0,72.0,28.0,0.740234,0.628784,-0.237183,0.019409,-0.061069,0.0,0.0,3.770703,9.998584,1.032398,0.089722,0.965405,0.08374,-0.263184,0.098096,0.930713,sorry
1616135613.7544146,1,7.0,53.0,65.0,72.0,58.0,0.740906,0.628052,-0.237,0.019226,-0.068702,0.007634,0.0,3.731225,10.027295,1.059912,0.052637,0.995313,0.092114,-0.307446,0.107666,0.945068,sorry
1616135613.7643104,1,9.0,53.0,67.0,70.0,57.0,0.741577,0.627319,-0.236877,0.018982,-0.061069,0.0,0.0,3.669019,10.066772,1.079053,-0.007178,1.035986,0.092114,-0.373242,0.135181,0.96062,sorry
1616135613.774314,1,6.0,53.0,64.0,70.0,55.0,0.742188,0.626587,-0.236816,0.018616,-0.068702,-0.007634,0.007634,3.627148,10.122998,1.10896,-0.045459,1.093408,0.104077,-0.428271,0.14834,1.000098,sorry
1616135613.7844183,1,9.0,55.0,65.0,70.0,58.0,0.742859,0.625793,-0.236938,0.018188,-0.068702,-0.015267,0.007634,3.629541,10.176831,1.146045,-0.043066,1.149634,0.122021,-0.449805,0.144751,1.055127,sorry
1616135613.7942758,1,9.0,55.0,65.0,71.0,57.0,0.74353,0.624939,-0.237061,0.017883,-0.076336,-0.015267,0.015267,3.652271,10.204346,1.167578,-0.020337,1.179541,0.124414,-0.439038,0.145947,1.091016,sorry
1616135613.8042743,1,6.0,49.0,64.0,70.0,55.0,0.744202,0.624084,-0.237305,0.017639,-0.068702,-0.015267,0.015267,3.700122,10.200757,1.177148,0.022729,1.179541,0.114844,-0.397168,0.145947,1.106567,sorry
1616135613.814235,1,10.0,56.0,65.0,70.0,56.0,0.744751,0.623352,-0.23761,0.017578,-0.061069,-0.015267,0.022901,3.780273,10.195971,1.169971,0.096899,1.178345,0.092114,-0.324194,0.14834,1.130493,sorry
1616135613.8243968,1,9.0,53.0,64.0,72.0,56.0,0.745117,0.622681,-0.238037,0.017639,-0.045802,-0.015267,0.030534,3.878369,10.205542,1.135278,0.186621,1.193897,0.045459,-0.234473,0.173462,1.172363,sorry
1616135613.834122,1,8.0,56.0,66.0,72.0,58.0,0.745361,0.622131,-0.238647,0.017883,-0.038168,-0.015267,0.038168,3.993213,10.255786,1.094604,0.288306,1.250122,-0.001196,-0.14834,0.204565,1.2573,sorry
1616135613.8443997,1,10.0,53.0,65.0,73.0,58.0,0.745605,0.621582,-0.239441,0.01825,-0.038168,-0.015267,0.053435,4.155908,10.3156,1.047949,0.434253,1.317114,-0.055029,-0.025122,0.23208,1.367358,sorry
1616135613.8543425,1,9.0,56.0,73.0,73.0,58.0,0.745789,0.620972,-0.240356,0.018921,-0.045802,-0.007634,0.068702,4.374829,10.364649,1.001294,0.630444,1.375732,-0.107666,0.143555,0.242847,1.48938,sorry
1616135613.864178,1,11.0,54.0,56.0,71.0,57.0,0.746033,0.620239,-0.241394,0.019897,-0.045802,0.0,0.076336,4.633227,10.383789,0.965405,0.861328,1.408032,-0.150732,0.346924,0.230884,1.603027,sorry
1616135613.8741562,1,11.0,56.0,63.0,73.0,59.0,0.746338,0.619385,-0.242432,0.021301,-0.045802,0.022901,0.091603,4.963403,10.367041,0.95105,1.158008,1.406836,-0.175854,0.611304,0.178247,1.715479,sorry
1616135613.884257,1,11.0,53.0,66.0,70.0,57.0,0.746765,0.618469,-0.243408,0.023254,-0.038168,0.045802,0.099237,5.342627,10.308423,0.940283,1.497754,1.366162,-0.19978,0.925928,0.10647,1.809985,sorry
1616135613.894252,1,5.0,53.0,66.0,72.0,56.0,0.747131,0.617493,-0.244446,0.025696,-0.038168,0.068702,0.114504,5.757739,10.235449,0.957031,1.866211,1.315918,-0.197388,1.258496,0.002393,1.915259,sorry
1616135613.9040592,1,9.0,55.0,68.0,74.0,58.0,0.747559,0.616455,-0.245422,0.028687,-0.030534,0.091603,0.129771,6.200366,10.152905,0.984546,2.257397,1.258496,-0.185425,1.607813,-0.112451,2.02771,sorry
1616135613.9143393,1,9.0,54.0,66.0,72.0,55.0,0.748047,0.615356,-0.246338,0.032288,-0.022901,0.114504,0.145038,6.634619,10.072754,1.014453,2.633032,1.205859,-0.173462,1.940381,-0.217725,2.144946,sorry
1616135613.9241464,1,10.0,52.0,64.0,73.0,57.0,0.748535,0.614136,-0.247253,0.036377,-0.022901,0.137405,0.167939,7.022217,9.994995,1.039575,2.95603,1.1604,-0.168677,2.225098,-0.29668,2.251416,sorry
1616135613.9340878,1,7.0,52.0,64.0,69.0,56.0,0.749146,0.612732,-0.24823,0.040894,-0.030534,0.160305,0.183206,7.35,9.893311,1.061108,3.213233,1.094604,-0.171069,2.460767,-0.350513,2.317212,sorry
1616135613.9443057,1,7.0,53.0,65.0,71.0,56.0,0.749878,0.611084,-0.249084,0.045837,-0.045802,0.183206,0.206107,7.584473,9.733007,1.098193,3.373535,0.974976,-0.165088,2.628247,-0.397168,2.298071,sorry
1616135613.954211,1,7.0,52.0,66.0,67.0,57.0,0.750854,0.609192,-0.249817,0.051086,-0.061069,0.198473,0.21374,7.702905,9.522461,1.129297,3.415405,0.806299,-0.172266,2.716773,-0.411523,2.188013,sorry
1616135613.9643795,1,6.0,56.0,66.0,71.0,58.0,0.752014,0.606995,-0.250488,0.056335,-0.076336,0.206107,0.221374,7.743579,9.225781,1.140064,3.380713,0.555078,-0.206958,2.782568,-0.404346,1.966699,sorry
1616135613.9743154,1,10.0,55.0,65.0,70.0,58.0,0.753357,0.604614,-0.251099,0.061646,-0.091603,0.21374,0.21374,7.741187,8.796313,1.105371,3.302954,0.171069,-0.293091,2.88186,-0.374438,1.604224,sorry
1616135613.9844418,1,11.0,54.0,67.0,71.0,56.0,0.7547,0.602173,-0.251587,0.066956,-0.091603,0.229008,0.206107,7.695727,8.222095,1.004883,3.183325,-0.354102,-0.446216,3.027808,-0.31582,1.088623,sorry
1616135613.9941225,1,11.0,56.0,65.0,73.0,58.0,0.755798,0.599976,-0.251831,0.072449,-0.068702,0.244275,0.198473,7.598828,7.528247,0.836206,3.015845,-1.001294,-0.66394,3.208447,-0.223706,0.436646,sorry
1616135614.0041175,1,9.0,54.0,66.0,70.0,59.0,0.756653,0.598267,-0.251709,0.078064,-0.030534,0.267176,0.183206,7.397851,6.768603,0.638818,2.749072,-1.717871,-0.902002,3.34602,-0.117236,-0.325391,sorry
1616135614.0142033,1,8.0,55.0,63.0,71.0,57.0,0.75708,0.597168,-0.25116,0.083862,0.015267,0.282443,0.167939,7.062891,5.992212,0.440234,2.354297,-2.455981,-1.131689,3.389087,-0.004785,-1.167578,sorry
1616135614.0242913,1,8.0,54.0,68.0,73.0,58.0,0.75708,0.596802,-0.250183,0.089539,0.068702,0.282443,0.145038,6.581983,5.245728,0.276343,1.821948,-3.170166,-1.314722,3.298169,0.088525,-2.050439,sorry
1616135614.03431,1,7.0,54.0,64.0,72.0,57.0,0.756592,0.597229,-0.248596,0.094788,0.122137,0.274809,0.10687,5.979053,4.60332,0.172266,1.181934,-3.79104,-1.423584,3.057715,0.153125,-2.899805,sorry
1616135614.044057,1,9.0,51.0,63.0,73.0,56.0,0.755798,0.59845,-0.246399,0.099243,0.160305,0.259542,0.045802,5.240942,4.12959,0.136377,0.425879,-4.2552,-1.452295,2.627051,0.19978,-3.666626,sorry
1616135614.0540807,1,8.0,50.0,68.0,72.0,58.0,0.754761,0.600403,-0.24353,0.102417,0.183206,0.221374,-0.022901,4.359277,3.873584,0.205762,-0.447412,-4.518384,-1.364966,1.967896,0.200977,-4.307837,sorry
1616135614.0643654,1,8.0,48.0,65.0,71.0,57.0,0.753845,0.602661,-0.239929,0.103943,0.183206,0.183206,-0.099237,3.354394,3.858032,0.400757,-1.417603,-4.556665,-1.149634,1.079053,0.141162,-4.785156,sorry
1616135614.074135,1,7.0,56.0,66.0,71.0,58.0,0.753296,0.605164,-0.235596,0.103455,0.152672,0.122137,-0.19084,2.25022,4.074561,0.666333,-2.454785,-4.382007,-0.866113,0.001196,0.070581,-5.094995,sorry
1616135614.083977,1,6.0,51.0,64.0,72.0,57.0,0.753113,0.607727,-0.230774,0.100708,0.122137,0.061069,-0.290076,1.180737,4.422681,0.923535,-3.424976,-4.091309,-0.592163,-1.088623,0.023926,-5.255298,sorry
1616135614.0942066,1,7.0,53.0,67.0,73.0,57.0,0.753113,0.610474,-0.225525,0.095825,0.099237,0.0,-0.381679,0.178247,4.925122,1.100586,-4.297071,-3.661841,-0.395972,-2.154517,0.078955,-5.231372,sorry
1616135614.104118,1,7.0,53.0,64.0,72.0,56.0,0.753052,0.613647,-0.21991,0.089172,0.099237,-0.053435,-0.458015,-0.65437,5.496948,1.201074,-4.971777,-3.174951,-0.269165,-3.068481,0.19978,-5.039966,sorry
1616135614.1142387,1,11.0,55.0,66.0,71.0,58.0,0.752563,0.617371,-0.214172,0.081238,0.129771,-0.099237,-0.51145,-1.294385,6.074756,1.244141,-5.435937,-2.690454,-0.185425,-3.782666,0.346924,-4.730127,sorry
1616135614.12428,1,8.0,51.0,63.0,70.0,57.0,0.751221,0.621948,-0.208374,0.072754,0.198473,-0.129771,-0.534351,-1.748975,6.603516,1.220215,-5.703906,-2.256201,-0.144751,-4.282715,0.507227,-4.36167,sorry
1616135614.134276,1,7.0,55.0,69.0,72.0,57.0,0.74884,0.627686,-0.202576,0.064514,0.305344,-0.129771,-0.534351,-2.049243,7.109546,1.18313,-5.815161,-1.845874,-0.089722,-4.621264,0.626855,-3.933398,sorry
1616135614.1442952,1,8.0,54.0,65.0,72.0,57.0,0.745178,0.634583,-0.196777,0.056824,0.412214,-0.122137,-0.503817,-2.304053,7.692139,1.140064,-5.884546,-1.356592,-0.007178,-4.934692,0.722559,-3.403442,sorry
1616135614.1540186,1,10.0,53.0,64.0,71.0,58.0,0.740295,0.642517,-0.19104,0.049805,0.51145,-0.122137,-0.465649,-2.544507,8.389575,1.077856,-5.943164,-0.746484,0.086133,-5.258887,0.809888,-2.747876,sorry
1616135614.1641002,1,10.0,53.0,68.0,72.0,57.0,0.73468,0.651001,-0.185608,0.043396,0.557252,-0.114504,-0.427481,-2.731128,9.217407,1.051538,-5.95752,0.0,0.233276,-5.573511,0.832617,-1.941577,sorry
1616135614.1740563,1,9.0,55.0,66.0,72.0,56.0,0.72876,0.659546,-0.180237,0.037109,0.564885,-0.122137,-0.412214,-2.911767,10.118213,0.996509,-5.965894,0.827832,0.358887,-5.879761,0.850561,-1.050342,sorry
1616135614.1841402,1,11.0,56.0,66.0,68.0,57.0,0.722961,0.667603,-0.174988,0.030579,0.534351,-0.129771,-0.419847,-2.957227,10.985522,0.968994,-5.836694,1.629346,0.504834,-6.026904,0.785962,-0.135181,sorry
1616135614.1941917,1,7.0,53.0,64.0,74.0,56.0,0.717834,0.674744,-0.169739,0.023621,0.450382,-0.137405,-0.442748,-2.918945,11.806177,0.936694,-5.61897,2.391382,0.624463,-6.049634,0.697437,0.768018,sorry
1616135614.2040002,1,8.0,52.0,66.0,73.0,58.0,0.713623,0.680664,-0.16449,0.016235,0.343511,-0.145038,-0.450382,-2.831616,12.541895,0.87688,-5.348608,3.073267,0.689062,-5.961108,0.623267,1.607813,sorry
1616135614.2139866,1,11.0,52.0,66.0,71.0,58.0,0.710632,0.68512,-0.159668,0.008362,0.229008,-0.167939,-0.450382,-2.643799,13.142431,0.825439,-4.978955,3.625952,0.724951,-5.715869,0.543115,2.341138,sorry
1616135614.224096,1,8.0,54.0,66.0,70.0,56.0,0.708801,0.688049,-0.155273,0.000183,0.114504,-0.19084,-0.450382,-2.355493,13.570704,0.722559,-4.514795,4.012353,0.674707,-5.303149,0.517993,2.921338,sorry
1616135614.23411,1,11.0,53.0,65.0,70.0,56.0,0.707642,0.690125,-0.151306,-0.007996,0.045802,-0.19084,-0.450382,-1.947559,13.732203,0.519189,-3.936987,4.135571,0.502441,-4.685864,0.571826,3.250317,sorry
1616135614.244187,1,10.0,56.0,67.0,72.0,58.0,0.706482,0.691956,-0.1474,-0.015869,0.045802,-0.175573,-0.458015,-1.48938,13.703491,0.206958,-3.314917,4.075757,0.217725,-3.95852,0.708203,3.385498,sorry
1616135614.2541027,1,9.0,55.0,66.0,73.0,58.0,0.704712,0.694275,-0.143799,-0.023315,0.099237,-0.175573,-0.442748,-1.089819,13.638891,-0.230884,-2.758643,3.982446,-0.175854,-3.263477,0.949854,3.453686,sorry
1616135614.2640955,1,11.0,54.0,64.0,70.0,58.0,0.701843,0.69751,-0.140869,-0.030212,0.175573,-0.198473,-0.412214,-0.672314,13.711865,-0.695044,-2.196387,4.032691,-0.568237,-2.589966,1.175952,3.647485,sorry
1616135614.2741036,1,7.0,53.0,64.0,73.0,56.0,0.697815,0.70166,-0.138794,-0.036621,0.267176,-0.21374,-0.374046,-0.173462,13.947535,-1.125708,-1.567139,4.250415,-0.897217,-1.892529,1.307544,4.002783,sorry
1616135614.2841046,1,10.0,53.0,66.0,67.0,58.0,0.692932,0.706421,-0.137573,-0.042419,0.328244,-0.229008,-0.335878,0.364868,14.414087,-1.510913,-0.915161,4.705005,-1.158008,-1.223804,1.343433,4.582983,sorry
1616135614.2942443,1,8.0,53.0,65.0,71.0,57.0,0.687805,0.711243,-0.137085,-0.047546,0.335878,-0.236641,-0.29771,1.014453,15.076831,-1.815967,-0.169873,5.360571,-1.33147,-0.515601,1.241748,5.359375,sorry
1616135614.3040268,1,10.0,55.0,65.0,71.0,57.0,0.683167,0.715332,-0.137146,-0.051697,0.282443,-0.21374,-0.244275,1.71189,15.777857,-2.006177,0.599341,6.0604,-1.406836,0.179443,1.019238,6.162085,sorry
1616135614.3141365,1,8.0,53.0,68.0,73.0,58.0,0.679749,0.718262,-0.137695,-0.054932,0.198473,-0.183206,-0.19084,2.428467,16.423853,-2.083935,1.366162,6.7052,-1.399658,0.851758,0.71897,6.894214,sorry
1616135614.3240058,1,8.0,52.0,67.0,72.0,58.0,0.677429,0.720093,-0.138489,-0.057251,0.114504,-0.152672,-0.152672,3.20127,16.776758,-2.146142,2.170068,7.059302,-1.40564,1.591064,0.439038,7.333252,sorry
1616135614.3340251,1,9.0,53.0,66.0,73.0,57.0,0.676147,0.721008,-0.139465,-0.058594,0.053435,-0.10687,-0.122137,4.121216,16.807861,-2.107861,3.100781,7.091601,-1.336255,2.458374,0.080151,7.457666,sorry
1616135614.3439732,1,7.0,52.0,63.0,72.0,57.0,0.675537,0.721375,-0.140747,-0.058594,0.022901,-0.061069,-0.076336,5.031592,16.65354,-2.01814,3.995605,6.939673,-1.229785,3.287402,-0.279932,7.397851,sorry
1616135614.35385,1,12.0,55.0,65.0,68.0,58.0,0.675415,0.721191,-0.142456,-0.057495,0.0,-0.038168,-0.015267,5.831909,16.459742,-1.868603,4.757642,6.751855,-1.075464,3.965698,-0.632837,7.296167,sorry
1616135614.3641288,1,9.0,57.0,66.0,70.0,56.0,0.675781,0.720581,-0.144775,-0.055725,-0.030534,-0.038168,0.038168,6.51499,16.283886,-1.660449,5.383301,6.580786,-0.872095,4.48728,-0.986938,7.205249,sorry
1616135614.3740396,1,10.0,54.0,64.0,70.0,58.0,0.676819,0.719116,-0.147766,-0.053345,-0.083969,-0.022901,0.091603,7.138257,16.106836,-1.390088,5.928809,6.412109,-0.624463,4.908374,-1.345825,7.121509,sorry
1616135614.384003,1,10.0,53.0,64.0,72.0,57.0,0.678833,0.716797,-0.15094,-0.050232,-0.152672,0.007634,0.129771,7.61438,15.908252,-1.167578,6.311621,6.2219,-0.448608,5.193091,-1.569531,7.02102,sorry
1616135614.393953,1,9.0,55.0,64.0,72.0,52.0,0.681763,0.713562,-0.153992,-0.046753,-0.236641,0.030534,0.160305,7.921826,15.665405,-0.955835,6.517383,5.988623,-0.309839,5.329468,-1.686768,6.866699,sorry
1616135614.404022,1,11.0,51.0,64.0,72.0,58.0,0.686096,0.709045,-0.156982,-0.042969,-0.358779,0.061069,0.198473,8.092896,15.311304,-0.752466,6.578393,5.644092,-0.214136,5.36416,-1.69873,6.595141,sorry
1616135614.4139066,1,-4.0,55.0,66.0,70.0,58.0,0.691772,0.703125,-0.159729,-0.038879,-0.480916,0.099237,0.221374,8.103662,14.703588,-0.616089,6.47312,5.04834,-0.224902,5.32229,-1.544409,6.059204,sorry
1616135614.4239335,1,9.0,53.0,66.0,72.0,58.0,0.698425,0.696106,-0.162231,-0.034607,-0.564885,0.129771,0.236641,8.00437,13.839869,-0.490479,6.255395,4.200171,-0.275146,5.239746,-1.33147,5.252905,sorry
1616135614.4341238,1,9.0,52.0,66.0,72.0,58.0,0.705627,0.688477,-0.16449,-0.030029,-0.610687,0.152672,0.259542,7.771094,12.843359,-0.424683,5.901294,3.223999,-0.401953,5.086621,-1.038379,4.291089,sorry
1616135614.4440055,1,8.0,52.0,66.0,73.0,58.0,0.712769,0.680725,-0.166931,-0.02533,-0.603053,0.152672,0.282443,7.49834,11.80498,-0.379224,5.504126,2.211938,-0.549097,4.915552,-0.762036,3.27544,sorry
1616135614.4539108,1,11.0,54.0,67.0,74.0,58.0,0.719604,0.673035,-0.169556,-0.020203,-0.580153,0.160305,0.312977,7.244727,10.806079,-0.301465,5.118921,1.245337,-0.659155,4.750464,-0.567041,2.300464,sorry
1616135614.4639428,1,11.0,49.0,64.0,70.0,55.0,0.725891,0.665649,-0.172424,-0.014465,-0.534351,0.175573,0.358779,7.009058,9.862207,-0.235669,4.744483,0.342139,-0.766821,4.594946,-0.41272,1.386499,sorry
1616135614.4740748,1,11.0,55.0,65.0,70.0,57.0,0.731506,0.658752,-0.175476,-0.007751,-0.473282,0.206107,0.412214,6.773389,8.988916,-0.178247,4.356885,-0.482104,-0.86731,4.425073,-0.285913,0.546704,sorry
1616135614.4839196,1,10.0,53.0,64.0,73.0,58.0,0.736328,0.652527,-0.178711,0.0,-0.389313,0.236641,0.458015,6.517383,8.225683,-0.129199,3.938184,-1.191504,-0.955835,4.214526,-0.175854,-0.189014,sorry
1616135614.4942837,1,9.0,55.0,65.0,71.0,58.0,0.740295,0.647034,-0.181946,0.008606,-0.320611,0.259542,0.503817,6.211133,7.60481,-0.082544,3.460864,-1.752563,-1.026416,3.92981,-0.068188,-0.800317,sorry
1616135614.5038657,1,8.0,53.0,69.0,73.0,57.0,0.74353,0.642212,-0.18512,0.017944,-0.251908,0.282443,0.526718,5.945557,7.135864,0.002393,3.021826,-2.158105,-1.040771,3.645093,-0.013159,-1.254907,sorry
1616135614.5132074,1,9.0,55.0,65.0,72.0,54.0,0.746338,0.637878,-0.187927,0.027588,-0.206107,0.305344,0.526718,5.662036,6.796118,0.137573,2.567236,-2.433252,-0.994116,3.308936,-0.001196,-1.59585,sorry
1616135614.5232863,1,9.0,48.0,63.0,72.0,57.0,0.748962,0.633606,-0.190186,0.037109,-0.206107,0.320611,0.51145,5.348608,6.578393,0.361279,2.095898,-2.583984,-0.860132,2.909375,-0.061011,-1.826733,sorry
1616135614.5334027,1,8.0,55.0,63.0,72.0,58.0,0.751953,0.628906,-0.192078,0.046265,-0.244275,0.320611,0.496183,4.961011,6.385791,0.608911,1.558765,-2.708398,-0.715381,2.444019,-0.132788,-2.068384,sorry
1616135614.5439243,1,10.0,54.0,66.0,71.0,51.0,0.75531,0.623596,-0.193726,0.054688,-0.290076,0.29771,0.465649,4.555469,6.1573,0.900806,1.018042,-2.866309,-0.539526,1.98584,-0.260791,-2.350708,sorry
1616135614.5532324,1,9.0,56.0,64.0,68.0,58.0,0.759094,0.617798,-0.195251,0.062195,-0.328244,0.267176,0.435115,4.152319,5.835498,1.137671,0.494067,-3.117529,-0.433057,1.593457,-0.368457,-2.732324,sorry
1616135614.5639188,1,8.0,53.0,66.0,72.0,55.0,0.763,0.611816,-0.196777,0.068665,-0.351145,0.236641,0.389313,3.793433,5.392871,1.270459,0.026318,-3.490772,-0.433057,1.323096,-0.430664,-3.228784,sorry
1616135614.5737052,1,9.0,55.0,66.0,71.0,57.0,0.766663,0.606079,-0.198181,0.074341,-0.320611,0.198473,0.343511,3.468042,4.865308,1.314722,-0.392383,-3.952539,-0.514404,1.152026,-0.461768,-3.806592,sorry
1616135614.584009,1,9.0,53.0,66.0,73.0,57.0,0.769531,0.601318,-0.199646,0.079285,-0.251908,0.160305,0.29771,3.134277,4.323389,1.275244,-0.811084,-4.43584,-0.655566,1.008472,-0.447412,-4.420288,sorry
1616135614.5933075,1,10.0,54.0,64.0,72.0,58.0,0.771362,0.597961,-0.201111,0.083374,-0.152672,0.10687,0.251908,2.844775,3.825732,1.190308,-1.172363,-4.885644,-0.807495,0.911572,-0.419897,-4.987329,sorry
1616135614.6040237,1,9.0,53.0,65.0,72.0,56.0,0.77179,0.596313,-0.202576,0.086975,-0.022901,0.068702,0.21374,2.624658,3.42019,1.120923,-1.455884,-5.254102,-0.903198,0.848169,-0.417505,-5.443115,sorry
1616135614.613149,1,9.0,54.0,69.0,72.0,57.0,0.770996,0.596558,-0.203552,0.090332,0.114504,0.061069,0.167939,2.386597,3.246728,1.116138,-1.745386,-5.407227,-0.894824,0.678296,-0.43186,-5.694336,sorry
1616135614.6234596,1,11.0,56.0,65.0,72.0,56.0,0.769104,0.59845,-0.203857,0.093323,0.229008,0.053435,0.122137,2.110254,3.343628,1.193897,-2.056421,-5.304346,-0.77041,0.361279,-0.466553,-5.709888,sorry
1616135614.6333044,1,7.0,58.0,44.0,72.0,57.0,0.766541,0.601562,-0.203308,0.095764,0.312977,0.053435,0.076336,1.737012,3.672607,1.349414,-2.446411,-4.98374,-0.546704,-0.139966,-0.520386,-5.551978,sorry
1616135614.6433787,1,9.0,53.0,65.0,72.0,57.0,0.763611,0.60553,-0.201599,0.09729,0.343511,0.053435,0.007634,1.166382,4.242041,1.524072,-3.005078,-4.43584,-0.290698,-0.905591,-0.529956,-5.261279,sorry
1616135614.653199,1,9.0,56.0,66.0,72.0,56.0,0.760803,0.609924,-0.198975,0.097351,0.351145,0.030534,-0.068702,0.472534,5.019629,1.707104,-3.658252,-3.695337,-0.023926,-1.849463,-0.50603,-4.831811,sorry
1616135614.663164,1,11.0,55.0,67.0,71.0,59.0,0.758118,0.614624,-0.195557,0.095642,0.328244,-0.007634,-0.152672,-0.250024,5.913257,1.836304,-4.307837,-2.851953,0.19021,-2.832813,-0.417505,-4.301856,sorry
1616135614.6741376,1,8.0,53.0,63.0,72.0,56.0,0.755676,0.619324,-0.191833,0.092407,0.305344,-0.053435,-0.21374,-0.85415,6.800903,1.960718,-4.81626,-2.024121,0.399561,-3.68457,-0.352905,-3.706104,sorry
1616135614.6839566,1,8.0,55.0,65.0,71.0,58.0,0.753296,0.623962,-0.18811,0.08783,0.282443,-0.10687,-0.251908,-1.509717,7.640698,1.905689,-5.360571,-1.24773,0.430664,-4.513598,-0.12561,-3.172559,sorry
1616135614.6932974,1,9.0,55.0,66.0,70.0,58.0,0.75061,0.628906,-0.184998,0.082153,0.290076,-0.183206,-0.267176,-1.947559,8.334546,1.780078,-5.681177,-0.619678,0.403149,-5.063891,0.10647,-2.673706,sorry
1616135614.7034922,1,11.0,53.0,63.0,70.0,55.0,0.747437,0.634216,-0.182373,0.075989,0.312977,-0.221374,-0.274809,-2.220313,9.009253,1.600635,-5.835498,-0.00957,0.336157,-5.434741,0.356494,-2.118628,sorry
1616135614.7131588,1,9.0,53.0,64.0,70.0,58.0,0.743652,0.640076,-0.179993,0.069519,0.351145,-0.244275,-0.282443,-2.33396,9.715063,1.349414,-5.829516,0.630444,0.214136,-5.642896,0.638818,-1.469043,sorry
1616135614.723334,1,8.0,53.0,64.0,70.0,58.0,0.739502,0.646118,-0.177734,0.06311,0.366412,-0.236641,-0.282443,-2.268164,10.469922,1.107764,-5.642896,1.324292,0.110059,-5.688354,0.868506,-0.69624,sorry
1616135614.733289,1,10.0,53.0,63.0,72.0,58.0,0.735168,0.652161,-0.175537,0.057068,0.366412,-0.221374,-0.267176,-2.168872,11.291773,0.855347,-5.427564,2.089917,-0.002393,-5.709888,1.087427,0.156714,sorry
1616135614.7431946,1,9.0,55.0,66.0,70.0,58.0,0.731079,0.657837,-0.173401,0.051147,0.328244,-0.21374,-0.251908,-1.987036,12.160278,0.625659,-5.130884,2.906982,-0.101685,-5.656054,1.260889,1.089819,sorry
1616135614.7532504,1,12.0,53.0,66.0,68.0,58.0,0.727478,0.66272,-0.171753,0.045349,0.259542,-0.229008,-0.229008,-1.664038,13.002466,0.384009,-4.701416,3.704907,-0.228491,-5.449097,1.418799,2.042065,sorry
1616135614.7633045,1,11.0,62.0,63.0,70.0,58.0,0.724548,0.666443,-0.171021,0.039612,0.175573,-0.251908,-0.19084,-1.120923,13.717847,0.154321,-4.066186,4.385596,-0.366064,-4.994507,1.527661,2.933301,sorry
1616135614.7731922,1,11.0,55.0,65.0,73.0,58.0,0.722473,0.668945,-0.171143,0.034302,0.083969,-0.251908,-0.160305,-0.350513,14.217896,-0.044263,-3.222803,4.859326,-0.497656,-4.279126,1.56355,3.671411,sorry
1616135614.783383,1,9.0,54.0,65.0,70.0,57.0,0.721375,0.670227,-0.171814,0.029419,-0.007634,-0.244275,-0.145038,0.451001,14.594727,-0.168677,-2.363867,5.217017,-0.584985,-3.520679,1.536035,4.2875,sorry
1616135614.7931666,1,10.0,57.0,65.0,73.0,56.0,0.721008,0.670593,-0.172485,0.024658,-0.068702,-0.229008,-0.152672,1.113745,14.831592,-0.301465,-1.64729,5.437134,-0.702222,-2.845972,1.546802,4.718164,sorry
1616135614.8030229,1,11.0,54.0,66.0,73.0,58.0,0.72113,0.670532,-0.172974,0.019714,-0.10687,-0.221374,-0.183206,1.680786,14.889013,-0.468945,-1.022827,5.477808,-0.868506,-2.192798,1.600635,4.94187,sorry
1616135614.8133836,1,12.0,57.0,66.0,72.0,57.0,0.721313,0.670288,-0.173523,0.014771,-0.122137,-0.221374,-0.175573,2.216724,14.837573,-0.607715,-0.429468,5.410815,-1.009668,-1.544409,1.617383,5.045947,sorry
1616135614.823169,1,10.0,54.0,66.0,69.0,55.0,0.721619,0.669861,-0.174438,0.010437,-0.122137,-0.206107,-0.145038,2.848364,14.666504,-0.681885,0.244043,5.227783,-1.089819,-0.811084,1.538428,5.054321,sorry
1616135614.8331325,1,9.0,54.0,68.0,68.0,55.0,0.721802,0.66925,-0.175964,0.007446,-0.099237,-0.175573,-0.091603,3.730029,14.225073,-0.714185,1.142456,4.781568,-1.126904,0.168677,1.33147,4.860522,sorry
1616135614.8430483,1,10.0,54.0,64.0,71.0,58.0,0.721497,0.669067,-0.178162,0.006409,-0.022901,-0.122137,-0.022901,4.714575,13.585058,-0.705811,2.110254,4.145142,-1.10896,1.225,1.022827,4.506421,sorry
1616135614.853171,1,16.0,55.0,66.0,70.0,58.0,0.720337,0.669495,-0.180969,0.007141,0.068702,-0.099237,0.053435,5.528052,13.05271,-0.626855,2.878272,3.624756,-0.997705,2.024121,0.671118,4.226489,sorry
1616135614.863079,1,8.0,53.0,65.0,70.0,57.0,0.718567,0.67041,-0.184448,0.008972,0.122137,-0.099237,0.122137,6.108252,12.785937,-0.446216,3.391479,3.375928,-0.768018,2.475122,0.287109,4.155908,sorry
1616135614.8731425,1,10.0,52.0,65.0,73.0,58.0,0.716858,0.671143,-0.188416,0.011108,0.122137,-0.114504,0.160305,6.503027,12.68186,-0.204565,3.708496,3.292187,-0.478516,2.680884,-0.090918,4.196582,sorry
1616135614.8833306,1,9.0,52.0,66.0,66.0,58.0,0.715637,0.671204,-0.192749,0.013245,0.061069,-0.122137,0.19084,6.763818,12.650757,0.090918,3.885547,3.28501,-0.149536,2.721558,-0.462964,4.275537,sorry
1616135616.470997,1,12.0,49.0,64.0,70.0,58.0,0.738281,0.634216,-0.226746,0.035645,0.007634,0.0,0.0,3.983643,9.63252,0.925928,0.258398,0.6125,0.016748,0.016748,0.040674,0.662744,sorry
1616135616.4811242,1,9.0,55.0,65.0,73.0,58.0,0.738159,0.634338,-0.226746,0.035767,0.007634,0.0,0.0,3.993213,9.656446,0.92832,0.267969,0.637622,0.022729,0.015552,0.037085,0.690259,sorry
1616135616.4910698,1,11.0,53.0,68.0,72.0,57.0,0.738098,0.634399,-0.226746,0.035889,0.007634,0.0,0.0,4.01355,9.676783,0.936694,0.285913,0.657959,0.0323,0.021533,0.028711,0.716577,sorry
1616135616.5010364,1,13.0,53.0,65.0,72.0,56.0,0.738037,0.63446,-0.226746,0.036072,0.0,0.0,0.0,4.030298,9.700708,0.937891,0.301465,0.683081,0.034692,0.026318,0.027515,0.745288,sorry
1616135616.5110416,1,12.0,55.0,65.0,69.0,56.0,0.738037,0.63446,-0.226746,0.036255,0.0,0.0,0.0,4.038672,9.733007,0.930713,0.307446,0.715381,0.027515,0.022729,0.038281,0.777588,sorry
1616135616.5212066,1,11.0,56.0,65.0,71.0,58.0,0.738037,0.634399,-0.226746,0.036377,-0.007634,0.0,0.0,4.060205,9.764112,0.930713,0.327783,0.747681,0.027515,0.029907,0.040674,0.814673,sorry
1616135616.531157,1,13.0,56.0,65.0,71.0,58.0,0.738159,0.634277,-0.226685,0.03656,-0.015267,0.007634,0.0,4.079346,9.780859,0.937891,0.344531,0.765625,0.031104,0.037085,0.037085,0.837402,sorry
1616135616.5411625,1,15.0,56.0,65.0,70.0,58.0,0.738342,0.634094,-0.226624,0.036743,-0.015267,0.015267,0.0,4.081738,9.79043,0.953442,0.344531,0.776392,0.040674,0.031104,0.029907,0.848169,sorry
1616135616.551099,1,12.0,53.0,64.0,74.0,58.0,0.738586,0.63385,-0.226501,0.036926,-0.022901,0.015267,0.0,4.082934,9.785645,0.96062,0.344531,0.772803,0.040674,0.0323,0.029907,0.845776,sorry
1616135616.5612133,1,8.0,55.0,66.0,70.0,58.0,0.738831,0.633606,-0.226318,0.03717,-0.022901,0.015267,0.007634,4.076953,9.780859,0.959424,0.337354,0.77041,0.0323,0.028711,0.039478,0.839795,sorry
1616135616.5712638,1,13.0,52.0,64.0,72.0,58.0,0.739075,0.633362,-0.226196,0.037476,-0.022901,0.015267,0.007634,4.062598,9.798803,0.957031,0.320605,0.789551,0.022729,0.00957,0.057422,0.849365,sorry
1616135616.581212,1,13.0,53.0,65.0,70.0,57.0,0.739319,0.633057,-0.226135,0.037842,-0.022901,0.015267,0.015267,4.050635,9.813159,0.97019,0.303857,0.806299,0.027515,-0.011963,0.061011,0.858936,sorry
1616135616.5910532,1,16.0,52.0,66.0,72.0,58.0,0.739624,0.63269,-0.226135,0.038147,-0.030534,0.015267,0.015267,4.048242,9.826319,0.996509,0.29668,0.823047,0.044263,-0.028711,0.050244,0.873291,sorry
1616135616.6010754,1,13.0,56.0,66.0,73.0,57.0,0.73999,0.632263,-0.226135,0.038574,-0.030534,0.015267,0.022901,4.05542,9.822729,1.015649,0.29668,0.823047,0.052637,-0.031104,0.044263,0.874487,sorry
1616135616.6110003,1,12.0,55.0,68.0,56.0,58.0,0.740295,0.631836,-0.226196,0.039001,-0.030534,0.015267,0.022901,4.066186,9.808374,1.033594,0.300269,0.813477,0.061011,-0.027515,0.034692,0.86731,sorry
1616135616.6209943,1,11.0,56.0,66.0,71.0,55.0,0.740601,0.631409,-0.226257,0.039429,-0.030534,0.015267,0.022901,4.075757,9.802393,1.052734,0.302661,0.811084,0.070581,-0.027515,0.025122,0.86731,sorry
1616135616.6310742,1,13.0,52.0,65.0,73.0,57.0,0.740906,0.630981,-0.226318,0.039978,-0.030534,0.015267,0.030534,4.082934,9.817945,1.073071,0.301465,0.831421,0.081348,-0.039478,0.020337,0.88645,sorry
1616135616.64108,1,12.0,51.0,66.0,71.0,56.0,0.741272,0.630493,-0.226501,0.040466,-0.030534,0.015267,0.030534,4.110449,9.840673,1.088623,0.319409,0.858936,0.084937,-0.034692,0.019141,0.91875,sorry
1616135616.6510024,1,9.0,52.0,66.0,69.0,57.0,0.741638,0.629944,-0.226746,0.041016,-0.038168,0.015267,0.038168,4.173852,9.861011,1.105371,0.37085,0.885254,0.090918,0.0,0.00957,0.963013,sorry
1616135616.6610036,1,11.0,51.0,63.0,73.0,58.0,0.742004,0.629333,-0.227051,0.041687,-0.038168,0.015267,0.038168,4.288696,9.881348,1.135278,0.471338,0.913965,0.108862,0.071777,-0.021533,1.031201,sorry
1616135616.671097,1,11.0,52.0,65.0,73.0,58.0,0.742432,0.628662,-0.227356,0.042542,-0.038168,0.022901,0.045802,4.440625,9.907666,1.166382,0.607715,0.948657,0.12561,0.174658,-0.058618,1.117334,sorry
1616135616.6812136,1,12.0,53.0,66.0,73.0,58.0,0.742859,0.62793,-0.227722,0.043518,-0.038168,0.030534,0.053435,4.609302,9.968677,1.187915,0.757251,1.019238,0.132788,0.279932,-0.082544,1.241748,sorry
1616135616.6911004,1,15.0,55.0,64.0,70.0,57.0,0.743347,0.627197,-0.228088,0.044739,-0.045802,0.038168,0.061069,4.811475,10.070361,1.219019,0.937891,1.131689,0.14834,0.394775,-0.110059,1.418799,sorry
1616135616.7012146,1,11.0,51.0,68.0,74.0,58.0,0.743896,0.626221,-0.228516,0.046082,-0.053435,0.045802,0.068702,5.022021,10.211523,1.242944,1.124512,1.287207,0.153125,0.501245,-0.118433,1.635327,sorry
1616135616.7111738,1,11.0,55.0,68.0,72.0,58.0,0.744629,0.625061,-0.229004,0.047668,-0.068702,0.053435,0.083969,5.274438,10.365845,1.280029,1.347021,1.45708,0.166284,0.631641,-0.136377,1.882959,sorry
1616135616.7210488,1,11.0,53.0,66.0,73.0,58.0,0.745544,0.623657,-0.229675,0.0495,-0.083969,0.061069,0.099237,5.553174,10.511792,1.305151,1.591064,1.620972,0.161499,0.785962,-0.139966,2.131787,sorry
1616135616.7311687,1,16.0,54.0,66.0,72.0,57.0,0.746582,0.621948,-0.230408,0.051758,-0.099237,0.076336,0.122137,5.821143,10.639795,1.30874,1.818359,1.771704,0.130396,0.934302,-0.112451,2.360278,sorry
1616135616.7410514,1,12.0,53.0,66.0,72.0,58.0,0.747742,0.619995,-0.231201,0.054382,-0.114504,0.091603,0.145038,6.056811,10.733106,1.302759,2.007373,1.892529,0.084937,1.059912,-0.065796,2.546899,sorry
1616135616.7510293,1,12.0,54.0,68.0,71.0,56.0,0.749084,0.617737,-0.232056,0.057373,-0.129771,0.114504,0.167939,6.247022,10.76062,1.262085,2.144946,1.951147,-0.001196,1.172363,0.019141,2.650977,sorry
1616135616.7611794,1,12.0,52.0,63.0,71.0,58.0,0.750549,0.615295,-0.232971,0.060852,-0.137405,0.137405,0.19084,6.378613,10.700806,1.216626,2.216724,1.926025,-0.098096,1.2573,0.112451,2.652173,sorry
1616135616.7710087,1,12.0,55.0,65.0,73.0,58.0,0.752197,0.61261,-0.233826,0.064819,-0.152672,0.160305,0.21374,6.459961,10.51897,1.184326,2.233472,1.783667,-0.187817,1.336255,0.185425,2.525366,sorry
1616135616.7811062,1,12.0,53.0,64.0,73.0,57.0,0.753845,0.609741,-0.23468,0.069275,-0.152672,0.183206,0.236641,6.499438,10.201953,1.169971,2.203564,1.510913,-0.261987,1.418799,0.221313,2.266968,sorry
1616135616.7910526,1,12.0,55.0,64.0,71.0,57.0,0.755676,0.606628,-0.235352,0.074036,-0.160305,0.198473,0.236641,6.465942,9.803589,1.235767,2.099487,1.159204,-0.26438,1.452295,0.179443,1.916455,sorry
1616135616.8002732,1,12.0,53.0,66.0,71.0,58.0,0.757812,0.603333,-0.235474,0.078369,-0.175573,0.206107,0.19084,6.253003,9.258081,1.399658,1.82793,0.657959,-0.177051,1.38291,0.035889,1.37334,sorry
1616135616.8109884,1,13.0,54.0,65.0,71.0,58.0,0.760376,0.599976,-0.234985,0.081421,-0.206107,0.175573,0.099237,5.855835,8.598926,1.610205,1.396069,0.031104,-0.05144,1.223804,-0.162695,0.653174,sorry
1616135616.8210602,1,15.0,53.0,65.0,71.0,58.0,0.763245,0.596497,-0.23407,0.082397,-0.244275,0.114504,-0.007634,5.498145,7.778272,1.815967,1.032398,-0.766821,0.063403,1.198682,-0.428271,-0.186621,sorry
1616135616.831053,1,11.0,51.0,63.0,73.0,58.0,0.766357,0.592834,-0.233276,0.08197,-0.274809,0.068702,-0.076336,5.230176,6.686059,1.9021,0.772803,-1.843481,0.057422,1.404443,-0.692651,-1.241748,sorry
1616135616.8409925,1,12.0,53.0,64.0,72.0,58.0,0.769348,0.589417,-0.232605,0.080811,-0.259542,0.045802,-0.122137,4.988525,5.383301,1.862622,0.546704,-3.135474,-0.066992,1.746582,-0.934302,-2.490674,sorry
1616135616.8509734,1,11.0,53.0,65.0,72.0,58.0,0.771851,0.586731,-0.231689,0.079407,-0.19084,0.038168,-0.160305,4.610498,4.114038,1.717871,0.191406,-4.401147,-0.282324,1.978662,-1.077856,-3.794629,sorry
1616135616.8609211,1,12.0,49.0,66.0,74.0,58.0,0.773438,0.585327,-0.230347,0.077576,-0.099237,0.022901,-0.206107,4.020728,3.091211,1.53125,-0.360083,-5.431152,-0.512012,1.934399,-1.107764,-4.990918,sorry
1616135616.87119,1,12.0,55.0,64.0,73.0,58.0,0.774231,0.58551,-0.22821,0.07489,-0.015267,0.007634,-0.274809,3.241943,2.42727,1.386499,-1.080249,-6.122607,-0.672314,1.568335,-1.058716,-5.958716,sorry
1616135616.8810437,1,11.0,53.0,65.0,72.0,58.0,0.774414,0.587097,-0.224854,0.070984,0.061069,0.0,-0.358779,2.356689,2.159302,1.291992,-1.872192,-6.438428,-0.76084,0.945068,-0.929517,-6.615479,sorry
1616135616.891165,1,13.0,55.0,66.0,72.0,58.0,0.774048,0.589783,-0.220398,0.065735,0.114504,-0.015267,-0.450382,1.46665,2.219116,1.272852,-2.636621,-6.444409,-0.756055,0.172266,-0.775195,-6.957617,sorry
1616135616.9010146,1,13.0,55.0,63.0,69.0,58.0,0.773315,0.593506,-0.214783,0.059082,0.152672,-0.022901,-0.541985,0.474927,2.622266,1.21543,-3.466846,-6.123804,-0.775195,-0.797925,-0.467749,-7.017432,sorry
1616135616.911113,1,10.0,52.0,66.0,72.0,27.0,0.772156,0.598206,-0.208069,0.050842,0.19084,-0.045802,-0.625954,-0.468945,3.289795,1.125708,-4.21333,-5.555566,-0.811084,-1.79563,-0.065796,-6.784155,sorry
1616135616.9210348,1,9.0,54.0,64.0,68.0,54.0,0.770508,0.603638,-0.200439,0.041321,0.21374,-0.053435,-0.694656,-1.283618,4.157104,1.012061,-4.799512,-4.795923,-0.857739,-2.708398,0.382812,-6.267358,sorry
1616135616.9310532,1,13.0,54.0,64.0,68.0,57.0,0.768494,0.609497,-0.192139,0.031006,0.236641,-0.053435,-0.748092,-1.91167,5.094995,0.894824,-5.175147,-3.968091,-0.899609,-3.432153,0.806299,-5.557959,sorry
1616135616.941017,1,11.0,52.0,64.0,72.0,58.0,0.766052,0.615723,-0.183044,0.020569,0.259542,-0.015267,-0.778626,-2.392578,5.941968,0.778784,-5.388086,-3.228784,-0.931909,-3.953735,1.153223,-4.831811,sorry
1616135616.951109,1,12.0,53.0,65.0,71.0,58.0,0.763123,0.622375,-0.173462,0.010437,0.305344,0.007634,-0.763359,-2.903394,6.690845,0.594556,-5.624951,-2.581592,-1.021631,-4.428662,1.518091,-4.172656,sorry
1616135616.9610698,1,11.0,53.0,64.0,73.0,58.0,0.759216,0.6297,-0.164246,0.000977,0.381679,0.0,-0.709924,-3.371143,7.372729,0.388794,-5.827124,-1.994214,-1.10896,-4.821045,1.844678,-3.535034,sorry
1616135616.9711306,1,12.0,53.0,66.0,70.0,57.0,0.75415,0.637817,-0.155884,-0.007751,0.473282,-0.030534,-0.641221,-3.785058,8.113233,0.211743,-5.992212,-1.337451,-1.136475,-5.170362,2.103076,-2.795727,sorry
1616135616.9810195,1,15.0,51.0,66.0,73.0,58.0,0.747864,0.64679,-0.14856,-0.01593,0.564885,-0.061069,-0.580153,-4.096094,8.99729,0.070581,-6.071167,-0.52876,-1.096997,-5.444312,2.281323,-1.868603,sorry
1616135616.991013,1,9.0,56.0,67.0,71.0,58.0,0.74054,0.656311,-0.142151,-0.02356,0.633588,-0.091603,-0.526718,-4.248023,10.034472,0.004785,-6.007764,0.442627,-0.954639,-5.593848,2.312427,-0.739307,sorry
1616135617.0009472,1,13.0,54.0,68.0,72.0,58.0,0.732727,0.665894,-0.136719,-0.030823,0.656489,-0.122137,-0.480916,-4.305444,11.202051,-0.035889,-5.866601,1.555176,-0.777588,-5.66084,2.257397,0.537134,sorry
1616135617.010946,1,13.0,55.0,66.0,71.0,58.0,0.724731,0.67511,-0.132202,-0.037903,0.648855,-0.160305,-0.435115,-4.167871,12.37561,-0.089722,-5.543603,2.686865,-0.6125,-5.516089,2.116235,1.844678,sorry
1616135617.0210662,1,13.0,53.0,67.0,71.0,58.0,0.716919,0.683594,-0.128845,-0.044617,0.610687,-0.19084,-0.389313,-3.858032,13.467822,-0.197388,-5.069873,3.74917,-0.510815,-5.175147,1.941577,3.073267,sorry
1616135617.031018,1,13.0,56.0,65.0,70.0,58.0,0.709595,0.691223,-0.126404,-0.051025,0.564885,-0.206107,-0.358779,-3.392676,14.542089,-0.339746,-4.45857,4.801904,-0.460571,-4.66792,1.734619,4.280322,sorry
1616135617.041123,1,13.0,52.0,66.0,72.0,58.0,0.702454,0.698364,-0.124817,-0.05719,0.534351,-0.236641,-0.328244,-2.751465,15.458447,-0.539526,-3.686963,5.70271,-0.474927,-3.962109,1.500147,5.327075,sorry
1616135617.0505834,1,11.0,55.0,64.0,71.0,57.0,0.695557,0.704773,-0.124512,-0.062805,0.503817,-0.274809,-0.274809,-1.893726,16.303028,-0.805103,-2.722754,6.541308,-0.564648,-3.044556,1.251318,6.298462,sorry
1616135617.0601492,1,11.0,53.0,64.0,70.0,56.0,0.688965,0.710571,-0.125671,-0.067444,0.473282,-0.290076,-0.198473,-0.788355,17.086597,-1.102978,-1.545605,7.324878,-0.69624,-1.922436,0.949854,7.205249,sorry
1616135617.07042,1,11.0,54.0,66.0,71.0,58.0,0.682617,0.715881,-0.128174,-0.07074,0.465649,-0.282443,-0.129771,0.411523,17.75293,-1.441528,-0.309839,7.997192,-0.873291,-0.750073,0.643604,7.987622,sorry
1616135617.0804255,1,11.0,55.0,64.0,73.0,57.0,0.676453,0.720947,-0.131714,-0.072632,0.450382,-0.259542,-0.053435,1.705908,18.242212,-1.73103,0.985742,8.496045,-1.00249,0.44502,0.248828,8.595337,sorry
1616135617.0902758,1,11.0,52.0,66.0,68.0,56.0,0.670959,0.72522,-0.135925,-0.072693,0.412214,-0.198473,0.030534,3.081641,18.602295,-1.886548,2.326782,8.870483,-1.014453,1.623364,-0.272754,9.076245,sorry
1616135617.1010206,1,12.0,53.0,65.0,73.0,58.0,0.666626,0.728577,-0.140564,-0.070557,0.343511,-0.10687,0.122137,4.526758,18.866674,-1.949951,3.696533,9.151611,-0.957031,2.776587,-0.849365,9.480591,sorry
1616135617.1102643,1,12.0,52.0,65.0,73.0,56.0,0.663574,0.730896,-0.145142,-0.06604,0.274809,0.0,0.19084,5.876172,19.060474,-1.957129,4.933496,9.365747,-0.873291,3.768311,-1.370947,9.834692,sorry
1616135617.1202593,1,12.0,53.0,66.0,57.0,58.0,0.661804,0.732117,-0.149475,-0.059814,0.19084,0.083969,0.251908,6.954028,19.202831,-1.868603,5.872583,9.530835,-0.723755,4.441821,-1.815967,10.137354,sorry
1616135617.1304338,1,14.0,53.0,67.0,72.0,58.0,0.66156,0.732056,-0.153625,-0.052979,0.076336,0.114504,0.29771,7.682569,19.308105,-1.690356,6.450391,9.655249,-0.522778,4.76123,-2.152124,10.381396,sorry
1616135617.1403952,1,11.0,52.0,65.0,72.0,58.0,0.663208,0.730103,-0.157837,-0.046143,-0.091603,0.122137,0.335878,8.211329,19.385864,-1.378125,6.818848,9.752149,-0.240454,4.865308,-2.445215,10.581177,sorry
1616135617.1501973,1,12.0,53.0,67.0,73.0,58.0,0.667297,0.72583,-0.162048,-0.039429,-0.290076,0.137405,0.366412,8.557055,19.227955,-1.043164,6.998291,9.608594,-0.001196,4.853345,-2.558862,10.542895,sorry
1616135617.160139,1,13.0,55.0,65.0,73.0,58.0,0.673645,0.71936,-0.166077,-0.032715,-0.480916,0.167939,0.389313,8.698217,18.597509,-0.729736,6.965991,8.992505,0.153125,4.771997,-2.452393,10.029688,sorry
1616135617.170528,1,13.0,53.0,65.0,74.0,58.0,0.681763,0.711121,-0.169556,-0.026001,-0.633588,0.21374,0.396947,8.693433,17.484961,-0.456982,6.790137,7.895508,0.217725,4.707397,-2.188013,9.028394,sorry
1616135617.180334,1,13.0,54.0,64.0,72.0,58.0,0.691101,0.701599,-0.172424,-0.018982,-0.740458,0.267176,0.40458,8.504419,15.968066,-0.261987,6.428857,6.400146,0.168677,4.615283,-1.792041,7.601221,sorry
1616135617.190136,1,15.0,55.0,64.0,73.0,60.0,0.700867,0.691345,-0.174988,-0.011536,-0.778626,0.305344,0.419847,8.181421,14.144922,-0.203369,5.933594,4.608106,-0.033496,4.536328,-1.296777,5.845068,sorry
1616135617.2002969,1,13.0,53.0,66.0,72.0,58.0,0.710144,0.681274,-0.177551,-0.00354,-0.755725,0.328244,0.465649,7.821338,12.20813,-0.228491,5.39646,2.713184,-0.312231,4.493262,-0.836206,3.959717,sorry
1616135617.2102242,1,13.0,56.0,68.0,71.0,58.0,0.718567,0.67157,-0.18042,0.00531,-0.687023,0.351145,0.51145,7.418189,10.337133,-0.248828,4.806689,0.897217,-0.569434,4.411914,-0.489282,2.125806,sorry
1616135617.220313,1,12.0,53.0,63.0,72.0,58.0,0.72583,0.66272,-0.183472,0.014832,-0.580153,0.351145,0.541985,6.993506,8.631226,-0.272754,4.1906,-0.742895,-0.80271,4.300659,-0.24165,0.443823,sorry
1616135617.230157,1,15.0,54.0,65.0,72.0,58.0,0.731689,0.655151,-0.186523,0.024719,-0.465649,0.351145,0.541985,6.565234,7.213623,-0.278735,3.572119,-2.091113,-0.98335,4.141553,-0.084937,-0.965405,sorry
1616135617.240214,1,11.0,53.0,65.0,73.0,56.0,0.736267,0.648682,-0.189453,0.034546,-0.366412,0.335878,0.534351,6.139356,6.132178,-0.270361,2.9656,-3.099585,-1.11853,3.926221,0.020337,-2.056421,sorry
1616135617.2501636,1,12.0,55.0,66.0,72.0,58.0,0.73999,0.643005,-0.192261,0.044067,-0.305344,0.312977,0.51145,5.794824,5.31272,-0.192603,2.45,-3.846069,-1.162793,3.725244,0.028711,-2.873486,sorry
1616135617.260259,1,15.0,55.0,64.0,69.0,57.0,0.743286,0.637756,-0.19458,0.05304,-0.267176,0.312977,0.458015,5.481397,4.642798,-0.019141,1.983447,-4.44541,-1.102978,3.519482,-0.070581,-3.536231,sorry
1616135617.270192,1,20.0,54.0,67.0,70.0,58.0,0.746643,0.63269,-0.195984,0.061279,-0.267176,0.328244,0.389313,5.14165,4.098486,0.245239,1.513306,-4.923926,-0.954639,3.26228,-0.256006,-4.090112,sorry
1616135617.28007,1,13.0,53.0,66.0,73.0,57.0,0.750244,0.627502,-0.196411,0.068604,-0.290076,0.335878,0.320611,4.71936,3.612793,0.512012,0.986938,-5.349805,-0.81228,2.939282,-0.440234,-4.62605,sorry
1616135617.290218,1,20.0,53.0,66.0,71.0,58.0,0.754028,0.622375,-0.195984,0.074707,-0.29771,0.320611,0.244275,4.200171,3.157007,0.690259,0.392383,-5.752954,-0.763232,2.563648,-0.543115,-5.191895,sorry
1616135617.3001566,1,11.0,52.0,65.0,68.0,56.0,0.757812,0.617432,-0.195129,0.079529,-0.29771,0.282443,0.175573,3.647485,2.749072,0.833813,-0.212939,-6.116626,-0.746484,2.164087,-0.626855,-5.737402,sorry
1616135617.3101156,1,10.0,53.0,65.0,70.0,58.0,0.76123,0.613098,-0.194031,0.082886,-0.267176,0.221374,0.114504,2.993115,2.467944,0.929517,-0.897217,-6.364258,-0.763232,1.64729,-0.653174,-6.223096,sorry
1616135617.3203845,1,13.0,53.0,65.0,72.0,56.0,0.764221,0.609497,-0.192993,0.084534,-0.229008,0.137405,0.045802,2.347119,2.308838,1.028809,-1.552783,-6.500635,-0.758447,1.09939,-0.680689,-6.599927,sorry
1616135617.3303883,1,11.0,49.0,66.0,73.0,55.0,0.766541,0.606812,-0.192139,0.084656,-0.175573,0.053435,-0.015267,1.742993,2.249023,1.154419,-2.149731,-6.548486,-0.703418,0.551489,-0.730933,-6.865503,sorry
1616135617.340333,1,13.0,52.0,67.0,70.0,58.0,0.768127,0.605286,-0.191284,0.083252,-0.10687,-0.022901,-0.076336,1.077856,2.286108,1.227393,-2.78855,-6.513794,-0.673511,-0.072974,-0.712988,-7.079638,sorry
1616135617.3501232,1,14.0,55.0,65.0,73.0,58.0,0.768738,0.605164,-0.190308,0.080444,-0.015267,-0.091603,-0.145038,0.416309,2.369849,1.250122,-3.404639,-6.447998,-0.660352,-0.701025,-0.642407,-7.257886,sorry
1616135617.3601863,1,13.0,53.0,66.0,69.0,52.0,0.768311,0.606628,-0.189026,0.076416,0.083969,-0.145038,-0.21374,-0.22251,2.545703,1.270459,-3.976465,-6.30564,-0.614893,-1.336255,-0.553882,-7.336841,sorry
1616135617.3701746,1,11.0,53.0,64.0,72.0,58.0,0.766846,0.609741,-0.187256,0.071228,0.19084,-0.175573,-0.282443,-0.940283,2.891431,1.21543,-4.605713,-6.011353,-0.608911,-2.083935,-0.345728,-7.297363,sorry
1616135617.3801312,1,15.0,55.0,64.0,73.0,58.0,0.764221,0.614502,-0.184753,0.064636,0.282443,-0.221374,-0.358779,-1.67959,3.464453,1.105371,-5.22539,-5.505322,-0.623267,-2.903394,-0.029907,-7.038965,sorry
1616135617.3903291,1,12.0,53.0,65.0,71.0,56.0,0.76062,0.620605,-0.18158,0.05658,0.351145,-0.259542,-0.450382,-2.342334,4.257593,0.966602,-5.737402,-4.792334,-0.636426,-3.69773,0.343335,-6.517383,sorry
1616135617.400194,1,12.0,53.0,66.0,71.0,57.0,0.75647,0.627625,-0.177612,0.047302,0.389313,-0.274809,-0.519084,-2.850757,5.287598,0.893628,-6.065186,-3.853247,-0.565845,-4.401147,0.66394,-5.668017,sorry
1616135617.4102776,1,11.0,51.0,66.0,72.0,58.0,0.752197,0.634705,-0.172791,0.037048,0.381679,-0.267176,-0.587786,-3.313721,6.397754,0.81228,-6.321191,-2.834009,-0.504834,-5.037573,0.979761,-4.67749,sorry
1616135617.4202712,1,14.0,52.0,66.0,72.0,58.0,0.747864,0.641846,-0.167236,0.02594,0.366412,-0.274809,-0.633588,-3.731225,7.503125,0.68667,-6.507812,-1.819556,-0.489282,-5.566333,1.300366,-3.634326,sorry
1616135617.43021,1,14.0,53.0,65.0,72.0,58.0,0.743591,0.648499,-0.161804,0.014404,0.335878,-0.290076,-0.633588,-3.94895,8.481689,0.584985,-6.489868,-0.923535,-0.456982,-5.830713,1.519287,-2.617481,sorry
1616135617.4401946,1,13.0,52.0,65.0,68.0,58.0,0.739441,0.654602,-0.156982,0.003052,0.305344,-0.29771,-0.59542,-4.033887,9.364551,0.476123,-6.34751,-0.112451,-0.441431,-5.909668,1.686768,-1.648486,sorry
1616135617.4502754,1,12.0,53.0,65.0,69.0,57.0,0.735352,0.660217,-0.152588,-0.007996,0.282443,-0.305344,-0.572519,-3.953735,10.206738,0.363672,-6.048438,0.666333,-0.435449,-5.788843,1.796826,-0.679492,sorry
1616135617.4602408,1,13.0,52.0,65.0,72.0,58.0,0.731262,0.665405,-0.148499,-0.018738,0.274809,-0.29771,-0.564885,-3.78147,10.993896,0.211743,-5.664429,1.402051,-0.476123,-5.532837,1.893726,0.248828,sorry
1616135617.470159,1,13.0,54.0,67.0,71.0,58.0,0.727051,0.670471,-0.144714,-0.029175,0.274809,-0.29771,-0.549618,-3.523071,11.740381,0.068188,-5.201465,2.103076,-0.509619,-5.165576,1.930811,1.146045,sorry
1616135617.480149,1,13.0,53.0,64.0,73.0,57.0,0.722595,0.675476,-0.141235,-0.039185,0.282443,-0.305344,-0.526718,-3.204858,12.489258,-0.107666,-4.685864,2.813672,-0.571826,-4.713379,1.947559,2.042065,sorry
1616135617.4902313,1,15.0,53.0,66.0,71.0,56.0,0.717896,0.680481,-0.13855,-0.048706,0.29771,-0.312977,-0.48855,-2.733521,13.239331,-0.26438,-4.032691,3.531445,-0.611304,-4.115234,1.874585,2.940479,sorry
1616135617.5001602,1,12.0,54.0,66.0,70.0,56.0,0.713013,0.685181,-0.136902,-0.057373,0.305344,-0.328244,-0.427481,-2.089917,14.009741,-0.356494,-3.232373,4.280322,-0.586182,-3.380713,1.666431,3.858032,sorry
1616135617.5101612,1,12.0,49.0,66.0,73.0,58.0,0.708313,0.689453,-0.136475,-0.065063,0.290076,-0.335878,-0.358779,-1.314722,14.866284,-0.477319,-2.329175,5.120117,-0.594556,-2.545703,1.430762,4.842578,sorry
1616135617.520016,1,11.0,53.0,67.0,71.0,58.0,0.703735,0.693359,-0.136963,-0.071655,0.290076,-0.328244,-0.312977,-0.330176,15.570898,-0.628052,-1.245337,5.813965,-0.636426,-1.516895,1.134082,5.67041,sorry
1616135617.530177,1,12.0,52.0,68.0,70.0,54.0,0.699097,0.697205,-0.138428,-0.076782,0.305344,-0.305344,-0.244275,0.814673,16.136744,-0.849365,-0.0323,6.375024,-0.744092,-0.352905,0.820654,6.354688,sorry
1616135617.5401173,1,14.0,55.0,66.0,75.0,57.0,0.694336,0.701111,-0.14093,-0.080017,0.328244,-0.267176,-0.145038,2.024121,16.642773,-1.134082,1.204663,6.879858,-0.90918,0.825439,0.519189,6.974365,sorry
1616135617.5501993,1,17.0,55.0,66.0,71.0,58.0,0.689392,0.705078,-0.144714,-0.081238,0.358779,-0.236641,-0.030534,3.154614,17.178711,-1.492969,2.320801,7.420581,-1.137671,1.866211,0.289502,7.626343,sorry
1616135617.5600336,1,11.0,52.0,66.0,73.0,57.0,0.684509,0.708862,-0.149597,-0.080505,0.358779,-0.198473,0.091603,4.261182,17.764893,-1.819556,3.372339,8.017529,-1.330273,2.783765,0.026318,8.345312,sorry
1616135617.5701942,1,13.0,53.0,68.0,72.0,58.0,0.680237,0.712036,-0.155457,-0.077637,0.320611,-0.145038,0.206107,5.323486,18.250586,-2.032495,4.334155,8.519971,-1.419995,3.542212,-0.297876,8.984131,sorry
1616135617.5800304,1,12.0,53.0,68.0,72.0,58.0,0.677246,0.713989,-0.161804,-0.072876,0.236641,-0.068702,0.312977,6.230273,18.593922,-2.14375,5.102173,8.884839,-1.437939,4.068579,-0.593359,9.492554,sorry
1616135617.5900848,1,13.0,55.0,65.0,72.0,57.0,0.675903,0.714417,-0.168152,-0.066345,0.122137,0.015267,0.412214,6.876269,18.693213,-2.130591,5.5771,9.009253,-1.370947,4.297071,-0.813477,9.746167,sorry
1616135617.6000218,1,13.0,52.0,66.0,70.0,47.0,0.676392,0.713135,-0.174438,-0.058533,-0.015267,0.083969,0.496183,7.218408,18.494629,-2.028906,5.723047,8.83938,-1.263281,4.238452,-0.896021,9.679174,sorry
1616135617.6100204,1,13.0,53.0,65.0,69.0,58.0,0.678711,0.710083,-0.180603,-0.049805,-0.160305,0.145038,0.572519,7.332056,17.934765,-1.781274,5.622559,8.311816,-1.058716,3.992017,-0.931909,9.2198,sorry
1616135617.6199777,1,12.0,53.0,66.0,73.0,45.0,0.682739,0.705261,-0.186401,-0.040649,-0.282443,0.19084,0.610687,7.163379,16.994482,-1.464258,5.230176,7.407422,-0.832617,3.572119,-0.862524,8.329761,sorry
1616135617.6301775,1,13.0,53.0,66.0,72.0,46.0,0.687805,0.699402,-0.191589,-0.031677,-0.374046,0.21374,0.603053,6.787744,15.753931,-1.134082,4.638013,6.206347,-0.625659,3.087622,-0.72854,7.095191,sorry
1616135617.6400506,1,18.0,54.0,65.0,71.0,55.0,0.693542,0.692749,-0.196228,-0.023071,-0.427481,0.221374,0.587786,6.352295,14.34231,-0.72854,3.997998,4.836596,-0.366064,2.636621,-0.6771,5.664429,sorry
1616135617.6500611,1,16.0,53.0,66.0,72.0,57.0,0.699768,0.685486,-0.2005,-0.014954,-0.465649,0.221374,0.572519,5.815161,12.876856,-0.303857,3.265869,3.415405,-0.105273,2.165283,-0.661548,4.147534,sorry
1616135617.6599991,1,12.0,53.0,64.0,71.0,56.0,0.706055,0.677917,-0.204529,-0.007507,-0.480916,0.198473,0.541985,5.239746,11.379102,0.092114,2.508618,1.966699,0.119629,1.737012,-0.6771,2.586377,sorry
1616135617.6700494,1,10.0,53.0,63.0,70.0,58.0,0.711975,0.670532,-0.208313,-0.000732,-0.450382,0.175573,0.503817,4.730127,9.870581,0.449805,1.832715,0.509619,0.313428,1.437939,-0.76084,1.032398,sorry
1616135617.6801455,1,11.0,52.0,66.0,72.0,58.0,0.717285,0.663696,-0.211975,0.005554,-0.396947,0.145038,0.473282,4.32937,8.515185,0.766821,1.27644,-0.791943,0.480908,1.24773,-0.902002,-0.339746,sorry
1616135617.6895895,1,13.0,52.0,66.0,70.0,57.0,0.721741,0.657654,-0.215454,0.011536,-0.328244,0.137405,0.435115,4.049438,7.359571,1.047949,0.851758,-1.894922,0.635229,1.152026,-1.087427,-1.484595,sorry
1616135617.699373,1,12.0,52.0,65.0,71.0,56.0,0.725464,0.652466,-0.218262,0.017273,-0.259542,0.152672,0.381679,3.837695,6.427661,1.264477,0.513208,-2.775391,0.741699,1.105371,-1.251318,-2.392578,sorry
1616135617.7101216,1,11.0,53.0,66.0,69.0,58.0,0.728516,0.648193,-0.220154,0.022644,-0.198473,0.167939,0.312977,3.6104,5.784058,1.440332,0.178247,-3.373535,0.825439,0.994116,-1.367358,-3.037378,sorry
1616135617.7200503,1,15.0,53.0,66.0,70.0,56.0,0.731201,0.644714,-0.22113,0.027283,-0.160305,0.167939,0.244275,3.32688,5.414404,1.57312,-0.186621,-3.706104,0.878076,0.782373,-1.411621,-3.453686,sorry
1616135617.7293878,1,12.0,52.0,66.0,69.0,57.0,0.733521,0.641785,-0.221436,0.030945,-0.145038,0.145038,0.19084,2.9979,5.299561,1.64729,-0.574219,-3.792236,0.881665,0.480908,-1.364966,-3.658252,sorry
1616135617.7400198,1,13.0,57.0,65.0,74.0,57.0,0.735718,0.63916,-0.221497,0.033508,-0.152672,0.10687,0.137405,2.653369,5.410815,1.635327,-0.959424,-3.659448,0.803906,0.12561,-1.204663,-3.672607,sorry
1616135617.7491364,1,12.0,53.0,63.0,72.0,57.0,0.737793,0.636719,-0.221375,0.03479,-0.160305,0.068702,0.091603,2.32439,5.673999,1.504932,-1.309937,-3.381909,0.611304,-0.223706,-0.912769,-3.555371,sorry
1616135617.7603216,1,11.0,55.0,65.0,72.0,57.0,0.739685,0.634521,-0.221313,0.035156,-0.175573,0.030534,0.061069,2.075562,5.998193,1.244141,-1.569531,-3.048145,0.295483,-0.479712,-0.508423,-3.36875,sorry
1616135617.7697167,1,15.0,52.0,67.0,73.0,58.0,0.741211,0.63269,-0.221436,0.034912,-0.160305,0.007634,0.038168,1.91167,6.363061,0.893628,-1.738208,-2.676099,-0.098096,-0.647192,-0.035889,-3.124707,sorry
1616135617.780127,1,13.0,53.0,66.0,73.0,58.0,0.742371,0.631348,-0.221375,0.034546,-0.129771,0.007634,0.022901,1.7729,6.749463,0.488086,-1.874585,-2.286108,-0.537134,-0.776392,0.480908,-2.861523,sorry
1616135617.78994,1,11.0,52.0,63.0,73.0,56.0,0.742859,0.630859,-0.221191,0.03418,-0.083969,0.007634,0.022901,1.680786,7.113135,0.090918,-1.961914,-1.923633,-0.948657,-0.858936,0.963013,-2.603125,sorry
1616135617.799278,1,13.0,55.0,64.0,72.0,58.0,0.742737,0.631104,-0.220947,0.034058,-0.015267,0.022901,0.022901,1.653271,7.452881,-0.24165,-1.983447,-1.586279,-1.27644,-0.897217,1.349414,-2.33396,sorry
1616135617.80996,1,9.0,51.0,66.0,71.0,58.0,0.741943,0.632202,-0.220459,0.034485,0.053435,0.038168,0.022901,1.678394,7.783057,-0.477319,-1.954736,-1.260889,-1.48938,-0.921143,1.613794,-2.042065,sorry
1616135617.8193524,1,13.0,51.0,66.0,71.0,58.0,0.74054,0.634033,-0.219666,0.035339,0.114504,0.061069,0.022901,1.719067,8.149121,-0.604126,-1.908081,-0.900806,-1.577905,-0.977368,1.76333,-1.693945,sorry
1616135617.8300211,1,13.0,55.0,66.0,73.0,58.0,0.738831,0.636353,-0.218628,0.036438,0.160305,0.076336,0.022901,1.771704,8.548681,-0.614893,-1.848267,-0.509619,-1.539624,-1.070679,1.790845,-1.29917,sorry
1616135617.8393836,1,16.0,55.0,66.0,72.0,57.0,0.736816,0.638977,-0.217407,0.037659,0.183206,0.076336,0.015267,1.878174,8.941065,-0.5479,-1.732227,-0.12561,-1.417603,-1.135278,1.720264,-0.879272,sorry
1616135617.8492615,1,13.0,55.0,65.0,72.0,57.0,0.734863,0.641663,-0.216125,0.038818,0.19084,0.076336,0.0,2.039673,9.29397,-0.405542,-1.561157,0.215332,-1.219019,-1.155615,1.550391,-0.474927,sorry
1616135617.859439,1,12.0,52.0,66.0,72.0,56.0,0.733032,0.644104,-0.214783,0.039795,0.175573,0.068702,-0.015267,2.241846,9.579883,-0.212939,-1.345825,0.492871,-0.976172,-1.124512,1.313525,-0.111255,sorry
1616135617.8691714,1,12.0,53.0,65.0,72.0,57.0,0.731445,0.646301,-0.21344,0.040405,0.160305,0.053435,-0.038168,2.452393,9.827515,0.002393,-1.11853,0.730933,-0.716577,-1.070679,1.049145,0.217725,sorry
1616135617.8791995,1,11.0,51.0,67.0,73.0,58.0,0.730103,0.648254,-0.212097,0.040405,0.129771,0.030534,-0.061069,2.648584,10.050024,0.203369,-0.899609,0.940283,-0.477319,-1.006079,0.800317,0.514404,sorry
1616135617.889331,1,13.0,53.0,65.0,73.0,57.0,0.729065,0.649902,-0.210876,0.039856,0.099237,0.0,-0.083969,2.88186,10.243823,0.393579,-0.638818,1.120923,-0.25481,-0.88645,0.553882,0.796728,sorry
1616135617.8992298,1,15.0,55.0,67.0,70.0,58.0,0.728271,0.651123,-0.209839,0.03894,0.076336,-0.007634,-0.091603,3.162988,10.386182,0.563452,-0.328979,1.251318,-0.062207,-0.695044,0.317017,1.04436,sorry
1616135617.909369,1,12.0,52.0,67.0,69.0,58.0,0.727783,0.6521,-0.208862,0.038086,0.053435,-0.007634,-0.091603,3.417798,10.471118,0.701025,-0.047852,1.324292,0.089722,-0.500049,0.117236,1.223804,sorry
1616135617.919386,1,16.0,55.0,65.0,69.0,58.0,0.727356,0.652832,-0.208008,0.037354,0.045802,0.0,-0.083969,3.628345,10.516577,0.807495,0.184229,1.361377,0.209351,-0.328979,-0.044263,1.348218,sorry
1616135617.929253,1,10.0,53.0,65.0,70.0,57.0,0.72699,0.653503,-0.207214,0.036865,0.045802,0.007634,-0.068702,3.780273,10.571607,0.90918,0.355298,1.409229,0.321802,-0.214136,-0.185425,1.460669,sorry
1616135617.9393687,1,12.0,53.0,66.0,73.0,58.0,0.726746,0.654053,-0.206543,0.036621,0.045802,0.007634,-0.045802,3.871192,10.645777,1.00249,0.459375,1.477417,0.423486,-0.165088,-0.299072,1.565942,sorry
1616135617.9493089,1,13.0,54.0,66.0,73.0,58.0,0.726562,0.654419,-0.206055,0.03656,0.030534,0.007634,-0.022901,3.913062,10.715161,1.105371,0.509619,1.543213,0.531152,-0.166284,-0.405542,1.652075,sorry
1616135617.9593923,1,14.0,54.0,63.0,72.0,58.0,0.726501,0.654541,-0.205811,0.036682,0.015267,0.0,-0.007634,3.919043,10.753443,1.189111,0.516797,1.580298,0.616089,-0.192603,-0.484497,1.693945,sorry
1616135618.4681914,1,13.0,52.0,64.0,72.0,58.0,0.73291,0.645508,-0.209656,0.046814,-0.015267,0.022901,0.007634,3.805396,9.569117,0.765625,0.200977,0.488086,-0.004785,0.017944,0.043066,0.525171,sorry
1616135618.4785137,1,13.0,26.0,64.0,70.0,58.0,0.733032,0.645386,-0.209473,0.04718,-0.007634,0.022901,0.007634,3.779077,9.560742,0.796728,0.172266,0.480908,0.020337,-0.010767,0.022729,0.509619,sorry
1616135618.4884603,1,13.0,54.0,66.0,72.0,58.0,0.733154,0.645264,-0.20929,0.047424,-0.007634,0.015267,0.0,3.750366,9.565527,0.813477,0.142358,0.48689,0.0323,-0.043066,0.019141,0.504834,sorry
1616135618.4982848,1,13.0,54.0,66.0,70.0,57.0,0.733276,0.645142,-0.209167,0.047485,-0.015267,0.007634,0.0,3.728833,9.582275,0.837402,0.122021,0.504834,0.052637,-0.072974,0.005981,0.515601,sorry
1616135618.5084033,1,12.0,55.0,66.0,72.0,57.0,0.733521,0.644958,-0.208984,0.047485,-0.015267,0.007634,-0.007634,3.706104,9.608594,0.86731,0.100488,0.529956,0.076563,-0.10647,-0.007178,0.533545,sorry
1616135618.5183916,1,12.0,51.0,63.0,70.0,56.0,0.733704,0.644775,-0.208801,0.047424,-0.022901,0.0,-0.007634,3.660645,9.64209,0.87688,0.058618,0.563452,0.080151,-0.156714,0.002393,0.549097,sorry
1616135618.5282629,1,13.0,52.0,63.0,72.0,58.0,0.733948,0.644592,-0.208618,0.04718,-0.022901,0.0,-0.007634,3.635522,9.700708,0.882861,0.038281,0.620874,0.080151,-0.193799,0.016748,0.595752,sorry
1616135618.53906,1,13.0,53.0,64.0,70.0,58.0,0.734253,0.644287,-0.208557,0.046997,-0.030534,-0.007634,-0.007634,3.631934,9.77727,0.881665,0.035889,0.69624,0.070581,-0.218921,0.039478,0.66394,sorry
1616135618.5491333,1,12.0,53.0,65.0,70.0,57.0,0.734558,0.643921,-0.208557,0.046753,-0.038168,-0.007634,0.0,3.645093,9.853833,0.885254,0.05144,0.773999,0.0646,-0.229687,0.055029,0.740503,sorry
1616135618.5585504,1,13.0,53.0,64.0,72.0,58.0,0.734985,0.643494,-0.208557,0.046509,-0.045802,-0.007634,0.0,3.654663,9.904078,0.881665,0.063403,0.823047,0.050244,-0.230884,0.076563,0.789551,sorry
1616135618.5683727,1,10.0,52.0,66.0,73.0,58.0,0.735474,0.642944,-0.208557,0.046265,-0.053435,-0.007634,0.0,3.664233,9.926806,0.869702,0.07417,0.846973,0.023926,-0.22251,0.104077,0.813477,sorry
1616135618.5784616,1,12.0,52.0,64.0,72.0,58.0,0.735901,0.642395,-0.208679,0.046082,-0.053435,-0.007634,0.007634,3.683374,9.922022,0.85415,0.092114,0.84458,-0.002393,-0.198584,0.126807,0.814673,sorry
1616135618.589003,1,12.0,54.0,66.0,68.0,58.0,0.736328,0.641846,-0.208923,0.045959,-0.053435,-0.007634,0.007634,3.7073,9.901685,0.843384,0.113647,0.826636,-0.025122,-0.16748,0.142358,0.803906,sorry
1616135618.598437,1,16.0,52.0,66.0,72.0,56.0,0.736694,0.641357,-0.209167,0.045898,-0.045802,-0.015267,0.015267,3.730029,9.880152,0.840991,0.132788,0.807495,-0.038281,-0.139966,0.149536,0.791943,sorry
1616135618.6083806,1,15.0,52.0,65.0,72.0,58.0,0.737,0.64093,-0.209534,0.045959,-0.038168,-0.007634,0.022901,3.75874,9.875366,0.852954,0.154321,0.805103,-0.034692,-0.120825,0.142358,0.797925,sorry
1616135618.6182842,1,12.0,52.0,66.0,72.0,56.0,0.737244,0.640503,-0.2099,0.046082,-0.030534,-0.007634,0.030534,3.777881,9.902881,0.866113,0.166284,0.836206,-0.028711,-0.123218,0.139966,0.831421,sorry
1616135618.6284585,1,13.0,52.0,64.0,71.0,58.0,0.737488,0.640076,-0.210388,0.046326,-0.038168,-0.015267,0.038168,3.795825,9.948339,0.900806,0.173462,0.88645,-0.001196,-0.141162,0.122021,0.882861,sorry
1616135618.6382985,1,12.0,54.0,66.0,73.0,58.0,0.737793,0.639526,-0.210876,0.04657,-0.038168,-0.015267,0.038168,3.836499,10.003369,0.954639,0.202173,0.947461,0.04187,-0.147144,0.087329,0.953442,sorry
1616135618.648374,1,12.0,55.0,66.0,72.0,58.0,0.73822,0.638794,-0.211487,0.046875,-0.053435,-0.015267,0.045802,3.867603,10.065577,1.014453,0.220117,1.016846,0.088525,-0.16748,0.052637,1.028809,sorry
1616135618.6582236,1,15.0,53.0,65.0,71.0,58.0,0.738831,0.637878,-0.212097,0.04718,-0.068702,-0.015267,0.053435,3.898706,10.11582,1.068286,0.236865,1.074268,0.124414,-0.181836,0.027515,1.091016,sorry
1616135618.668415,1,10.0,54.0,64.0,74.0,58.0,0.739502,0.63678,-0.212952,0.047485,-0.076336,-0.022901,0.061069,3.951343,10.152905,1.117334,0.271558,1.120923,0.153125,-0.175854,0.004785,1.149634,sorry
1616135618.6783316,1,16.0,53.0,66.0,31.0,56.0,0.740295,0.635498,-0.213867,0.047852,-0.083969,-0.022901,0.068702,4.047046,10.178027,1.17356,0.346924,1.156811,0.185425,-0.129199,-0.029907,1.214233,sorry
1616135618.6883807,1,12.0,53.0,65.0,73.0,57.0,0.741089,0.634155,-0.214966,0.048523,-0.091603,-0.015267,0.083969,4.176245,10.18999,1.21543,0.449805,1.181934,0.203369,-0.052637,-0.059814,1.277637,sorry
1616135618.6984763,1,15.0,53.0,65.0,72.0,58.0,0.741882,0.632751,-0.216125,0.049438,-0.083969,-0.007634,0.099237,4.331763,10.192383,1.23457,0.575415,1.199878,0.197388,0.05144,-0.070581,1.342236,sorry
1616135618.70874,1,13.0,55.0,66.0,72.0,58.0,0.742554,0.631348,-0.217529,0.050842,-0.076336,0.007634,0.122137,4.530347,10.178027,1.238159,0.734522,1.205859,0.178247,0.192603,-0.078955,1.406836,sorry
1616135618.7182028,1,17.0,53.0,65.0,72.0,55.0,0.743103,0.630005,-0.219116,0.052795,-0.061069,0.015267,0.152672,4.77439,10.158887,1.227393,0.930713,1.209448,0.14834,0.368457,-0.082544,1.484595,sorry
1616135618.7283566,1,13.0,56.0,65.0,73.0,58.0,0.743408,0.628784,-0.220886,0.055359,-0.038168,0.030534,0.183206,5.060303,10.154101,1.216626,1.159204,1.230981,0.123218,0.563452,-0.094507,1.59585,sorry
1616135618.738379,1,12.0,55.0,66.0,70.0,56.0,0.743591,0.627625,-0.222839,0.058594,-0.022901,0.045802,0.206107,5.360571,10.197168,1.196289,1.391284,1.305151,0.090918,0.740503,-0.086133,1.757349,sorry
1616135618.7483735,1,13.0,53.0,65.0,70.0,57.0,0.743652,0.626465,-0.224915,0.062317,-0.022901,0.061069,0.236641,5.658447,10.28689,1.185522,1.61499,1.429565,0.069385,0.885254,-0.075366,1.965503,sorry
1616135618.7584188,1,15.0,52.0,66.0,73.0,56.0,0.743774,0.625122,-0.227112,0.066406,-0.022901,0.068702,0.259542,5.983838,10.374219,1.18313,1.859033,1.556372,0.052637,1.040771,-0.068188,2.188013,sorry
1616135618.7683916,1,12.0,55.0,65.0,70.0,58.0,0.743958,0.623474,-0.229492,0.070862,-0.045802,0.083969,0.274809,6.319995,10.431641,1.193897,2.106665,1.658057,0.045459,1.202271,-0.071777,2.394971,sorry
1616135618.778202,1,9.0,52.0,66.0,71.0,58.0,0.744446,0.62146,-0.231934,0.075623,-0.068702,0.099237,0.290076,6.63103,10.430445,1.196289,2.325586,1.705908,0.020337,1.358984,-0.058618,2.542114,sorry
1616135618.7882743,1,12.0,53.0,65.0,70.0,57.0,0.745117,0.61908,-0.234375,0.080566,-0.091603,0.10687,0.305344,6.910962,10.376612,1.195093,2.509815,1.704712,-0.014355,1.504932,-0.037085,2.633032,sorry
1616135618.798442,1,15.0,52.0,66.0,73.0,57.0,0.746155,0.616211,-0.236877,0.085754,-0.122137,0.122137,0.320611,7.180127,10.20315,1.219019,2.679688,1.588672,-0.037085,1.680786,-0.044263,2.621069,sorry
1616135618.8084528,1,11.0,55.0,66.0,70.0,56.0,0.747437,0.612915,-0.239258,0.09137,-0.145038,0.152672,0.328244,7.409814,9.917236,1.211841,2.806494,1.366162,-0.101685,1.875781,-0.025122,2.495459,sorry
1616135618.8185534,1,13.0,55.0,65.0,72.0,58.0,0.74884,0.609436,-0.241333,0.097351,-0.145038,0.19084,0.328244,7.586865,9.506909,1.208252,2.88186,1.021631,-0.168677,2.081543,-0.021533,2.244238,sorry
1616135618.8285236,1,11.0,53.0,63.0,70.0,55.0,0.750427,0.605774,-0.243103,0.10376,-0.152672,0.229008,0.335878,7.672998,8.982935,1.226196,2.865112,0.567041,-0.22251,2.262183,-0.045459,1.859033,sorry
1616135618.838297,1,43.0,53.0,66.0,71.0,56.0,0.752075,0.601929,-0.244446,0.110596,-0.145038,0.267176,0.328244,7.736402,8.348902,1.297974,2.828027,0.004785,-0.228491,2.471533,-0.141162,1.384106,sorry
1616135618.8482242,1,13.0,53.0,64.0,72.0,58.0,0.753845,0.598022,-0.245178,0.117737,-0.137405,0.312977,0.312977,7.70769,7.600024,1.390088,2.70481,-0.669922,-0.220117,2.668921,-0.27395,0.778784,sorry
1616135618.8581977,1,12.0,53.0,66.0,71.0,58.0,0.755798,0.594238,-0.244934,0.124939,-0.122137,0.351145,0.267176,7.478003,6.759033,1.445117,2.393775,-1.443921,-0.257202,2.781372,-0.376831,-0.010767,sorry
1616135618.8682945,1,10.0,54.0,66.0,70.0,58.0,0.757568,0.591064,-0.243591,0.131531,-0.083969,0.366412,0.19084,7.012647,5.883349,1.425977,1.870996,-2.264575,-0.362476,2.764624,-0.421094,-0.966602,sorry
1616135618.8782732,1,11.0,51.0,65.0,71.0,57.0,0.759094,0.588928,-0.241089,0.13678,-0.030534,0.351145,0.076336,6.29248,5.093799,1.324292,1.125708,-3.021826,-0.537134,2.548096,-0.381616,-2.010962,sorry
1616135618.8885946,1,12.0,52.0,65.0,70.0,58.0,0.760193,0.588196,-0.237549,0.140015,0.015267,0.29771,-0.053435,5.437134,4.590161,1.233374,0.283521,-3.521875,-0.678296,2.106665,-0.313428,-2.897412,sorry
1616135618.8983288,1,15.0,53.0,66.0,72.0,58.0,0.761292,0.58844,-0.232971,0.14093,0.022901,0.244275,-0.175573,4.504028,4.527954,1.246533,-0.596948,-3.608008,-0.702222,1.386499,-0.25481,-3.445312,sorry
1616135618.908399,1,13.0,55.0,66.0,71.0,58.0,0.762756,0.588928,-0.227722,0.139343,-0.022901,0.175573,-0.282443,3.477612,4.743286,1.303955,-1.534839,-3.438135,-0.680689,0.461768,-0.178247,-3.793433,sorry
1616135618.918372,1,12.0,50.0,63.0,104.0,55.0,0.764954,0.589172,-0.222107,0.135193,-0.099237,0.10687,-0.389313,2.506226,5.030396,1.380518,-2.384204,-3.214429,-0.647192,-0.437842,-0.111255,-4.027905,sorry
1616135618.9282846,1,13.0,52.0,65.0,71.0,58.0,0.767883,0.58905,-0.216064,0.128906,-0.167939,0.061069,-0.48855,1.593457,5.21582,1.422388,-3.14624,-3.103174,-0.660352,-1.223804,-0.033496,-4.295874,sorry
1616135618.9383123,1,10.0,53.0,65.0,71.0,56.0,0.77124,0.588745,-0.209473,0.120911,-0.206107,0.038168,-0.580153,0.715381,5.244531,1.418799,-3.846069,-3.158203,-0.726147,-1.896118,0.050244,-4.657153,sorry
1616135618.9483793,1,13.0,51.0,63.0,73.0,58.0,0.774658,0.588684,-0.202026,0.111694,-0.19084,0.038168,-0.664122,-0.096899,5.072266,1.398462,-4.452588,-3.422583,-0.807495,-2.423682,0.095703,-5.127295,sorry
1616135618.958455,1,16.0,54.0,68.0,69.0,58.0,0.777588,0.589478,-0.193481,0.101746,-0.114504,0.045802,-0.748092,-0.864917,4.737305,1.351807,-4.988525,-3.860425,-0.902002,-2.855542,0.113647,-5.69314,sorry
1616135618.9683292,1,15.0,55.0,64.0,72.0,58.0,0.779419,0.591858,-0.183838,0.09137,0.022901,0.068702,-0.80916,-1.629346,4.384399,1.2896,-5.496948,-4.326978,-0.980957,-3.299365,0.128003,-6.243433,sorry
1616135618.978212,1,12.0,55.0,66.0,73.0,58.0,0.779663,0.596191,-0.173279,0.080994,0.183206,0.068702,-0.832061,-2.368652,4.147534,1.235767,-5.962305,-4.68706,-1.007275,-3.789844,0.149536,-6.642993,sorry
1616135618.988227,1,15.0,57.0,64.0,70.0,55.0,0.778137,0.602539,-0.162354,0.070923,0.358779,0.061069,-0.816794,-3.129492,4.170264,1.179541,-6.442017,-4.79353,-0.986938,-4.404737,0.23208,-6.780566,sorry
1616135618.998161,1,13.0,56.0,66.0,71.0,58.0,0.774719,0.610718,-0.151855,0.061035,0.496183,0.015267,-0.770992,-3.854443,4.505225,1.100586,-6.890625,-4.585376,-0.935498,-5.086621,0.398364,-6.583179,sorry
1616135619.0082066,1,13.0,52.0,67.0,72.0,56.0,0.769714,0.620178,-0.142273,0.051208,0.603053,-0.053435,-0.725191,-4.421484,5.166772,1.04436,-7.189697,-4.04585,-0.819458,-5.699121,0.583789,-5.98982,sorry
1616135619.0183473,1,13.0,53.0,41.0,71.0,57.0,0.76355,0.630371,-0.133728,0.041016,0.656489,-0.129771,-0.694656,-4.827026,6.055615,0.973779,-7.334448,-3.270654,-0.68667,-6.186011,0.784766,-5.105762,sorry
1616135619.0282173,1,14.0,54.0,66.0,71.0,55.0,0.756653,0.640686,-0.126221,0.030212,0.671756,-0.198473,-0.687023,-5.086621,7.050928,0.846973,-7.336841,-2.37583,-0.593359,-6.504224,1.009668,-4.057813,sorry
1616135619.038136,1,12.0,52.0,65.0,70.0,57.0,0.74939,0.65094,-0.119568,0.018738,0.664122,-0.267176,-0.687023,-5.175147,8.14314,0.66394,-7.16936,-1.37334,-0.550293,-6.62146,1.245337,-2.861523,sorry
1616135619.0482285,1,12.0,55.0,64.0,73.0,57.0,0.741821,0.660767,-0.113647,0.006531,0.633588,-0.312977,-0.70229,-5.069873,9.31311,0.395972,-6.805688,-0.278735,-0.590967,-6.488672,1.500147,-1.538428,sorry
1616135619.0582054,1,13.0,53.0,64.0,70.0,56.0,0.734192,0.670166,-0.108276,-0.006042,0.603053,-0.351145,-0.709924,-4.804297,10.542895,0.058618,-6.28291,0.885254,-0.707007,-6.136963,1.751367,-0.130396,sorry
1616135619.068292,1,12.0,52.0,63.0,72.0,57.0,0.726624,0.678833,-0.103577,-0.018738,0.557252,-0.381679,-0.694656,-4.46814,11.915039,-0.331372,-5.69314,2.20835,-0.887646,-5.659644,1.998999,1.423584,sorry
1616135619.078184,1,13.0,52.0,67.0,69.0,58.0,0.719421,0.686523,-0.100098,-0.03125,0.48855,-0.419847,-0.641221,-3.80061,13.388867,-0.702222,-4.791138,3.646289,-1.065894,-4.822241,2.121021,3.099585,sorry
1616135619.0882473,1,17.0,52.0,66.0,69.0,58.0,0.713135,0.692749,-0.098328,-0.042603,0.389313,-0.435115,-0.549618,-2.772998,14.861499,-1.012061,-3.56853,5.096191,-1.21543,-3.628345,2.07915,4.762427,sorry
1616135619.098085,1,13.0,52.0,64.0,71.0,58.0,0.707825,0.697571,-0.097839,-0.052307,0.305344,-0.412214,-0.465649,-1.591064,16.117603,-1.288403,-2.232275,6.339136,-1.362573,-2.283716,1.935596,6.168067,sorry
1616135619.10835,1,14.0,55.0,66.0,71.0,58.0,0.703064,0.70166,-0.098145,-0.060547,0.267176,-0.381679,-0.40458,-0.421094,17.041138,-1.606616,-0.940283,7.255493,-1.567139,-0.946265,1.794434,7.200464,sorry
1616135619.118073,1,13.0,55.0,66.0,71.0,58.0,0.698547,0.705383,-0.099304,-0.067261,0.251908,-0.351145,-0.320611,0.776392,17.719433,-1.84707,0.345728,7.9302,-1.699927,0.366064,1.537231,7.961304,sorry
1616135619.128426,1,12.0,51.0,67.0,68.0,56.0,0.694641,0.708496,-0.10144,-0.071594,0.229008,-0.274809,-0.206107,2.040869,18.218287,-1.977466,1.653271,8.429052,-1.735815,1.648486,1.1604,8.525952,sorry
1616135619.1381288,1,12.0,53.0,68.0,69.0,53.0,0.691406,0.711121,-0.104004,-0.07312,0.206107,-0.160305,-0.091603,3.311328,18.584351,-2.021729,2.920142,8.79751,-1.696338,2.834009,0.71897,8.956616,sorry
1616135619.148081,1,16.0,52.0,64.0,70.0,57.0,0.688965,0.713196,-0.106812,-0.071655,0.175573,-0.038168,0.022901,4.541113,18.853516,-1.998999,4.099683,9.072657,-1.604224,3.875977,0.270361,9.30354,sorry
1616135619.158162,1,15.0,52.0,67.0,71.0,58.0,0.687439,0.714661,-0.110046,-0.067322,0.137405,0.068702,0.152672,5.719458,19.050903,-1.862622,5.178735,9.276026,-1.414014,4.755249,-0.208154,9.601416,sorry
1616135619.168107,1,11.0,52.0,64.0,70.0,58.0,0.686829,0.71521,-0.113831,-0.060669,0.083969,0.137405,0.274809,6.645386,19.195654,-1.618579,5.962305,9.431543,-1.137671,5.28999,-0.653174,9.866992,sorry
1616135619.178328,1,12.0,51.0,65.0,72.0,57.0,0.687378,0.7146,-0.118042,-0.052856,-0.007634,0.152672,0.358779,7.277026,19.30332,-1.349414,6.426465,9.552368,-0.866113,5.498145,-0.968994,10.102661,sorry
1616135619.1882243,1,12.0,53.0,65.0,72.0,58.0,0.689575,0.71228,-0.122742,-0.044556,-0.145038,0.167939,0.419847,7.738794,19.381079,-1.019238,6.701612,9.646875,-0.579004,5.5125,-1.201074,10.316797,sorry
1616135619.198077,1,15.0,53.0,65.0,71.0,58.0,0.693726,0.707947,-0.127258,-0.036011,-0.320611,0.206107,0.450382,8.034277,19.438501,-0.734522,6.803296,9.722241,-0.392383,5.388086,-1.232178,10.505811,sorry
1616135619.2082784,1,12.0,54.0,65.0,72.0,58.0,0.69989,0.701538,-0.131226,-0.026978,-0.496183,0.274809,0.480916,8.199366,19.383472,-0.513208,6.7698,9.689941,-0.327783,5.179932,-1.04436,10.576391,sorry
1616135619.2181308,1,14.0,52.0,68.0,70.0,58.0,0.707703,0.693359,-0.13446,-0.017212,-0.648855,0.343511,0.519084,8.086914,18.664501,-0.374438,6.455176,9.000879,-0.395972,4.842578,-0.632837,9.948339,sorry
1616135619.2281723,1,15.0,52.0,64.0,68.0,57.0,0.716492,0.683899,-0.137085,-0.007324,-0.740458,0.381679,0.519084,7.706494,17.242115,-0.256006,5.878564,7.617969,-0.519189,4.414307,-0.165088,8.561841,sorry
1616135619.2380528,1,14.0,51.0,66.0,72.0,58.0,0.725647,0.673706,-0.139404,0.002319,-0.778626,0.389313,0.519084,7.30813,15.35437,-0.113647,5.294775,5.778076,-0.635229,4.109253,0.175854,6.699219,sorry
1616135619.2480636,1,15.0,55.0,68.0,71.0,58.0,0.734741,0.663147,-0.141785,0.012024,-0.78626,0.389313,0.526718,6.961206,13.16875,0.004785,4.762427,3.651074,-0.77998,3.966895,0.388794,4.550683,sorry
1616135619.2574131,1,15.0,54.0,66.0,74.0,92.0,0.743469,0.652527,-0.14447,0.021973,-0.763359,0.374046,0.549618,6.560449,10.883838,0.11604,4.173852,1.436743,-0.927124,3.849658,0.466553,2.30166,sorry
1616135619.2675316,1,17.0,54.0,67.0,71.0,58.0,0.751404,0.642273,-0.147766,0.031555,-0.70229,0.320611,0.557252,6.046045,8.663526,0.226099,3.471631,-0.703418,-1.059912,3.671411,0.416309,0.099292,sorry
1616135619.2773843,1,16.0,52.0,65.0,71.0,58.0,0.758301,0.632751,-0.151611,0.040283,-0.625954,0.236641,0.534351,5.590259,6.583179,0.344531,2.836401,-2.701221,-1.156811,3.586475,0.223706,-1.939185,sorry
1616135619.2880523,1,13.0,55.0,64.0,72.0,57.0,0.76416,0.624084,-0.155701,0.048279,-0.541985,0.206107,0.48855,5.403638,4.770801,0.492871,2.479907,-4.428662,-1.197485,3.747974,-0.096899,-3.623559,sorry
1616135619.298313,1,12.0,55.0,64.0,72.0,58.0,0.769165,0.616333,-0.15918,0.056091,-0.458015,0.229008,0.427481,5.278028,3.258691,0.645996,2.199975,-5.857031,-1.210644,3.941772,-0.441431,-4.986133,sorry
1616135619.3075724,1,11.0,53.0,67.0,72.0,57.0,0.773499,0.609497,-0.161621,0.063599,-0.374046,0.251908,0.366412,5.018433,1.994214,0.811084,1.807593,-7.04375,-1.195093,3.984839,-0.77998,-6.148926,sorry
1616135619.3182116,1,12.0,53.0,68.0,66.0,58.0,0.777039,0.60376,-0.163147,0.070374,-0.290076,0.244275,0.305344,4.643994,0.982153,1.022827,1.325488,-7.987622,-1.10896,3.87478,-1.134082,-7.103564,sorry
1616135619.3283095,1,11.0,53.0,66.0,71.0,57.0,0.779846,0.599243,-0.163879,0.076111,-0.206107,0.221374,0.229008,4.13916,0.278735,1.24773,0.739307,-8.636011,-0.985742,3.573315,-1.443921,-7.82373,sorry
1616135619.3381343,1,12.0,52.0,65.0,70.0,57.0,0.781799,0.59613,-0.164062,0.080322,-0.114504,0.160305,0.145038,3.42019,-0.087329,1.393677,-0.031104,-8.962598,-0.912769,2.995508,-1.598242,-8.34292,sorry
1616135619.3482852,1,13.0,53.0,72.0,68.0,54.0,0.782776,0.594543,-0.164001,0.082458,-0.030534,0.061069,0.068702,2.589966,-0.062207,1.475024,-0.88645,-8.918335,-0.868506,2.201172,-1.600635,-8.580981,sorry
1616135619.358269,1,14.0,53.0,66.0,68.0,55.0,0.782898,0.59436,-0.164124,0.08252,0.030534,-0.045802,-0.007634,1.861426,0.270361,1.533643,-1.617383,-8.583374,-0.813477,1.404443,-1.515698,-8.52356,sorry
1616135619.3680322,1,15.0,53.0,66.0,71.0,57.0,0.782349,0.595215,-0.16449,0.080811,0.076336,-0.129771,-0.076336,1.286011,0.796728,1.538428,-2.178442,-8.06897,-0.785962,0.693848,-1.34104,-8.256787,sorry
1616135619.3774605,1,13.0,52.0,67.0,64.0,55.0,0.78125,0.596924,-0.164856,0.077637,0.10687,-0.183206,-0.137405,0.866113,1.453491,1.52168,-2.56604,-7.434937,-0.759644,0.094507,-1.123315,-7.818945,sorry
1616135619.388168,1,13.0,52.0,66.0,68.0,57.0,0.780029,0.599121,-0.164795,0.073608,0.122137,-0.183206,-0.19084,0.545508,2.162891,1.525269,-2.837598,-6.759033,-0.705811,-0.42229,-0.921143,-7.293775,sorry
1616135619.3980458,1,12.0,53.0,66.0,73.0,57.0,0.778931,0.601318,-0.163879,0.069031,0.10687,-0.160305,-0.236641,0.111255,2.885449,1.504932,-3.203662,-6.072363,-0.680689,-1.033594,-0.681885,-6.786548,sorry
1616135619.408039,1,15.0,55.0,66.0,68.0,55.0,0.777893,0.603821,-0.161682,0.063721,0.114504,-0.129771,-0.305344,-0.479712,3.489575,1.461865,-3.698926,-5.513696,-0.678296,-1.733423,-0.440234,-6.428857,sorry
1616135619.4182994,1,14.0,52.0,66.0,68.0,57.0,0.776855,0.606689,-0.158386,0.057556,0.129771,-0.114504,-0.366412,-1.143652,4.133179,1.419995,-4.239648,-4.925122,-0.673511,-2.493066,-0.183032,-6.035278,sorry
1616135619.428234,1,13.0,53.0,65.0,73.0,58.0,0.775574,0.609985,-0.153931,0.050781,0.160305,-0.099237,-0.412214,-1.887744,4.766016,1.366162,-4.834204,-4.353296,-0.674707,-3.299365,0.084937,-5.644092,sorry
1616135619.438172,1,13.0,52.0,64.0,73.0,57.0,0.773804,0.614014,-0.148987,0.043396,0.206107,-0.10687,-0.435115,-2.706006,5.410815,1.272852,-5.487378,-3.774292,-0.701025,-4.153516,0.395972,-5.236157,sorry
1616135619.4482758,1,13.0,52.0,63.0,65.0,55.0,0.771301,0.618896,-0.14386,0.035461,0.267176,-0.137405,-0.442748,-3.535034,6.113037,1.152026,-6.139356,-3.142651,-0.733325,-5.00647,0.736914,-4.740893,sorry
1616135619.4580522,1,12.0,41.0,63.0,69.0,56.0,0.767883,0.624756,-0.138855,0.026855,0.343511,-0.183206,-0.465649,-4.216919,6.865503,1.052734,-6.634619,-2.463159,-0.717773,-5.709888,1.03479,-4.111646,sorry
1616135619.46803,1,16.0,52.0,63.0,70.0,55.0,0.76355,0.631348,-0.133911,0.017883,0.40458,-0.206107,-0.480916,-4.664331,7.700513,0.979761,-6.889429,-1.699927,-0.65437,-6.183618,1.26687,-3.30415,sorry
1616135619.4781194,1,11.0,53.0,66.0,71.0,56.0,0.758667,0.638489,-0.128845,0.008728,0.442748,-0.198473,-0.503817,-4.911963,8.606104,0.957031,-6.936084,-0.864917,-0.526367,-6.452783,1.400854,-2.348315,sorry
1616135619.4881191,1,13.0,52.0,65.0,73.0,58.0,0.75354,0.645569,-0.123718,-0.000488,0.442748,-0.198473,-0.51145,-5.043555,9.570312,0.957031,-6.864306,0.033496,-0.373242,-6.587964,1.469043,-1.293188,sorry
1616135619.4980247,1,16.0,53.0,68.0,71.0,56.0,0.748596,0.652222,-0.118591,-0.009766,0.40458,-0.198473,-0.519084,-5.073462,10.510595,0.947461,-6.688452,0.917554,-0.238062,-6.580786,1.500147,-0.23208,sorry
1616135619.507512,1,12.0,53.0,65.0,71.0,58.0,0.743958,0.658142,-0.113647,-0.019348,0.358779,-0.21374,-0.534351,-4.931104,11.338428,0.894824,-6.337939,1.697534,-0.160303,-6.342725,1.512109,0.741699,sorry
1616135619.5172734,1,13.0,52.0,64.0,70.0,58.0,0.739624,0.663452,-0.108948,-0.02887,0.320611,-0.221374,-0.534351,-4.647583,12.041845,0.783569,-5.85105,2.361475,-0.155518,-5.910864,1.525269,1.598242,sorry
1616135619.5273757,1,12.0,51.0,66.0,68.0,58.0,0.735596,0.668091,-0.104919,-0.038391,0.267176,-0.251908,-0.51145,-4.311426,12.74646,0.666333,-5.321094,3.034985,-0.168677,-5.407227,1.526465,2.444019,sorry
1616135619.537413,1,12.0,53.0,65.0,74.0,58.0,0.731934,0.671936,-0.101929,-0.047852,0.221374,-0.29771,-0.473282,-3.977661,13.39126,0.510815,-4.809082,3.655859,-0.234473,-4.880859,1.561157,3.204858,sorry
1616135619.5474856,1,11.0,51.0,65.0,73.0,58.0,0.728516,0.675171,-0.100037,-0.057556,0.19084,-0.351145,-0.458015,-3.564941,13.911646,0.308643,-4.231275,4.157104,-0.358887,-4.250415,1.613794,3.824536,sorry
1616135619.5573325,1,13.0,54.0,65.0,71.0,58.0,0.724915,0.678345,-0.099121,-0.067017,0.198473,-0.381679,-0.435115,-2.880664,14.260962,0.089722,-3.397461,4.492065,-0.497656,-3.350806,1.586279,4.267163,sorry
1616135619.5674045,1,14.0,53.0,64.0,71.0,58.0,0.720947,0.681702,-0.098938,-0.075378,0.236641,-0.351145,-0.389313,-1.984644,14.526538,-0.147144,-2.374634,4.746875,-0.645996,-2.265771,1.483398,4.608106,sorry
1616135619.577469,1,13.0,53.0,66.0,71.0,58.0,0.716431,0.685608,-0.099487,-0.081848,0.305344,-0.290076,-0.320611,-0.85415,14.837573,-0.356494,-1.15083,5.049536,-0.747681,-1.018042,1.24773,4.977759,sorry
1616135619.5873134,1,11.0,54.0,66.0,71.0,57.0,0.711365,0.690186,-0.100403,-0.086121,0.374046,-0.21374,-0.259542,0.462964,15.262256,-0.562256,0.227295,5.469434,-0.826636,0.346924,0.913965,5.4479,sorry
1616135619.5973592,1,13.0,53.0,68.0,69.0,56.0,0.705994,0.695251,-0.101746,-0.088135,0.419847,-0.137405,-0.19084,1.76333,15.940552,-0.758447,1.556372,6.144141,-0.880469,1.629346,0.541919,6.163281,sorry
1616135619.6074092,1,15.0,51.0,65.0,74.0,58.0,0.700745,0.700195,-0.103638,-0.088318,0.40458,-0.099237,-0.099237,2.832813,16.844946,-0.924731,2.621069,7.048535,-0.903198,2.615088,0.19021,7.103564,sorry
1616135619.6173382,1,11.0,52.0,63.0,71.0,57.0,0.696472,0.704163,-0.106445,-0.087585,0.320611,-0.099237,-0.015267,3.673804,17.574682,-1.065894,3.428565,7.779468,-0.923535,3.331665,-0.098096,7.873975,sorry
1616135619.627383,1,12.0,53.0,65.0,70.0,56.0,0.693787,0.706421,-0.109985,-0.086121,0.175573,-0.099237,0.061069,4.464551,18.111816,-1.142456,4.160693,8.318995,-0.922339,3.951343,-0.364868,8.460156,sorry
1616135619.637307,1,13.0,53.0,65.0,70.0,58.0,0.693115,0.706787,-0.113953,-0.083679,0.022901,-0.061069,0.129771,5.249316,18.506592,-1.147241,4.859326,8.717359,-0.900806,4.51958,-0.594556,8.921924,sorry
1616135619.6472683,1,13.0,52.0,68.0,66.0,58.0,0.694336,0.705383,-0.117798,-0.079773,-0.114504,0.015267,0.198473,5.951538,18.779346,-1.095801,5.450293,8.994898,-0.869702,4.970581,-0.745288,9.277222,sorry
1616135619.6574054,1,12.0,53.0,64.0,71.0,57.0,0.697021,0.702759,-0.121521,-0.074219,-0.206107,0.10687,0.282443,6.476709,18.586742,-0.968994,5.837891,8.808276,-0.799121,5.226587,-0.820654,9.181519,sorry
1616135619.6673553,1,13.0,53.0,65.0,72.0,59.0,0.700623,0.69928,-0.124939,-0.067017,-0.259542,0.19084,0.358779,6.726733,17.933569,-0.797925,5.928809,8.165869,-0.707007,5.219409,-0.805103,8.62644,sorry
1616135619.6772478,1,16.0,52.0,64.0,70.0,58.0,0.704773,0.695251,-0.128235,-0.058411,-0.282443,0.259542,0.442748,6.712378,17.038746,-0.53833,5.736206,7.287793,-0.540723,4.949048,-0.77998,7.821338,sorry
1616135619.6871772,1,14.0,52.0,66.0,72.0,58.0,0.709229,0.690796,-0.131592,-0.048767,-0.29771,0.290076,0.519084,6.488672,15.950122,-0.223706,5.318701,6.220703,-0.330176,4.490869,-0.762036,6.805688,sorry
1616135619.6972573,1,12.0,53.0,68.0,68.0,57.0,0.713806,0.685974,-0.135193,-0.038757,-0.305344,0.290076,0.557252,6.069971,14.820826,0.098096,4.699023,5.120117,-0.118433,3.87478,-0.730933,5.72185,sorry
1616135619.707364,1,11.0,52.0,63.0,73.0,58.0,0.718384,0.680908,-0.13916,-0.029236,-0.320611,0.236641,0.572519,5.587866,13.677173,0.428271,4.018335,4.009961,0.095703,3.240747,-0.73811,4.602124,sorry
1616135619.7172463,1,12.0,53.0,66.0,71.0,57.0,0.723022,0.675354,-0.143677,-0.02063,-0.343511,0.167939,0.572519,5.150024,12.571802,0.759644,3.386694,2.942871,0.303857,2.688061,-0.796728,3.514697,sorry
1616135619.727453,1,12.0,53.0,66.0,73.0,58.0,0.727661,0.669373,-0.148804,-0.012939,-0.366412,0.10687,0.557252,4.897607,11.486768,1.04436,2.944067,1.9021,0.460571,2.361475,-0.891235,2.473926,sorry
1616135619.737346,1,12.0,53.0,66.0,70.0,57.0,0.732422,0.663086,-0.154175,-0.005859,-0.389313,0.076336,0.534351,4.776782,10.394556,1.246533,2.639014,0.857739,0.529956,2.220313,-0.972583,1.448706,sorry
1616135619.747104,1,15.0,53.0,65.0,70.0,57.0,0.737,0.656738,-0.159424,0.000854,-0.381679,0.076336,0.503817,4.743286,9.299952,1.297974,2.428467,-0.183032,0.449805,2.237061,-0.965405,0.434253,sorry
1616135619.757236,1,11.0,55.0,66.0,73.0,58.0,0.741089,0.650879,-0.164368,0.007446,-0.351145,0.083969,0.473282,4.781568,8.356079,1.282422,2.298071,-1.073071,0.31582,2.339942,-0.934302,-0.418701,sorry
1616135619.767377,1,12.0,53.0,65.0,72.0,58.0,0.74469,0.645508,-0.168945,0.014099,-0.312977,0.10687,0.465649,4.775586,7.617969,1.23457,2.130591,-1.756152,0.160303,2.390186,-0.866113,-1.087427,sorry
1616135619.7773426,1,15.0,53.0,53.0,72.0,58.0,0.747864,0.640442,-0.173218,0.020874,-0.282443,0.114504,0.458015,4.730127,6.936084,1.190308,1.928418,-2.380615,0.017944,2.40813,-0.809888,-1.709497,sorry
1616135619.7870684,1,12.0,53.0,67.0,80.0,58.0,0.75061,0.635864,-0.177246,0.027771,-0.236641,0.129771,0.450382,4.621264,6.270947,1.1927,1.666431,-2.987134,-0.065796,2.371045,-0.808691,-2.327979,sorry
1616135619.797269,1,12.0,52.0,64.0,73.0,58.0,0.752869,0.631775,-0.180847,0.034729,-0.183206,0.137405,0.442748,4.409522,5.67998,1.254907,1.309937,-3.519482,-0.078955,2.226294,-0.855347,-2.899805,sorry
1616135619.8070743,1,13.0,52.0,66.0,74.0,58.0,0.754639,0.628357,-0.184204,0.041504,-0.129771,0.129771,0.419847,4.128394,5.194287,1.339844,0.892432,-3.94895,-0.055029,2.002588,-0.913965,-3.397461,sorry
1616135619.817333,1,13.0,51.0,63.0,68.0,58.0,0.755798,0.62561,-0.187073,0.047852,-0.076336,0.129771,0.381679,3.82334,4.908374,1.442725,0.46416,-4.183423,0.0,1.710693,-0.964209,-3.721655,sorry
1616135619.8272183,1,15.0,55.0,66.0,71.0,57.0,0.756653,0.623535,-0.189087,0.053589,-0.045802,0.137405,0.328244,3.481201,4.819849,1.507324,0.021533,-4.227685,0.028711,1.353003,-0.946265,-3.891528,sorry
1616135619.8371649,1,13.0,53.0,66.0,72.0,58.0,0.757385,0.621887,-0.190186,0.058655,-0.030534,0.152672,0.267176,3.134277,4.928711,1.537231,-0.403149,-4.084131,0.026318,0.95105,-0.862524,-3.89751,sorry
1616135619.8476264,1,13.0,53.0,64.0,71.0,57.0,0.758057,0.620605,-0.190186,0.062866,-0.022901,0.175573,0.198473,2.769409,5.128491,1.494165,-0.820654,-3.858032,-0.046655,0.532349,-0.693848,-3.844873,sorry
1616135619.8571773,1,9.0,53.0,65.0,71.0,57.0,0.758728,0.619751,-0.189148,0.066345,-0.015267,0.183206,0.129771,2.348315,5.394067,1.342236,-1.269263,-3.575708,-0.227295,0.076563,-0.407935,-3.777881,sorry
1616135619.8671558,1,13.0,55.0,66.0,73.0,57.0,0.759155,0.619446,-0.187561,0.068909,-0.007634,0.167939,0.091603,1.851856,5.802002,1.117334,-1.775293,-3.160596,-0.471338,-0.47373,-0.021533,-3.623559,sorry
1616135619.8773484,1,15.0,56.0,64.0,69.0,58.0,0.759277,0.619629,-0.18573,0.070618,0.007634,0.137405,0.061069,1.349414,6.312818,0.870898,-2.271753,-2.650977,-0.726147,-1.056323,0.392383,-3.381909,sorry
1616135619.8872387,1,16.0,51.0,64.0,72.0,58.0,0.759094,0.620178,-0.184143,0.071594,0.022901,0.099237,0.053435,0.899609,6.85354,0.607715,-2.709595,-2.115039,-0.986938,-1.59585,0.813477,-3.093604,sorry
1616135619.8972251,1,13.0,55.0,68.0,73.0,58.0,0.758484,0.621277,-0.1828,0.072266,0.061069,0.061069,0.053435,0.562256,7.375122,0.38999,-3.034985,-1.601831,-1.187915,-2.03728,1.158008,-2.771802,sorry
1616135619.907316,1,42.0,53.0,66.0,70.0,58.0,0.757263,0.623047,-0.181641,0.072754,0.10687,0.045802,0.053435,0.305054,7.890723,0.218921,-3.279028,-1.096997,-1.324292,-2.414111,1.430762,-2.414111,sorry
1616135619.917314,1,12.0,53.0,63.0,71.0,58.0,0.755432,0.625549,-0.180359,0.07312,0.167939,0.038168,0.038168,0.128003,8.425464,0.105273,-3.438135,-0.577808,-1.385303,-2.731128,1.622168,-1.993018,sorry
1616135619.92723,1,11.0,55.0,66.0,72.0,58.0,0.753113,0.628784,-0.178955,0.073242,0.221374,0.022901,0.015267,0.055029,8.984131,0.089722,-3.488379,-0.039478,-1.332666,-2.977563,1.68916,-1.490576,sorry
1616135619.937243,1,12.0,53.0,68.0,71.0,58.0,0.750427,0.632385,-0.177429,0.073242,0.251908,0.015267,0.0,0.119629,9.616968,0.161499,-3.397461,0.569434,-1.181934,-3.130688,1.648486,-0.855347,sorry
1616135619.9473612,1,16.0,55.0,65.0,73.0,57.0,0.747681,0.636108,-0.175781,0.073059,0.251908,0.015267,-0.015267,0.354102,10.335938,0.334961,-3.131885,1.265674,-0.927124,-3.167773,1.490576,-0.062207,sorry
1616135619.9571788,1,18.0,54.0,67.0,72.0,58.0,0.745361,0.639343,-0.174133,0.072754,0.21374,0.015267,-0.022901,0.6771,11.0896,0.610107,-2.777783,1.996606,-0.582593,-3.142651,1.229785,0.801514,sorry
1616135620.885304,1,16.0,55.0,64.0,70.0,58.0,0.752075,0.630371,-0.179443,0.06897,0.015267,-0.015267,0.015267,3.597241,9.715063,1.418799,0.099292,0.665137,0.038281,-0.133984,0.080151,0.65437,sorry
1616135620.8955698,1,16.0,55.0,64.0,73.0,58.0,0.751892,0.630554,-0.179626,0.069092,0.007634,-0.007634,0.015267,3.623559,9.776074,1.391284,0.122021,0.726147,0.016748,-0.129199,0.110059,0.715381,sorry
1616135620.905305,1,15.0,55.0,68.0,69.0,58.0,0.75177,0.630554,-0.179749,0.069153,-0.007634,-0.007634,0.007634,3.651074,9.81914,1.364966,0.147144,0.771606,-0.007178,-0.117236,0.13877,0.763232,sorry
1616135620.915287,1,15.0,53.0,65.0,69.0,58.0,0.751831,0.630493,-0.17981,0.069275,-0.015267,0.0,0.007634,3.657056,9.843066,1.355396,0.150732,0.795532,-0.017944,-0.119629,0.153125,0.784766,sorry
1616135620.925347,1,17.0,52.0,68.0,73.0,58.0,0.751953,0.630371,-0.179749,0.069336,-0.015267,0.007634,0.0,3.648682,9.844263,1.354199,0.142358,0.797925,-0.022729,-0.128003,0.160303,0.783569,sorry
1616135620.9360435,1,12.0,48.0,66.0,73.0,58.0,0.752075,0.630249,-0.179688,0.069458,-0.015267,0.007634,0.007634,3.637915,9.837085,1.366162,0.130396,0.790747,-0.014355,-0.137573,0.151929,0.773999,sorry
1616135620.9460514,1,13.0,53.0,66.0,73.0,58.0,0.752197,0.630066,-0.179688,0.069641,-0.015267,0.0,0.007634,3.621167,9.828711,1.390088,0.111255,0.784766,0.003589,-0.156714,0.136377,0.764429,sorry
1616135620.9560957,1,13.0,53.0,67.0,71.0,58.0,0.752319,0.629883,-0.179749,0.069763,-0.015267,0.0,0.015267,3.605615,9.80957,1.410425,0.093311,0.766821,0.020337,-0.171069,0.119629,0.742895,sorry
1616135620.965472,1,13.0,51.0,65.0,67.0,58.0,0.752502,0.629639,-0.17981,0.069946,-0.015267,0.0,0.015267,3.604419,9.791626,1.445117,0.088525,0.75127,0.049048,-0.175854,0.089722,0.730933,sorry
1616135620.9752955,1,15.0,53.0,64.0,72.0,57.0,0.752625,0.629395,-0.179932,0.070129,-0.015267,0.0,0.015267,3.594849,9.753345,1.472632,0.075366,0.715381,0.071777,-0.18064,0.062207,0.69624,sorry
1616135620.9854138,1,15.0,52.0,66.0,72.0,58.0,0.752747,0.629211,-0.179993,0.070251,-0.015267,0.0,0.015267,3.572119,9.72583,1.491772,0.049048,0.690259,0.087329,-0.19978,0.045459,0.666333,sorry
1616135620.995515,1,12.0,53.0,64.0,70.0,26.0,0.752869,0.629089,-0.180115,0.070312,-0.015267,-0.007634,0.015267,3.557764,9.707886,1.502539,0.0323,0.672314,0.094507,-0.210547,0.037085,0.6448,sorry
1616135621.0057209,1,13.0,54.0,68.0,68.0,57.0,0.75293,0.628906,-0.180359,0.070374,-0.015267,-0.015267,0.015267,3.557764,9.709082,1.520483,0.027515,0.675903,0.110059,-0.218921,0.023926,0.648389,sorry
1616135621.016177,1,13.0,53.0,64.0,74.0,57.0,0.753052,0.628723,-0.180542,0.070374,-0.015267,-0.015267,0.015267,3.562549,9.736597,1.527661,0.029907,0.704614,0.114844,-0.227295,0.025122,0.675903,sorry
1616135621.0254638,1,15.0,55.0,66.0,68.0,58.0,0.753174,0.628479,-0.180847,0.070435,-0.022901,-0.015267,0.015267,3.579297,9.778467,1.536035,0.04187,0.750073,0.118433,-0.23208,0.028711,0.722559,sorry
1616135621.035416,1,13.0,53.0,66.0,68.0,58.0,0.753296,0.628235,-0.181152,0.070496,-0.022901,-0.015267,0.022901,3.608008,9.813159,1.545605,0.0646,0.787158,0.124414,-0.224902,0.028711,0.765625,sorry
1616135621.045291,1,13.0,55.0,66.0,70.0,58.0,0.753479,0.62793,-0.18158,0.070618,-0.030534,-0.015267,0.022901,3.646289,9.837085,1.551587,0.094507,0.814673,0.12561,-0.208154,0.029907,0.801514,sorry
1616135621.0555136,1,13.0,54.0,68.0,71.0,57.0,0.753662,0.627563,-0.182007,0.070801,-0.030534,-0.015267,0.022901,3.706104,9.850245,1.555176,0.145947,0.831421,0.123218,-0.166284,0.029907,0.83501,sorry
1616135621.0652928,1,19.0,52.0,66.0,72.0,58.0,0.753784,0.627197,-0.182434,0.070984,-0.022901,-0.015267,0.030534,3.775488,9.856226,1.567139,0.206958,0.843384,0.130396,-0.11604,0.019141,0.869702,sorry
1616135621.0754547,1,16.0,56.0,68.0,74.0,58.0,0.753967,0.626831,-0.182983,0.071289,-0.022901,-0.015267,0.030534,3.831714,9.872973,1.586279,0.251221,0.864917,0.143555,-0.086133,0.005981,0.906787,sorry
1616135621.0853248,1,12.0,53.0,64.0,72.0,58.0,0.754089,0.626404,-0.183716,0.071594,-0.030534,-0.030534,0.038168,3.89751,9.906469,1.628149,0.302661,0.905591,0.18064,-0.059814,-0.026318,0.968994,sorry
1616135621.095358,1,16.0,55.0,66.0,71.0,58.0,0.754272,0.625854,-0.184631,0.071838,-0.038168,-0.038168,0.045802,3.982446,9.935181,1.683179,0.37085,0.942676,0.229687,-0.021533,-0.072974,1.03479,sorry
1616135621.1054103,1,17.0,55.0,66.0,73.0,58.0,0.754517,0.625244,-0.18573,0.072083,-0.038168,-0.045802,0.053435,4.116431,9.937573,1.722656,0.485693,0.953442,0.260791,0.071777,-0.114844,1.092212,sorry
1616135621.115429,1,17.0,54.0,66.0,70.0,58.0,0.754761,0.624512,-0.187134,0.07251,-0.045802,-0.045802,0.061069,4.332959,9.902881,1.752563,0.675903,0.929517,0.283521,0.247632,-0.163892,1.144849,sorry
1616135621.125353,1,13.0,53.0,67.0,70.0,58.0,0.754883,0.623718,-0.188843,0.073181,-0.038168,-0.053435,0.076336,4.627246,9.829907,1.75376,0.937891,0.872095,0.277539,0.504834,-0.202173,1.191504,sorry
1616135621.1354706,1,15.0,54.0,67.0,116.0,52.0,0.755005,0.622925,-0.190796,0.074097,-0.038168,-0.045802,0.091603,4.999292,9.74497,1.745386,1.270459,0.803906,0.26438,0.830225,-0.244043,1.256104,sorry
1616135621.1453884,1,15.0,55.0,66.0,73.0,58.0,0.754883,0.622192,-0.192932,0.0755,-0.022901,-0.038168,0.10687,5.415601,9.638501,1.720264,1.640112,0.717773,0.238062,1.197485,-0.283521,1.320703,sorry
1616135621.155495,1,15.0,55.0,66.0,72.0,54.0,0.754639,0.621582,-0.195129,0.077393,-0.007634,-0.022901,0.122137,5.799609,9.527246,1.676001,1.970288,0.629248,0.194995,1.53125,-0.300269,1.369751,sorry
1616135621.1652534,1,15.0,53.0,66.0,70.0,58.0,0.754333,0.621033,-0.197266,0.079712,0.007634,0.0,0.129771,6.103467,9.433935,1.653271,2.215527,0.559863,0.174658,1.775293,-0.324194,1.411621,sorry
1616135621.175446,1,13.0,55.0,67.0,69.0,57.0,0.753967,0.620483,-0.199219,0.082336,0.007634,0.022901,0.145038,6.300855,9.360962,1.658057,2.355493,0.512012,0.181836,1.909277,-0.354102,1.436743,sorry
1616135621.1852138,1,13.0,53.0,68.0,69.0,55.0,0.753845,0.61969,-0.200745,0.085266,-0.007634,0.053435,0.137405,6.38938,9.250903,1.67002,2.386597,0.429468,0.187817,1.959522,-0.374438,1.388892,sorry
1616135621.1952417,1,11.0,53.0,65.0,70.0,56.0,0.754028,0.618713,-0.201843,0.088318,-0.022901,0.083969,0.129771,6.371436,9.058301,1.693945,2.317212,0.263184,0.196191,1.952344,-0.401953,1.223804,sorry
1616135621.2052436,1,17.0,56.0,68.0,73.0,58.0,0.754578,0.617493,-0.202332,0.091309,-0.038168,0.114504,0.114504,6.268555,8.717359,1.713086,2.170068,-0.052637,0.189014,1.939185,-0.437842,0.888843,sorry
1616135621.2154012,1,16.0,56.0,68.0,71.0,58.0,0.75531,0.61615,-0.202271,0.094299,-0.053435,0.145038,0.083969,6.127393,8.228076,1.737012,1.993018,-0.519189,0.179443,1.96311,-0.502441,0.405542,sorry
1616135621.2251704,1,13.0,55.0,68.0,72.0,58.0,0.756226,0.614746,-0.20166,0.097168,-0.045802,0.160305,0.053435,5.950342,7.576098,1.787256,1.789648,-1.15083,0.191406,2.028906,-0.624463,-0.233276,sorry
1616135621.235254,1,16.0,54.0,67.0,73.0,58.0,0.757019,0.61377,-0.200378,0.099915,-0.015267,0.183206,0.007634,5.67998,6.800903,1.813574,1.503735,-1.912866,0.184229,2.07915,-0.753662,-1.028809,sorry
1616135621.245437,1,13.0,52.0,65.0,70.0,58.0,0.757629,0.613281,-0.198303,0.102295,0.030534,0.198473,-0.038168,5.286401,6.014941,1.841089,1.111353,-2.694043,0.184229,2.040869,-0.88645,-1.88894,sorry
1616135621.2552102,1,13.0,53.0,69.0,72.0,57.0,0.757935,0.613525,-0.195557,0.103882,0.068702,0.183206,-0.099237,4.789941,5.307935,1.876978,0.635229,-3.407031,0.204565,1.891333,-1.019238,-2.725147,sorry
1616135621.2654011,1,15.0,57.0,68.0,71.0,58.0,0.758118,0.614319,-0.1922,0.10437,0.091603,0.152672,-0.175573,4.200171,4.708594,1.946362,0.087329,-4.025513,0.266772,1.622168,-1.165186,-3.505127,sorry
1616135621.2752986,1,17.0,52.0,63.0,72.0,58.0,0.758179,0.615601,-0.188354,0.103271,0.099237,0.10687,-0.259542,3.487183,4.1906,1.972681,-0.557471,-4.575806,0.295483,1.223804,-1.254907,-4.271948,sorry
1616135621.2854073,1,13.0,56.0,65.0,71.0,57.0,0.758118,0.617432,-0.184021,0.100464,0.122137,0.045802,-0.343511,2.686865,3.719263,1.922436,-1.263281,-5.092603,0.258398,0.740503,-1.263281,-5.043555,sorry
1616135621.295229,1,16.0,53.0,65.0,70.0,57.0,0.757507,0.620239,-0.179382,0.096008,0.167939,-0.007634,-0.419847,1.878174,3.295776,1.788452,-1.951147,-5.574707,0.159106,0.236865,-1.186719,-5.781665,sorry
1616135621.305311,1,16.0,53.0,65.0,72.0,57.0,0.756165,0.624268,-0.174194,0.089966,0.244275,-0.053435,-0.51145,1.03479,3.043359,1.558765,-2.647388,-5.901294,-0.007178,-0.355298,-0.982153,-6.382202,sorry
1616135621.3151748,1,13.0,53.0,66.0,73.0,58.0,0.753723,0.629883,-0.168213,0.082581,0.335878,-0.091603,-0.59542,0.235669,3.112744,1.274048,-3.268262,-5.919238,-0.193799,-1.018042,-0.665137,-6.652564,sorry
1616135621.3255005,1,16.0,54.0,68.0,74.0,56.0,0.750183,0.636963,-0.161133,0.074036,0.435115,-0.091603,-0.671756,-0.544312,3.602026,0.977368,-3.837695,-5.529248,-0.360083,-1.793237,-0.266772,-6.491065,sorry
1616135621.335327,1,16.0,56.0,66.0,72.0,58.0,0.745789,0.645203,-0.152649,0.064575,0.496183,-0.068702,-0.748092,-1.414014,4.548291,0.645996,-4.460962,-4.689453,-0.537134,-2.762231,0.229687,-5.872583,sorry
1616135621.3454638,1,17.0,54.0,64.0,70.0,57.0,0.740784,0.653992,-0.143127,0.053894,0.503817,-0.091603,-0.778626,-2.470337,5.981445,0.236865,-5.23855,-3.362769,-0.776392,-3.983643,0.860132,-4.766016,sorry
1616135621.355368,1,16.0,55.0,67.0,96.0,58.0,0.735779,0.662354,-0.134155,0.042236,0.442748,-0.160305,-0.732824,-3.414209,7.731616,-0.159106,-5.896509,-1.708301,-1.006079,-5.109351,1.470239,-3.226392,sorry
1616135621.3653634,1,13.0,53.0,64.0,67.0,58.0,0.731262,0.669495,-0.126404,0.030396,0.351145,-0.206107,-0.679389,-4.051831,9.444702,-0.539526,-6.261377,-0.075366,-1.239355,-5.853442,1.996606,-1.57312,sorry
1616135621.3755388,1,13.0,51.0,73.0,71.0,57.0,0.727173,0.67572,-0.119141,0.018799,0.290076,-0.198473,-0.656489,-4.484888,10.949634,-0.946265,-6.43125,1.362573,-1.516895,-6.275733,2.473926,-0.0323,sorry
1616135621.3852537,1,15.0,53.0,65.0,72.0,58.0,0.723145,0.681396,-0.112305,0.007812,0.267176,-0.19084,-0.603053,-4.795923,12.251196,-1.379321,-6.491065,2.610303,-1.830322,-6.476709,2.911767,1.358984,sorry
1616135621.3954422,1,12.0,54.0,66.0,71.0,58.0,0.718994,0.686768,-0.106323,-0.002258,0.267176,-0.19084,-0.526718,-4.938281,13.341016,-1.701123,-6.406128,3.657056,-2.033691,-6.464746,3.170166,2.583984,sorry
1616135621.4053495,1,13.0,55.0,68.0,73.0,58.0,0.714539,0.692078,-0.101379,-0.011169,0.29771,-0.183206,-0.442748,-4.9,14.214307,-1.832715,-6.168067,4.499243,-2.042065,-6.270947,3.166577,3.617578,sorry
1616135621.4153376,1,13.0,52.0,66.0,70.0,58.0,0.709839,0.697266,-0.097412,-0.018677,0.335878,-0.167939,-0.366412,-4.696631,14.914136,-1.701123,-5.796021,5.176343,-1.784863,-5.953931,2.83999,4.476514,sorry
1616135621.4254203,1,17.0,56.0,65.0,75.0,58.0,0.705322,0.702087,-0.094482,-0.025085,0.343511,-0.167939,-0.29771,-4.419092,15.573291,-1.409229,-5.379712,5.819946,-1.372144,-5.610596,2.330371,5.268457,sorry
1616135621.4354029,1,15.0,51.0,65.0,72.0,57.0,0.700989,0.706482,-0.092041,-0.030884,0.335878,-0.175573,-0.267176,-4.049438,16.151098,-1.07666,-4.885644,6.388184,-0.927124,-5.187109,1.758545,5.959912,sorry
1616135621.445308,1,15.0,54.0,63.0,68.0,58.0,0.69696,0.710388,-0.090332,-0.036438,0.312977,-0.19084,-0.244275,-3.533838,16.654736,-0.735718,-4.259985,6.88584,-0.483301,-4.62605,1.154419,6.559253,sorry
1616135621.4554691,1,15.0,52.0,66.0,71.0,58.0,0.693481,0.713623,-0.0896,-0.041809,0.267176,-0.236641,-0.206107,-2.9656,17.171534,-0.456982,-3.598438,7.397851,-0.117236,-4.02312,0.619678,7.149024,sorry
1616135621.4653318,1,13.0,54.0,68.0,68.0,58.0,0.690735,0.715881,-0.090271,-0.046936,0.198473,-0.282443,-0.152672,-2.235864,17.578272,-0.260791,-2.799316,7.802197,0.143555,-3.270654,0.172266,7.61438,sorry
1616135621.475226,1,12.0,53.0,68.0,71.0,58.0,0.68866,0.717285,-0.092163,-0.051636,0.145038,-0.312977,-0.114504,-1.239355,17.788818,-0.178247,-1.757349,8.012744,0.272754,-2.262183,-0.184229,7.885938,sorry
1616135621.485306,1,13.0,53.0,65.0,71.0,58.0,0.687073,0.71814,-0.095154,-0.05542,0.099237,-0.305344,-0.068702,0.07417,17.782837,-0.153125,-0.427075,8.007959,0.332568,-0.97019,-0.534741,7.948144,sorry
1616135621.495422,1,15.0,56.0,65.0,73.0,57.0,0.685974,0.718506,-0.098999,-0.057373,0.083969,-0.251908,-0.007634,1.798023,17.562719,-0.19978,1.274048,7.790235,0.311035,0.6771,-0.888843,7.818945,sorry
1616135621.5052972,1,15.0,55.0,66.0,72.0,58.0,0.684814,0.718994,-0.10376,-0.056885,0.10687,-0.183206,0.068702,3.724048,17.170338,-0.362476,3.131885,7.403833,0.18064,2.475122,-1.185522,7.556958,sorry
1616135621.5152843,1,16.0,55.0,66.0,74.0,58.0,0.683167,0.719971,-0.109314,-0.054016,0.160305,-0.122137,0.152672,5.560351,16.893993,-0.586182,4.85813,7.137061,0.008374,4.114038,-1.434351,7.451684,sorry
1616135621.5252466,1,12.0,54.0,66.0,71.0,57.0,0.681091,0.721252,-0.115601,-0.0495,0.19084,-0.083969,0.229008,7.071265,16.916723,-0.86731,6.226685,7.175342,-0.208154,5.362964,-1.581494,7.681372,sorry
1616135621.535203,1,13.0,56.0,69.0,73.0,58.0,0.679199,0.722229,-0.122498,-0.044067,0.152672,-0.076336,0.305344,8.229273,17.349781,-1.114941,7.221997,7.628736,-0.394775,6.172852,-1.686768,8.336939,sorry
1616135621.5451548,1,12.0,53.0,65.0,72.0,58.0,0.678772,0.721741,-0.1297,-0.038086,0.007634,-0.053435,0.358779,9.083423,17.940746,-1.309937,7.895508,8.241236,-0.569434,6.620264,-1.702319,9.1552,sorry
1616135621.555298,1,13.0,52.0,66.0,71.0,57.0,0.680786,0.718872,-0.136658,-0.031921,-0.21374,-0.015267,0.389313,9.606201,18.337915,-1.467847,8.231665,8.659937,-0.771606,6.76023,-1.534839,9.759326,sorry
1616135621.5652127,1,12.0,55.0,68.0,68.0,58.0,0.685486,0.71344,-0.1427,-0.026062,-0.465649,0.030534,0.374046,9.821533,18.257763,-1.570728,8.267553,8.598926,-0.994116,6.706397,-1.180737,9.84187,sorry
1616135621.5753255,1,10.0,53.0,66.0,70.0,56.0,0.69281,0.705566,-0.147522,-0.02063,-0.687023,0.091603,0.343511,9.807178,17.633301,-1.60542,8.08811,7.992407,-1.221411,6.578393,-0.699829,9.327466,sorry
1616135621.5852385,1,15.0,55.0,67.0,74.0,58.0,0.702393,0.695312,-0.151428,-0.015381,-0.89313,0.145038,0.343511,9.589453,16.511181,-1.600635,7.713672,6.893018,-1.475024,6.397754,-0.131592,8.25918,sorry
1616135621.5952077,1,15.0,55.0,63.0,72.0,58.0,0.71344,0.683228,-0.155029,-0.009888,-1.022901,0.183206,0.374046,9.222193,14.860303,-1.579102,7.186109,5.275635,-1.757349,6.207544,0.43186,6.619067,sorry
1616135621.6052248,1,16.0,51.0,65.0,72.0,58.0,0.724915,0.670227,-0.158752,-0.003845,-1.053435,0.206107,0.427481,8.791529,12.738086,-1.569531,6.585571,3.202466,-2.06958,6.075952,0.894824,4.490869,sorry
1616135621.615419,1,13.0,53.0,67.0,73.0,58.0,0.735535,0.657593,-0.162781,0.002991,-0.969466,0.229008,0.465649,8.382398,10.416089,-1.504932,5.996997,0.945068,-2.308838,6.014941,1.105371,2.183228,sorry
1616135621.6251078,1,12.0,51.0,64.0,71.0,58.0,0.744507,0.646301,-0.166931,0.010864,-0.80916,0.251908,0.496183,7.979248,8.176636,-1.361377,5.404834,-1.217822,-2.42727,5.953931,1.064697,-0.011963,sorry
1616135621.63508,1,13.0,57.0,65.0,72.0,56.0,0.751587,0.636658,-0.171204,0.019714,-0.618321,0.259542,0.526718,7.634717,6.177637,-1.105371,4.866504,-3.134277,-2.3854,5.906079,0.790747,-1.915259,sorry
1616135621.645156,1,16.0,54.0,65.0,72.0,58.0,0.756714,0.629028,-0.175354,0.029541,-0.419847,0.282443,0.549618,7.370337,4.460962,-0.742895,4.404737,-4.766016,-2.183228,5.888135,0.339746,-3.47522,sorry
1616135621.655336,1,13.0,56.0,69.0,70.0,57.0,0.760193,0.62323,-0.179016,0.040222,-0.244275,0.320611,0.541985,7.095191,3.091211,-0.269165,3.935791,-6.053223,-1.826733,5.796021,-0.210547,-4.670312,sorry
1616135621.665218,1,12.0,56.0,66.0,68.0,57.0,0.762329,0.619019,-0.18158,0.051208,-0.10687,0.358779,0.503817,6.675293,2.155713,0.238062,3.340039,-6.910962,-1.404443,5.494555,-0.715381,-5.492163,sorry
1616135621.6751947,1,13.0,52.0,67.0,69.0,56.0,0.763672,0.615906,-0.183167,0.061707,-0.030534,0.351145,0.458015,6.0604,1.60542,0.736914,2.573218,-7.39187,-0.968994,4.94187,-1.130493,-6.038867,sorry
1616135621.6851387,1,13.0,52.0,65.0,69.0,56.0,0.764587,0.613525,-0.184082,0.070923,0.007634,0.312977,0.389313,5.306738,1.374536,1.155615,1.695142,-7.56294,-0.601733,4.208545,-1.410425,-6.381006,sorry
1616135621.6950707,1,13.0,54.0,66.0,70.0,58.0,0.76532,0.611572,-0.184387,0.078186,0.0,0.251908,0.29771,4.495654,1.398462,1.491772,0.791943,-7.492358,-0.308643,3.371143,-1.580298,-6.554468,sorry
1616135621.7050865,1,10.0,54.0,67.0,70.0,57.0,0.766357,0.609741,-0.184204,0.08313,-0.038168,0.183206,0.19084,3.715674,1.562353,1.757349,-0.044263,-7.296167,-0.089722,2.543311,-1.678394,-6.628638,sorry
1616135621.7153516,1,13.0,53.0,66.0,70.0,56.0,0.767822,0.607727,-0.183472,0.085815,-0.083969,0.129771,0.076336,2.922534,1.758545,1.969092,-0.860132,-7.078443,0.068188,1.709497,-1.732227,-6.701612,sorry
1616135621.7251494,1,12.0,39.0,64.0,68.0,58.0,0.769775,0.605713,-0.181885,0.086182,-0.122137,0.083969,-0.045802,1.972681,1.982251,2.042065,-1.794434,-6.848755,0.081348,0.753662,-1.641309,-6.845166,sorry
1616135621.7352705,1,16.0,57.0,63.0,72.0,55.0,0.771729,0.60437,-0.179016,0.08429,-0.099237,0.053435,-0.183206,0.92832,1.930811,1.982251,-2.777783,-6.914551,-0.029907,-0.159106,-1.495361,-7.297363,sorry
1616135621.7452493,1,15.0,53.0,65.0,71.0,58.0,0.77301,0.604309,-0.175293,0.080139,-0.038168,-0.015267,-0.29771,-0.270361,2.021729,1.831519,-3.87478,-6.858325,-0.206958,-1.246533,-1.220215,-7.682569,sorry
1616135621.7552743,1,14.0,53.0,65.0,70.0,57.0,0.77356,0.605774,-0.170715,0.073792,0.038168,-0.076336,-0.40458,-1.550391,2.40813,1.660449,-5.014844,-6.529346,-0.374438,-2.506226,-0.839795,-7.80459,sorry
1616135621.765193,1,12.0,52.0,66.0,69.0,57.0,0.77301,0.609009,-0.1651,0.065125,0.129771,-0.137405,-0.526718,-2.879468,3.100781,1.402051,-6.1573,-5.914453,-0.593359,-3.879565,-0.285913,-7.621558,sorry
1616135621.7753413,1,17.0,51.0,64.0,71.0,58.0,0.771362,0.613892,-0.158569,0.054077,0.198473,-0.198473,-0.648855,-4.157104,4.206152,1.098193,-7.204053,-4.905982,-0.820654,-5.287598,0.41272,-6.962402,sorry
1616135621.7851713,1,15.0,56.0,67.0,72.0,58.0,0.769043,0.619751,-0.151062,0.040771,0.229008,-0.244275,-0.755725,-5.217017,5.636914,0.80271,-7.988818,-3.582886,-1.021631,-6.516187,1.161597,-5.821143,sorry
1616135621.795214,1,13.0,53.0,65.0,73.0,55.0,0.766418,0.625732,-0.142761,0.026062,0.21374,-0.251908,-0.832061,-5.979053,7.186109,0.57063,-8.442212,-2.140161,-1.155615,-7.402637,1.825537,-4.362866,sorry
1616135621.8053453,1,17.0,51.0,64.0,71.0,56.0,0.763733,0.631348,-0.133667,0.010864,0.19084,-0.221374,-0.877863,-6.498242,8.610888,0.387598,-8.632421,-0.811084,-1.24773,-7.932593,2.355493,-2.868701,sorry
1616135621.81515,1,13.0,53.0,66.0,70.0,56.0,0.760986,0.636719,-0.124207,-0.004089,0.183206,-0.19084,-0.870229,-6.799707,9.855029,0.248828,-8.600122,0.34812,-1.301563,-8.13357,2.739502,-1.448706,sorry
1616135621.825206,1,17.0,53.0,64.0,71.0,57.0,0.75824,0.641479,-0.114868,-0.017822,0.167939,-0.145038,-0.80916,-6.910962,10.980738,0.234473,-8.393164,1.406836,-1.240552,-8.090503,2.912964,-0.082544,sorry
1616135621.8352227,1,12.0,55.0,65.0,74.0,58.0,0.755615,0.645569,-0.106384,-0.03009,0.145038,-0.129771,-0.70229,-6.948047,11.978442,0.276343,-8.141943,2.354297,-1.131689,-7.932593,2.972778,1.155615,sorry
1616135621.8452094,1,16.0,54.0,65.0,72.0,58.0,0.753052,0.649109,-0.099426,-0.040649,0.145038,-0.137405,-0.572519,-6.848755,12.679468,0.381616,-7.798608,3.019433,-0.965405,-7.627539,2.884253,2.086328,sorry
1616135621.855084,1,15.0,54.0,66.0,71.0,58.0,0.750244,0.652527,-0.093933,-0.0495,0.19084,-0.129771,-0.465649,-6.474317,13.09458,0.650781,-7.221997,3.407031,-0.629248,-7.092798,2.520581,2.733521,sorry
1616135621.8652306,1,15.0,55.0,65.0,71.0,58.0,0.747253,0.655945,-0.089355,-0.056885,0.229008,-0.10687,-0.40458,-5.970679,13.376904,0.92832,-6.54729,3.669019,-0.279932,-6.458765,2.082739,3.213233,sorry
1616135621.8750854,1,14.0,54.0,67.0,71.0,58.0,0.743835,0.659851,-0.085266,-0.06311,0.290076,-0.076336,-0.374046,-5.439527,13.497729,1.175952,-5.865405,3.771899,0.052637,-5.813965,1.616186,3.493164,sorry
1616135621.88528,1,15.0,53.0,68.0,71.0,58.0,0.739502,0.664612,-0.081421,-0.06897,0.374046,-0.091603,-0.366412,-4.920337,13.570704,1.281226,-5.201465,3.826929,0.267969,-5.163184,1.241748,3.682178,sorry
1616135621.8945942,1,13.0,53.0,65.0,72.0,58.0,0.734375,0.669983,-0.078369,-0.074768,0.435115,-0.122137,-0.358779,-4.416699,13.812353,1.311133,-4.562646,4.053027,0.429468,-4.527954,0.930713,4.005176,sorry
1616135621.904349,1,13.0,54.0,63.0,71.0,57.0,0.728699,0.67572,-0.076233,-0.080811,0.450382,-0.183206,-0.351145,-3.917847,14.257373,1.202271,-3.935791,4.484888,0.465356,-3.87478,0.746484,4.499243,sorry
1616135621.9144487,1,15.0,53.0,66.0,71.0,57.0,0.723022,0.681091,-0.075195,-0.087219,0.427481,-0.244275,-0.335878,-3.30415,14.881836,1.009668,-3.204858,5.100976,0.41272,-3.092407,0.620874,5.147632,sorry
1616135621.9244733,1,15.0,52.0,65.0,71.0,58.0,0.717896,0.685669,-0.075378,-0.093567,0.358779,-0.29771,-0.305344,-2.548096,15.546972,0.721362,-2.350708,5.760132,0.247632,-2.161694,0.56106,5.810376,sorry
1616135621.9352024,1,16.0,55.0,68.0,74.0,58.0,0.713501,0.689209,-0.07666,-0.099487,0.274809,-0.312977,-0.259542,-1.513306,16.053003,0.381616,-1.240552,6.264966,0.007178,-0.974976,0.488086,6.291284,sorry
1616135621.9445708,1,11.0,53.0,65.0,71.0,55.0,0.7099,0.692078,-0.078735,-0.104065,0.229008,-0.282443,-0.221374,-0.156714,16.311401,0.039478,0.159106,6.520972,-0.250024,0.470142,0.332568,6.501831,sorry
1616135621.9544065,1,13.0,52.0,65.0,71.0,58.0,0.706726,0.69458,-0.081055,-0.106812,0.206107,-0.206107,-0.175573,1.293188,16.432226,-0.266772,1.623364,6.640601,-0.480908,1.945166,0.11604,6.568823,sorry
1616135621.9646406,1,16.0,54.0,66.0,70.0,58.0,0.703918,0.697083,-0.083374,-0.107666,0.198473,-0.114504,-0.114504,2.585181,16.565014,-0.529956,2.905786,6.770996,-0.668726,3.215625,-0.100488,6.660937,sorry
1616135621.9744368,1,17.0,52.0,66.0,71.0,61.0,0.701355,0.699463,-0.085815,-0.106873,0.183206,-0.061069,-0.038168,3.56853,16.793507,-0.748877,3.853247,6.998291,-0.813477,4.135571,-0.266772,6.876269,sorry
1616135621.984419,1,15.0,57.0,64.0,73.0,58.0,0.699463,0.701294,-0.088684,-0.104797,0.145038,-0.030534,0.038168,4.350904,17.077026,-0.84458,4.574609,7.279419,-0.849365,4.79353,-0.462964,7.170557,sorry
1616135621.9946542,1,16.0,53.0,65.0,72.0,58.0,0.698669,0.702148,-0.091919,-0.101685,0.061069,0.0,0.10687,4.947852,17.331837,-0.846973,5.087817,7.533032,-0.817065,5.21582,-0.643604,7.460059,sorry
1616135622.004277,1,16.0,53.0,66.0,73.0,57.0,0.699158,0.701782,-0.095276,-0.097595,-0.038168,0.038168,0.167939,5.467041,17.417969,-0.765625,5.50293,7.617969,-0.733325,5.516089,-0.81228,7.598828,sorry
1616135622.0143678,1,13.0,53.0,68.0,70.0,57.0,0.700989,0.700195,-0.098755,-0.09259,-0.137405,0.068702,0.236641,5.909668,17.239721,-0.635229,5.822339,7.439722,-0.634033,5.714673,-0.933105,7.489966,sorry
1616135622.0244222,1,17.0,55.0,65.0,71.0,58.0,0.703918,0.697388,-0.102722,-0.086609,-0.21374,0.091603,0.305344,6.258985,16.769581,-0.45459,6.024512,6.973169,-0.513208,5.793628,-1.016846,7.109546,sorry
1616135622.0343428,1,16.0,54.0,66.0,68.0,56.0,0.707581,0.693848,-0.106873,-0.079956,-0.267176,0.10687,0.358779,6.418091,16.094873,-0.289502,6.022119,6.304443,-0.428271,5.696729,-1.007275,6.534131,sorry
1616135622.0442443,1,13.0,55.0,65.0,73.0,58.0,0.711609,0.689819,-0.111206,-0.07312,-0.29771,0.10687,0.389313,6.408521,15.319677,-0.118433,5.845068,5.538818,-0.34812,5.453882,-0.96062,5.854639,sorry
1616135622.054252,1,15.0,53.0,64.0,71.0,58.0,0.715881,0.685303,-0.115784,-0.066223,-0.328244,0.10687,0.419847,6.336743,14.503809,0.063403,5.601026,4.737305,-0.267969,5.166772,-0.915161,5.130884,sorry
1616135622.064414,1,16.0,52.0,65.0,71.0,57.0,0.720459,0.680298,-0.120605,-0.059082,-0.351145,0.099237,0.458015,6.203955,13.681958,0.234473,5.287598,3.935791,-0.208154,4.837793,-0.851758,4.397559,sorry
1616135622.0741975,1,16.0,52.0,66.0,71.0,58.0,0.72522,0.674927,-0.12561,-0.051819,-0.374046,0.099237,0.48855,6.034082,12.833789,0.34812,4.933496,3.111548,-0.212939,4.51001,-0.741699,3.627148,sorry
1616135622.0846066,1,13.0,54.0,65.0,70.0,58.0,0.72998,0.669312,-0.13092,-0.044312,-0.381679,0.099237,0.519084,5.914453,11.970068,0.466553,4.622461,2.278931,-0.216528,4.246826,-0.671118,2.847168,sorry
1616135622.0944488,1,16.0,55.0,64.0,70.0,120.0,0.734741,0.663391,-0.136475,-0.036377,-0.389313,0.10687,0.549618,5.791235,11.158984,0.590967,4.298266,1.507324,-0.216528,3.987231,-0.62207,2.121021,sorry
1616135622.1044428,1,13.0,54.0,65.0,71.0,57.0,0.739563,0.657288,-0.142029,-0.028198,-0.40458,0.114504,0.572519,5.581885,10.373022,0.665137,3.885547,0.766821,-0.270361,3.677392,-0.522778,1.397266,sorry
1616135622.114246,1,15.0,53.0,65.0,71.0,58.0,0.744263,0.651062,-0.147522,-0.019897,-0.396947,0.122137,0.587786,5.377319,9.554761,0.733325,3.478809,0.0,-0.331372,3.405835,-0.451001,0.637622,sorry
1616135622.1245468,1,13.0,55.0,66.0,72.0,58.0,0.748718,0.644836,-0.152954,-0.011475,-0.381679,0.129771,0.59542,5.151221,8.777173,0.837402,3.050537,-0.71897,-0.352905,3.121118,-0.434253,-0.084937,sorry
1616135622.134235,1,39.0,53.0,66.0,71.0,57.0,0.75293,0.638672,-0.158386,-0.00293,-0.358779,0.129771,0.610687,4.919141,7.973267,0.995313,2.617481,-1.460669,-0.317017,2.850757,-0.504834,-0.833813,sorry
1616135622.1443958,1,16.0,52.0,64.0,71.0,56.0,0.756775,0.632629,-0.164001,0.005737,-0.320611,0.114504,0.625954,4.684668,7.132276,1.232178,2.180835,-2.232275,-0.193799,2.591162,-0.692651,-1.604224,sorry
1616135622.1544127,1,13.0,52.0,63.0,74.0,58.0,0.760193,0.626892,-0.169861,0.014465,-0.274809,0.099237,0.633588,4.47771,6.264966,1.562353,1.768115,-3.026611,0.029907,2.368652,-1.012061,-2.37583,sorry
1616135622.1644597,1,11.0,54.0,64.0,71.0,58.0,0.762939,0.621704,-0.175598,0.023132,-0.206107,0.091603,0.610687,4.334155,5.458667,1.880566,1.425977,-3.757544,0.260791,2.226294,-1.358984,-3.067285,sorry
1616135622.1743417,1,13.0,55.0,70.0,71.0,58.0,0.765015,0.61731,-0.180481,0.031799,-0.137405,0.137405,0.557252,4.195386,4.805493,2.119824,1.104175,-4.337744,0.427075,2.105469,-1.622168,-3.624756,sorry
1616135622.184343,1,16.0,56.0,67.0,107.0,91.0,0.766602,0.613892,-0.18396,0.040039,-0.083969,0.175573,0.48855,3.891528,4.373633,2.210742,0.6448,-4.705005,0.460571,1.842285,-1.68916,-4.062598,sorry
1616135622.1943488,1,17.0,52.0,66.0,73.0,58.0,0.767639,0.61145,-0.185974,0.04718,-0.038168,0.183206,0.389313,3.288599,4.249219,2.132983,-0.07417,-4.777978,0.33855,1.286011,-1.495361,-4.364062,sorry
1616135622.2043934,1,16.0,54.0,65.0,72.0,56.0,0.768372,0.609863,-0.186707,0.05249,-0.030534,0.160305,0.282443,2.549292,4.523169,1.990625,-0.888843,-4.469336,0.163892,0.519189,-1.144849,-4.382007,sorry
1616135622.214375,1,17.0,52.0,64.0,71.0,58.0,0.769104,0.608704,-0.186523,0.055603,-0.053435,0.10687,0.175573,1.783667,5.110547,1.867407,-1.690356,-3.861621,0.011963,-0.356494,-0.747681,-4.131982,sorry
1616135622.224244,1,13.0,55.0,66.0,72.0,58.0,0.770264,0.6073,-0.185974,0.056396,-0.129771,0.038168,0.083969,1.038379,5.896509,1.732227,-2.44043,-3.066089,-0.159106,-1.262085,-0.293091,-3.700122,sorry
1616135622.2343712,1,15.0,53.0,66.0,73.0,58.0,0.772095,0.605347,-0.185425,0.054871,-0.221374,-0.045802,0.007634,0.362476,6.7375,1.514502,-3.093604,-2.222705,-0.428271,-2.080347,0.260791,-3.208447,sorry
1616135622.2444742,1,13.0,54.0,66.0,73.0,58.0,0.774353,0.602844,-0.184998,0.051575,-0.282443,-0.091603,-0.061069,-0.056226,7.345215,1.265674,-3.472827,-1.616186,-0.739307,-2.560059,0.768018,-2.83999,sorry
1616135622.254276,1,13.0,53.0,66.0,74.0,62.0,0.776733,0.600281,-0.184509,0.047607,-0.29771,-0.10687,-0.091603,-0.317017,7.815356,0.990527,-3.685767,-1.15083,-1.079053,-2.829224,1.252515,-2.546899,sorry
1616135622.2643075,1,16.0,53.0,65.0,72.0,58.0,0.778625,0.598389,-0.183594,0.043884,-0.236641,-0.068702,-0.10687,-0.434253,8.108447,0.724951,-3.750366,-0.864917,-1.394873,-2.908179,1.64729,-2.362671,sorry
1616135622.274408,1,16.0,53.0,65.0,73.0,57.0,0.779602,0.597717,-0.182129,0.041199,-0.114504,-0.007634,-0.091603,-0.449805,8.317798,0.533545,-3.714478,-0.667529,-1.612598,-2.887842,1.908081,-2.202368,sorry
1616135622.284314,1,17.0,52.0,67.0,72.0,58.0,0.779297,0.598816,-0.179993,0.040039,0.045802,0.068702,-0.053435,-0.433057,8.572607,0.41272,-3.651074,-0.43186,-1.722656,-2.880664,2.070776,-1.971484,sorry
1616135622.2942164,1,16.0,52.0,65.0,72.0,56.0,0.777649,0.601685,-0.177429,0.040405,0.198473,0.114504,-0.015267,-0.363672,8.985327,0.42229,-3.543408,-0.044263,-1.662842,-2.917749,2.100684,-1.544409,sorry
1616135622.3044958,1,12.0,29.0,67.0,73.0,58.0,0.774963,0.605896,-0.174622,0.04187,0.305344,0.152672,0.015267,-0.228491,9.584668,0.574219,-3.377124,0.523975,-1.431958,-2.98833,1.997803,-0.893628,sorry
1616135622.314152,1,13.0,54.0,65.0,73.0,58.0,0.77179,0.610596,-0.171753,0.044067,0.358779,0.160305,0.038168,-0.0323,10.282104,0.845776,-3.157007,1.193897,-1.06709,-3.063696,1.768115,-0.107666,sorry
1616135622.324365,1,16.0,54.0,66.0,73.0,60.0,0.768616,0.615234,-0.168884,0.046387,0.351145,0.167939,0.038168,0.24165,10.968775,1.196289,-2.861523,1.853052,-0.624463,-3.075659,1.433154,0.701025,sorry
1616135622.334379,1,15.0,53.0,64.0,72.0,58.0,0.76593,0.61908,-0.166138,0.048523,0.29771,0.160305,0.030534,0.567041,11.560938,1.577905,-2.515796,2.424878,-0.16748,-3.01106,1.045557,1.439136,sorry
1616135622.344423,1,15.0,49.0,67.0,73.0,58.0,0.76416,0.621948,-0.163513,0.05011,0.21374,0.129771,0.007634,0.887646,12.008349,1.95354,-2.171265,2.853149,0.258398,-2.891431,0.656763,2.031299,sorry
1616135622.3541417,1,16.0,55.0,66.0,70.0,58.0,0.763245,0.623596,-0.161194,0.050781,0.114504,0.091603,-0.030534,1.213037,12.253589,2.286108,-1.818359,3.085229,0.617285,-2.685669,0.295483,2.428467,sorry
1616135622.3642066,1,16.0,48.0,73.0,71.0,57.0,0.763184,0.624146,-0.15918,0.050537,0.030534,0.053435,-0.068702,1.562353,12.273926,2.527759,-1.436743,3.0948,0.860132,-2.363867,0.008374,2.604321,sorry
1616135622.3743026,1,17.0,54.0,68.0,67.0,56.0,0.763733,0.623962,-0.157654,0.049438,-0.038168,0.015267,-0.091603,1.940381,12.11482,2.671314,-1.024023,2.927319,0.989331,-1.941577,-0.19978,2.603125,sorry
