"Alphabet","timestamp","user_id","flex_1","flex_2","flex_3","flex_4","flex_5","Qw","Qx","Qy","Qz","GYRx","GYRy","GYRz","ACCx","ACCy","ACCz","ACCx_body","ACCy_body","ACCz_body","ACCx_world","ACCy_world","ACCz_world"
"T","1617451914.099115","7","36","11","92","57","36","0.706604","0.203918","-0.677612","-0.001953","-0.007634","-0.015267","0.007634","9.456665","2.845972","0.175854","0.078955","-0.003589","0.189014","-0.173462","-0.078955","0.07417"
"T","1617451914.0889435","7","37","9","61","58","33","0.706543","0.204163","-0.677551","-0.001953","-0.015267","-0.015267","0.007634","9.433935","2.87229","0.159106","0.058618","0.017944","0.173462","-0.166284","-0.049048","0.061011"
"T","1617451914.079146","7","37","9","63","59","36","0.706543","0.204407","-0.677429","-0.001892","-0.015267","-0.007634","0.007634","9.418384","2.880664","0.139966","0.044263","0.023926","0.154321","-0.150732","-0.033496","0.049048"
"T","1617451914.0688727","7","37","10","63","58","35","0.706543","0.204651","-0.677429","-0.00177","-0.015267","-0.007634","0","9.405225","2.875879","0.128003","0.031104","0.017944","0.142358","-0.137573","-0.0323","0.034692"
"T","1617451914.0591042","7","38","9","62","60","37","0.706421","0.204712","-0.67749","-0.001709","0","0","-0.007634","9.404028","2.83042","0.092114","0.029907","-0.026318","0.110059","-0.095703","-0.063403","0.020337"
"T","1617451914.0489595","7","37","8","62","62","35","0.706299","0.204651","-0.677673","-0.001709","0.007634","0.015267","-0.015267","9.424365","2.781372","0.072974","0.049048","-0.07417","0.094507","-0.065796","-0.107666","0.023926"
"T","1617451914.039174","7","37","10","61","58","45","0.706116","0.204468","-0.677917","-0.00177","0.007634","0.015267","-0.015267","9.424365","2.763428","0.066992","0.049048","-0.089722","0.093311","-0.059814","-0.122021","0.020337"
"T","1617451914.0290823","7","35","9","62","112","37","0.705933","0.204285","-0.678162","-0.001892","0.007634","0.015267","-0.007634","9.393262","2.764624","0.068188","0.016748","-0.086133","0.099292","-0.069385","-0.111255","-0.008374"
"T","1617451914.018957","7","35","10","63","60","36","0.70575","0.204163","-0.678406","-0.002075","0","0.007634","-0.007634","9.344213","2.783765","0.072974","-0.031104","-0.066992","0.110059","-0.088525","-0.08374","-0.049048"
"T","1617451914.0091596","7","35","9","61","62","36","0.705627","0.204163","-0.678467","-0.002136","-0.007634","0","0","9.272436","2.835205","0.082544","-0.101685","-0.016748","0.122021","-0.119629","-0.021533","-0.101685"
"T","1617451913.9991128","7","35","7","62","62","36","0.705566","0.204407","-0.678528","-0.002197","-0.022901","-0.007634","0.007634","9.209033","2.908179","0.094507","-0.165088","0.05144","0.136377","-0.156714","0.053833","-0.142358"
"T","1617451913.9893105","7","35","8","62","60","33","0.705566","0.204712","-0.678406","-0.002075","-0.022901","-0.015267","0.007634","9.157593","2.984741","0.08374","-0.215332","0.12561","0.12561","-0.171069","0.13877","-0.168677"
"T","1617451913.978968","7","37","10","61","61","36","0.705505","0.204956","-0.678406","-0.001892","-0.007634","-0.007634","0","9.13606","3.014648","0.052637","-0.236865","0.154321","0.095703","-0.151929","0.179443","-0.181836"
"T","1617451913.9690466","7","38","10","63","62","36","0.705444","0.204834","-0.678528","-0.001709","0.015267","0.007634","-0.015267","9.157593","2.953638","0.001196","-0.216528","0.098096","0.046655","-0.088525","0.136377","-0.178247"
"T","1617451913.9591758","7","37","8","62","62","36","0.705322","0.204346","-0.678772","-0.00177","0.038168","0.022901","-0.022901","9.223389","2.847168","-0.050244","-0.151929","-0.001196","0","-0.010767","0.040674","-0.144751"
"T","1617451913.949013","7","37","10","62","62","7","0.705139","0.203613","-0.679138","-0.002014","0.038168","0.022901","-0.022901","9.266455","2.789746","-0.07417","-0.111255","-0.050244","-0.020337","0.023926","-0.008374","-0.120825"
"T","1617451913.9394355","7","36","11","63","61","36","0.705017","0.202942","-0.679504","-0.00238","0.030534","0.022901","-0.022901","9.282007","2.774194","-0.078955","-0.098096","-0.061011","-0.021533","0.028711","-0.021533","-0.111255"
"T","1617451913.9291306","7","37","8","62","62","35","0.704956","0.202515","-0.679749","-0.002563","0.007634","0.007634","-0.015267","9.250903","2.808887","-0.061011","-0.130396","-0.022729","-0.001196","-0.002393","0.015552","-0.130396"
"T","1617451913.9189851","7","38","8","63","57","33","0.704895","0.202271","-0.679871","-0.002563","0","0","-0.015267","9.213819","2.837598","-0.029907","-0.168677","0.008374","0.031104","-0.044263","0.045459","-0.159106"
"T","1617451913.9093282","7","39","9","61","60","33","0.704895","0.202087","-0.679871","-0.002441","0","-0.007634","-0.015267","9.188696","2.835205","-0.029907","-0.193799","0.00957","0.029907","-0.045459","0.053833","-0.181836"
"T","1617451913.8990953","7","37","10","63","58","36","0.704956","0.201965","-0.679871","-0.002319","0","-0.007634","-0.007634","9.179126","2.816064","-0.0323","-0.204565","-0.004785","0.026318","-0.038281","0.044263","-0.197388"
"T","1617451913.8893623","7","36","9","61","58","35","0.704956","0.201782","-0.679932","-0.002197","0","-0.007634","-0.015267","9.200659","2.764624","-0.05144","-0.184229","-0.052637","0.007178","-0.005981","0","-0.191406"
"T","1617451913.8793974","7","37","8","61","60","33","0.704956","0.201599","-0.679993","-0.002136","0.007634","0","-0.007634","9.255689","2.707202","-0.089722","-0.130396","-0.10647","-0.029907","0.046655","-0.052637","-0.154321"
"T","1617451913.8691094","7","35","9","62","68","36","0.704895","0.201416","-0.680115","-0.002258","0.007634","0.007634","-0.007634","9.321485","2.674902","-0.132788","-0.065796","-0.137573","-0.070581","0.099292","-0.087329","-0.101685"
"T","1617451913.859298","7","37","9","63","64","31","0.704834","0.201294","-0.680176","-0.002441","0.007634","0.007634","0","9.364551","2.661743","-0.150732","-0.021533","-0.150732","-0.087329","0.122021","-0.107666","-0.062207"
"T","1617451913.8498166","7","35","10","62","58","36","0.704834","0.201294","-0.680237","-0.002625","0","0.007634","0","9.399243","2.674902","-0.145947","0.011963","-0.139966","-0.082544","0.117236","-0.107666","-0.027515"
"T","1617451913.839224","7","37","10","62","59","36","0.704773","0.201416","-0.680237","-0.002808","-0.007634","0","0.007634","9.410009","2.697632","-0.128003","0.023926","-0.122021","-0.063403","0.094507","-0.100488","-0.010767"
"T","1617451913.8293312","7","36","7","58","60","33","0.704773","0.201599","-0.680176","-0.002991","-0.007634","-0.007634","0.007634","9.408813","2.726343","-0.105273","0.023926","-0.098096","-0.040674","0.066992","-0.084937","-0.004785"
"T","1617451913.8191438","7","35","8","62","58","36","0.704834","0.201782","-0.680054","-0.003052","-0.007634","-0.015267","0.007634","9.375318","2.741894","-0.072974","-0.007178","-0.086133","-0.00957","0.031104","-0.07417","-0.031104"
"T","1617451913.8099356","7","34","10","62","58","37","0.704956","0.201904","-0.679932","-0.003113","0","-0.015267","0","9.351392","2.722754","-0.055029","-0.029907","-0.107666","0.003589","0.022729","-0.090918","-0.058618"
"T","1617451913.7993293","7","36","7","58","59","32","0.705017","0.201965","-0.67981","-0.003235","0","-0.007634","0.007634","9.347803","2.711987","-0.050244","-0.0323","-0.120825","0.007178","0.022729","-0.102881","-0.065796"
"T","1617451913.7894523","7","36","9","59","60","33","0.705078","0.202087","-0.679688","-0.003357","-0.007634","-0.007634","0.007634","9.358569","2.737109","-0.045459","-0.020337","-0.099292","0.00957","0.015552","-0.087329","-0.047852"
"T","1617451913.7790716","7","35","9","61","58","32","0.705139","0.202271","-0.679565","-0.00354","-0.007634","-0.007634","0.007634","9.365747","2.793335","-0.050244","-0.011963","-0.049048","0.002393","0.00957","-0.04187","-0.025122"
"T","1617451913.7691853","7","36","9","62","60","35","0.7052","0.202515","-0.679443","-0.003662","-0.007634","-0.007634","0.015267","9.357373","2.844775","-0.059814","-0.019141","-0.002393","-0.007178","0.005981","0.004785","-0.017944"
"T","1617451913.7598617","7","35","10","63","63","37","0.7052","0.202759","-0.679321","-0.003784","-0.007634","-0.007634","0.015267","9.371729","2.871094","-0.075366","-0.002393","0.017944","-0.022729","0.016748","0.022729","0.002393"
"T","1617451913.748984","7","37","11","62","62","33","0.7052","0.203003","-0.679321","-0.003967","-0.007634","0","0.007634","9.411206","2.891431","-0.071777","0.037085","0.0323","-0.019141","0.011963","0.023926","0.044263"
"T","1617451913.7393444","7","37","9","63","60","33","0.7052","0.203064","-0.67926","-0.004089","0","0","0.007634","9.427954","2.883057","-0.061011","0.055029","0.021533","-0.008374","0.005981","0.005981","0.058618"
"T","1617451913.729265","7","35","8","62","58","35","0.705261","0.203064","-0.67926","-0.004272","0","-0.007634","0","9.430346","2.875879","-0.025122","0.057422","0.011963","0.025122","-0.022729","-0.011963","0.057422"
"T","1617451913.7191863","7","37","9","63","62","36","0.705322","0.203064","-0.679199","-0.004395","0","-0.007634","0","9.414795","2.887842","0.029907","0.04187","0.021533","0.078955","-0.077759","-0.013159","0.045459"
"T","1617451913.7092445","7","41","9","62","59","35","0.705383","0.203125","-0.679077","-0.004456","-0.007634","-0.015267","0","9.381299","2.911767","0.081348","0.00957","0.043066","0.128003","-0.132788","0","0.020337"
"T","1617451913.6997728","7","36","9","62","59","33","0.705566","0.203125","-0.678894","-0.004456","-0.007634","-0.022901","0","9.341822","2.922534","0.129199","-0.028711","0.053833","0.171069","-0.18064","0.008374","-0.011963"
"T","1617451913.6898274","7","38","7","63","62","36","0.705627","0.203125","-0.678772","-0.004395","0","-0.015267","0","9.31311","2.902197","0.133984","-0.056226","0.033496","0.173462","-0.179443","-0.001196","-0.044263"
"T","1617451913.6797998","7","35","10","61","58","36","0.705688","0.203125","-0.678711","-0.004333","0","-0.007634","-0.007634","9.305933","2.873486","0.113647","-0.063403","0.005981","0.150732","-0.150732","-0.017944","-0.058618"
"T","1617451913.6699097","7","37","9","63","60","37","0.705688","0.203064","-0.678772","-0.004211","0","0","-0.015267","9.319092","2.850757","0.094507","-0.05144","-0.013159","0.132788","-0.126807","-0.034692","-0.052637"
"T","1617451913.659999","7","36","10","60","61","36","0.705566","0.202881","-0.678955","-0.004089","0","0.007634","-0.015267","9.337036","2.808887","0.0646","-0.035889","-0.050244","0.10647","-0.090918","-0.065796","-0.049048"
"T","1617451913.65004","7","37","9","61","60","33","0.705383","0.202759","-0.679138","-0.004028","0","0.007634","-0.015267","9.337036","2.774194","0.021533","-0.035889","-0.082544","0.066992","-0.044263","-0.08374","-0.058618"
"T","1617451913.6399138","7","36","10","63","57","32","0.705261","0.202698","-0.679321","-0.003967","-0.007634","0.007634","-0.015267","9.315503","2.781372","-0.011963","-0.058618","-0.072974","0.038281","-0.021533","-0.061011","-0.076563"
"T","1617451913.629962","7","36","9","62","62","33","0.705078","0.202759","-0.679504","-0.003906","-0.015267","0.007634","-0.007634","9.285596","2.802905","-0.045459","-0.088525","-0.050244","0.00957","-0.001196","-0.022729","-0.099292"
"T","1617451913.6200342","7","36","12","63","59","33","0.704956","0.202942","-0.679565","-0.003845","-0.015267","0","0","9.264063","2.83042","-0.0646","-0.110059","-0.023926","-0.004785","0.002393","0.00957","-0.111255"
"T","1617451913.609964","7","37","8","62","60","33","0.704834","0.203064","-0.679626","-0.003784","-0.015267","0","0","9.224585","2.842383","-0.07417","-0.14834","-0.013159","-0.011963","0.003589","0.0323","-0.144751"
"T","1617451913.599794","7","38","9","62","58","35","0.704773","0.203125","-0.679688","-0.003723","-0.007634","0.007634","0","9.203052","2.823242","-0.095703","-0.169873","-0.031104","-0.031104","0.025122","0.027515","-0.171069"
"T","1617451913.5899465","7","32","9","63","61","35","0.704651","0.203125","-0.67981","-0.003662","0","0.007634","-0.007634","9.236547","2.789746","-0.093311","-0.137573","-0.063403","-0.025122","0.029907","-0.011963","-0.149536"
"T","1617451913.579852","7","38","10","61","60","35","0.70459","0.203003","-0.679993","-0.003723","0","0.007634","-0.015267","9.28081","2.763428","-0.076563","-0.094507","-0.088525","-0.005981","0.021533","-0.052637","-0.11604"
"T","1617451913.569916","7","34","9","61","61","33","0.704468","0.20282","-0.680176","-0.003723","0.007634","0.007634","-0.015267","9.302343","2.745483","-0.0646","-0.07417","-0.104077","0.008374","0.014355","-0.076563","-0.100488"
"T","1617451913.5599637","7","36","9","62","59","32","0.704346","0.202637","-0.680298","-0.003845","0","0","-0.007634","9.311914","2.744287","-0.055029","-0.063403","-0.104077","0.020337","0.003589","-0.082544","-0.090918"
"T","1617451913.5500114","7","35","8","60","58","35","0.704346","0.202576","-0.680298","-0.003845","-0.007634","-0.007634","-0.007634","9.299952","2.774194","-0.034692","-0.075366","-0.072974","0.040674","-0.023926","-0.056226","-0.093311"
"T","1617451913.5399072","7","36","9","60","58","36","0.704407","0.202637","-0.680237","-0.003845","-0.007634","-0.015267","0","9.262866","2.806494","-0.026318","-0.112451","-0.04187","0.047852","-0.04187","-0.019141","-0.119629"
"T","1617451913.5300915","7","17","10","60","58","33","0.704529","0.202698","-0.680115","-0.003845","-0.007634","-0.015267","0","9.24851","2.822046","-0.034692","-0.126807","-0.027515","0.035889","-0.035889","0","-0.129199"
"T","1617451913.5200267","7","38","11","63","58","36","0.704651","0.202759","-0.679993","-0.003845","0","-0.007634","0","9.255689","2.823242","-0.049048","-0.119629","-0.027515","0.017944","-0.017944","0.002393","-0.122021"
"T","1617451913.5098798","7","37","10","63","58","37","0.704712","0.202698","-0.679932","-0.003906","0.007634","0","0","9.305933","2.813672","-0.052637","-0.069385","-0.037085","0.013159","-0.007178","-0.017944","-0.076563"
"T","1617451913.4999804","7","35","8","62","59","31","0.704712","0.202515","-0.679993","-0.004028","0.015267","0.007634","-0.007634","9.382495","2.795727","-0.046655","0.005981","-0.055029","0.019141","-0.002393","-0.057422","-0.00957"
"T","1617451913.4900806","7","35","10","63","78","-13","0.704651","0.202332","-0.680054","-0.004272","0.015267","0","-0.007634","9.437525","2.79812","-0.028711","0.061011","-0.052637","0.038281","-0.017944","-0.075366","0.04187"
"T","1617451913.4800284","7","36","10","61","62","37","0.704651","0.202209","-0.680115","-0.004517","0.007634","-0.007634","0","9.427954","2.825635","-0.020337","0.052637","-0.026318","0.046655","-0.033496","-0.05144","0.04187"
"T","1617451913.469832","7","35","10","62","62","35","0.704712","0.202209","-0.680054","-0.004761","0","-0.007634","0.007634","9.400439","2.883057","-0.007178","0.025122","0.026318","0.058618","-0.061011","0","0.031104"
"T","1617451913.4600587","7","37","9","61","60","35","0.704773","0.202271","-0.679932","-0.004883","-0.007634","-0.015267","0.007634","9.363355","2.953638","-0.002393","-0.008374","0.093311","0.061011","-0.08374","0.070581","0.017944"
"T","1617451913.449889","7","37","10","62","57","33","0.704895","0.202393","-0.67981","-0.004944","-0.007634","-0.015267","0.007634","9.327466","2.984741","-0.005981","-0.044263","0.122021","0.053833","-0.087329","0.108862","-0.005981"
"T","1617451913.4401157","7","37","10","62","63","36","0.705017","0.202515","-0.679626","-0.004944","0","-0.015267","0","9.304736","2.995508","-0.025122","-0.065796","0.130396","0.031104","-0.069385","0.129199","-0.023926"
"T","1617451913.4299097","7","37","9","59","59","35","0.705139","0.202515","-0.679565","-0.005005","0","-0.007634","0","9.334643","2.9979","-0.038281","-0.037085","0.131592","0.015552","-0.052637","0.126807","0.002393"
"T","1617451913.419814","7","38","9","62","57","32","0.705139","0.202393","-0.679565","-0.004944","0.007634","0","-0.007634","9.370532","2.990723","-0.049048","-0.001196","0.126807","0.004785","-0.038281","0.114844","0.034692"
"T","1617451913.410089","7","37","8","61","58","33","0.705139","0.202209","-0.679626","-0.005005","0.007634","0.007634","-0.007634","9.412402","2.967993","-0.045459","0.038281","0.10647","0.008374","-0.033496","0.08374","0.066992"
"T","1617451913.4000366","7","36","10","62","62","35","0.705078","0.202026","-0.679749","-0.005005","0","0","-0.015267","9.427954","2.957227","-0.045459","0.053833","0.098096","0.00957","-0.031104","0.071777","0.078955"
"T","1617451913.3898137","7","35","9","62","60","35","0.705017","0.201843","-0.67981","-0.004944","-0.007634","0","-0.015267","9.421972","2.944067","-0.0323","0.046655","0.088525","0.023926","-0.043066","0.061011","0.069385"
"T","1617451913.3801258","7","35","10","63","59","33","0.705017","0.201782","-0.679871","-0.004761","-0.015267","-0.007634","-0.015267","9.400439","2.940479","-0.004785","0.023926","0.088525","0.052637","-0.071777","0.059814","0.047852"
"T","1617451913.3701904","7","37","10","62","60","36","0.705017","0.201782","-0.67981","-0.004456","-0.015267","-0.015267","-0.015267","9.351392","2.916553","0.014355","-0.023926","0.068188","0.070581","-0.087329","0.049048","-0.002393"
"T","1617451913.3600268","7","36","9","61","60","37","0.705078","0.201721","-0.67981","-0.004089","-0.015267","-0.015267","-0.022901","9.314306","2.863916","0.021533","-0.063403","0.021533","0.076563","-0.08374","0.015552","-0.053833"
"T","1617451913.3499594","7","36","10","62","57","31","0.705139","0.201538","-0.67981","-0.003723","-0.007634","-0.007634","-0.022901","9.296362","2.781372","0.011963","-0.08374","-0.052637","0.065796","-0.055029","-0.043066","-0.095703"
"T","1617451913.3401928","7","37","10","62","52","31","0.705139","0.201294","-0.679871","-0.003418","-0.007634","0","-0.030534","9.304736","2.701221","0.00957","-0.077759","-0.12561","0.063403","-0.0323","-0.111255","-0.110059"
"T","1617451913.3300314","7","37","9","60","62","36","0.705078","0.20105","-0.679993","-0.003174","-0.015267","0","-0.030534","9.296362","2.665332","-0.010767","-0.087329","-0.154321","0.044263","-0.007178","-0.129199","-0.128003"
"T","1617451913.320057","7","33","9","61","58","33","0.704956","0.200989","-0.680176","-0.002808","-0.022901","0.007634","-0.022901","9.298755","2.676099","-0.010767","-0.087329","-0.137573","0.047852","-0.014355","-0.114844","-0.123218"
"T","1617451913.3101745","7","36","10","63","60","33","0.704773","0.200989","-0.680359","-0.002502","-0.022901","0.007634","-0.022901","9.292773","2.668921","-0.025122","-0.094507","-0.139966","0.038281","-0.004785","-0.112451","-0.130396"
"T","1617451913.3001337","7","37","10","62","57","32","0.70459","0.200989","-0.680542","-0.002197","-0.015267","0.007634","-0.022901","9.267652","2.671314","-0.031104","-0.120825","-0.132788","0.038281","-0.00957","-0.099292","-0.153125"
"T","1617451913.290049","7","37","9","61","59","37","0.704407","0.200928","-0.680725","-0.001892","-0.007634","0.007634","-0.015267","9.249707","2.631836","-0.039478","-0.141162","-0.16748","0.033496","0.002393","-0.123218","-0.183032"
"T","1617451913.2801058","7","35","7","62","58","33","0.704224","0.200928","-0.680908","-0.001831","-0.007634","0.007634","-0.015267","9.254492","2.619873","-0.037085","-0.136377","-0.177051","0.04187","-0.001196","-0.136377","-0.18064"
"T","1617451913.2701204","7","35","8","60","62","36","0.704102","0.200867","-0.681091","-0.001709","0","0.007634","-0.015267","9.242529","2.631836","-0.037085","-0.149536","-0.162695","0.045459","-0.00957","-0.120825","-0.189014"
"T","1617451913.2599957","7","36","10","62","59","36","0.703918","0.200806","-0.681274","-0.001709","0","0.007634","-0.007634","9.246119","2.629443","-0.04187","-0.145947","-0.162695","0.045459","-0.00957","-0.122021","-0.186621"
"T","1617451913.250105","7","37","10","61","61","36","0.703796","0.200684","-0.681458","-0.001831","0.007634","0.007634","-0.007634","9.254492","2.63064","-0.061011","-0.137573","-0.161499","0.029907","0.004785","-0.118433","-0.177051"
"T","1617451913.2402346","7","35","8","62","58","36","0.703674","0.200562","-0.681641","-0.001953","0.007634","0.007634","-0.007634","9.265259","2.634228","-0.086133","-0.128003","-0.15791","0.008374","0.025122","-0.111255","-0.16748"
"T","1617451913.2301056","7","37","7","61","59","35","0.703552","0.200439","-0.681763","-0.002075","0.007634","0.007634","-0.007634","9.286792","2.64021","-0.104077","-0.105273","-0.150732","-0.005981","0.038281","-0.107666","-0.143555"
"T","1617451913.220172","7","37","9","62","59","33","0.70343","0.200378","-0.681885","-0.002258","0","0.007634","-0.007634","9.310718","2.658154","-0.117236","-0.081348","-0.133984","-0.015552","0.044263","-0.095703","-0.114844"
"T","1617451913.2101417","7","37","9","62","58","37","0.703369","0.200378","-0.681946","-0.002319","0","0","0","9.332251","2.680884","-0.131592","-0.059814","-0.112451","-0.028711","0.052637","-0.077759","-0.088525"
"T","1617451913.1999583","7","37","8","62","58","36","0.703369","0.200378","-0.682007","-0.00238","-0.007634","0","0","9.34541","2.697632","-0.137573","-0.046655","-0.095703","-0.033496","0.053833","-0.0646","-0.070581"
"T","1617451913.190303","7","37","10","60","60","35","0.703369","0.200439","-0.682007","-0.002441","-0.007634","0","-0.007634","9.360962","2.719165","-0.117236","-0.031104","-0.076563","-0.013159","0.031104","-0.057422","-0.05144"
"T","1617451913.1800635","7","35","10","62","57","33","0.703369","0.200378","-0.681946","-0.002441","0","-0.007634","-0.007634","9.368139","2.713184","-0.089722","-0.022729","-0.081348","0.011963","0.008374","-0.071777","-0.044263"
"T","1617451913.17016","7","37","8","80","57","33","0.70343","0.200256","-0.681946","-0.002502","0.007634","-0.007634","-0.007634","9.378906","2.692847","-0.0646","-0.013159","-0.100488","0.035889","-0.007178","-0.098096","-0.040674"
"T","1617451913.1603456","7","35","10","61","60","37","0.703491","0.200073","-0.681946","-0.002563","0.015267","-0.007634","-0.007634","9.376513","2.676099","-0.037085","-0.015552","-0.11604","0.062207","-0.028711","-0.119629","-0.047852"
"T","1617451913.1502533","7","36","9","62","59","36","0.703613","0.19989","-0.681885","-0.002747","0.007634","-0.015267","-0.007634","9.356176","2.668921","-0.011963","-0.035889","-0.124414","0.08374","-0.049048","-0.126807","-0.070581"
"T","1617451913.1400042","7","33","10","61","62","36","0.703735","0.199768","-0.681763","-0.00293","0","-0.015267","0","9.334643","2.701221","0.020337","-0.057422","-0.093311","0.112451","-0.086133","-0.100488","-0.082544"
"T","1617451913.1303787","7","37","10","62","57","35","0.703857","0.19989","-0.68158","-0.002991","-0.007634","-0.022901","0","9.299952","2.747876","0.031104","-0.090918","-0.049048","0.119629","-0.107666","-0.052637","-0.101685"
"T","1617451913.1202955","7","37","10","62","59","32","0.704041","0.200073","-0.681396","-0.00293","-0.015267","-0.022901","0.007634","9.287989","2.810083","0.037085","-0.102881","0.00957","0.120825","-0.12561","0.003589","-0.096899"
"T","1617451913.1100545","7","37","10","62","57","35","0.704102","0.200378","-0.681213","-0.002808","-0.022901","-0.015267","0","9.29397","2.863916","0.037085","-0.095703","0.061011","0.119629","-0.137573","0.049048","-0.07417"
"T","1617451913.100067","7","37","8","63","62","35","0.704102","0.200562","-0.681152","-0.002625","-0.015267","-0.007634","0","9.301147","2.868701","0.016748","-0.088525","0.065796","0.099292","-0.118433","0.056226","-0.065796"
"T","1617451913.0901198","7","36","10","63","64","31","0.704102","0.200623","-0.681152","-0.002502","0","0","-0.007634","9.343018","2.829224","-0.013159","-0.046655","0.026318","0.069385","-0.076563","0.016748","-0.037085"
"T","1617451913.0802252","7","36","9","60","58","36","0.704041","0.200439","-0.681274","-0.002563","0.015267","0.007634","-0.007634","9.374121","2.78855","-0.040674","-0.016748","-0.010767","0.043066","-0.039478","-0.016748","-0.019141"
"T","1617451913.070114","7","33","9","62","59","36","0.703979","0.200195","-0.681396","-0.002747","0.015267","0.007634","-0.007634","9.392065","2.76582","-0.053833","0","-0.0323","0.031104","-0.020337","-0.038281","-0.008374"
"T","1617451913.0601096","7","33","10","61","58","35","0.703857","0.199951","-0.68158","-0.002991","0.015267","0.007634","-0.007634","9.418384","2.74668","-0.062207","0.026318","-0.05144","0.026318","-0.00957","-0.061011","0.00957"
"T","1617451913.050923","7","36","10","63","59","37","0.703796","0.199768","-0.681763","-0.003174","0.007634","0.007634","-0.007634","9.423169","2.757446","-0.053833","0.029907","-0.039478","0.037085","-0.022729","-0.053833","0.016748"
"T","1617451913.0401988","7","36","10","60","59","37","0.703674","0.199707","-0.681824","-0.003296","-0.007634","-0.007634","0","9.392065","2.786157","-0.046655","0.001196","-0.011963","0.046655","-0.040674","-0.023926","-0.002393"
"T","1617451913.030235","7","38","10","63","63","33","0.703735","0.199829","-0.681763","-0.003296","-0.015267","-0.007634","0","9.346606","2.819653","-0.039478","-0.043066","0.019141","0.052637","-0.058618","0.014355","-0.035889"
"T","1617451913.0209577","7","36","8","61","58","35","0.703735","0.200012","-0.681702","-0.003174","-0.022901","-0.015267","0","9.317896","2.843579","-0.037085","-0.071777","0.04187","0.055029","-0.068188","0.043066","-0.056226"
"T","1617451913.010817","7","35","10","62","59","35","0.703735","0.200134","-0.681641","-0.002991","-0.007634","-0.007634","-0.007634","9.304736","2.834009","-0.04187","-0.084937","0.033496","0.050244","-0.062207","0.039478","-0.071777"
"T","1617451913.0008743","7","37","5","60","58","36","0.703735","0.200073","-0.681702","-0.002869","0","0","-0.007634","9.314306","2.76582","-0.052637","-0.076563","-0.031104","0.039478","-0.034692","-0.017944","-0.082544"
"T","1617451912.9902315","7","37","12","62","62","35","0.703735","0.199951","-0.681763","-0.002869","0.007634","0","-0.007634","9.329859","2.713184","-0.068188","-0.062207","-0.082544","0.025122","-0.005981","-0.0646","-0.082544"
"T","1617451912.9802048","7","37","10","63","58","39","0.703735","0.199829","-0.681763","-0.002869","0","0","-0.007634","9.323877","2.708398","-0.082544","-0.068188","-0.086133","0.00957","0.008374","-0.062207","-0.089722"
"T","1617451912.9708035","7","32","10","62","58","36","0.703674","0.199707","-0.681824","-0.00293","0","0.007634","-0.007634","9.340625","2.727539","-0.078955","-0.05144","-0.065796","0.014355","0","-0.050244","-0.068188"
"T","1617451912.960925","7","35","10","60","60","37","0.703613","0.199646","-0.681946","-0.002991","0","0.007634","-0.007634","9.360962","2.743091","-0.075366","-0.031104","-0.049048","0.020337","-0.008374","-0.04187","-0.043066"
"T","1617451912.9508207","7","37","9","62","60","36","0.703491","0.199585","-0.682068","-0.003052","-0.007634","0","-0.007634","9.369336","2.758643","-0.070581","-0.022729","-0.033496","0.028711","-0.019141","-0.0323","-0.031104"
"T","1617451912.940892","7","36","10","60","62","36","0.70343","0.199707","-0.682129","-0.003052","-0.015267","-0.007634","0","9.341822","2.801709","-0.063403","-0.050244","0.007178","0.037085","-0.040674","0.00957","-0.045459"
"T","1617451912.9307575","7","35","9","60","58","68","0.703369","0.19989","-0.682129","-0.00293","-0.022901","-0.007634","0","9.301147","2.836401","-0.063403","-0.090918","0.040674","0.039478","-0.055029","0.05144","-0.075366"
"T","1617451912.9208624","7","37","9","61","60","36","0.703369","0.200073","-0.682068","-0.002747","-0.022901","-0.007634","0","9.274829","2.854346","-0.069385","-0.117236","0.058618","0.033496","-0.055029","0.076563","-0.095703"
"T","1617451912.910892","7","37","10","61","61","36","0.703369","0.200195","-0.682068","-0.002502","-0.015267","0","-0.007634","9.285596","2.838794","-0.07417","-0.10647","0.044263","0.028711","-0.046655","0.061011","-0.089722"
"T","1617451912.9007957","7","37","10","62","62","33","0.703308","0.200134","-0.682129","-0.002319","0","0","-0.015267","9.314306","2.801709","-0.081348","-0.078955","0.010767","0.022729","-0.029907","0.025122","-0.071777"
"T","1617451912.8908024","7","36","9","62","58","37","0.703186","0.200012","-0.682251","-0.002258","0.007634","0","-0.015267","9.339429","2.747876","-0.099292","-0.053833","-0.038281","0.008374","-0.001196","-0.021533","-0.062207"
"T","1617451912.8809333","7","38","9","63","59","36","0.703186","0.199768","-0.682373","-0.002319","0.007634","0.007634","-0.007634","9.353785","2.722754","-0.100488","-0.04187","-0.061011","0.007178","0.005981","-0.045459","-0.057422"
"T","1617451912.8709548","7","36","9","61","59","35","0.703125","0.199646","-0.682434","-0.002441","0.007634","0.007634","-0.007634","9.371729","2.729932","-0.08374","-0.022729","-0.053833","0.025122","-0.010767","-0.049048","-0.037085"
"T","1617451912.8609736","7","37","9","60","59","33","0.703064","0.199524","-0.682556","-0.002502","0","0","-0.007634","9.366943","2.755054","-0.070581","-0.028711","-0.027515","0.040674","-0.033496","-0.027515","-0.034692"
"T","1617451912.8508356","7","37","9","60","59","33","0.703064","0.199463","-0.682556","-0.002502","-0.007634","-0.007634","-0.007634","9.33584","2.771802","-0.059814","-0.059814","-0.00957","0.05144","-0.050244","-0.005981","-0.059814"
"T","1617451912.841073","7","36","9","61","59","17","0.703064","0.199463","-0.682556","-0.002502","-0.007634","-0.007634","-0.007634","9.309522","2.775391","-0.066992","-0.086133","-0.005981","0.044263","-0.046655","0.005981","-0.08374"
"T","1617451912.831144","7","36","10","62","60","32","0.703125","0.199463","-0.682495","-0.00238","-0.007634","-0.007634","-0.007634","9.305933","2.771802","-0.08374","-0.089722","-0.008374","0.025122","-0.027515","0.00957","-0.088525"
"T","1617451912.8208616","7","37","9","61","30","-6","0.703125","0.199402","-0.682495","-0.002319","0","-0.007634","-0.015267","9.309522","2.755054","-0.098096","-0.086133","-0.023926","0.010767","-0.00957","-0.001196","-0.088525"
"T","1617451912.8110423","7","37","11","61","60","35","0.703125","0.199219","-0.682556","-0.002197","0","0","-0.015267","9.339429","2.734717","-0.108862","-0.057422","-0.039478","0","0.005981","-0.020337","-0.065796"
"T","1617451912.8009045","7","35","9","62","59","36","0.703064","0.199036","-0.682739","-0.002136","0.007634","0.007634","-0.015267","9.37771","2.70481","-0.108862","-0.021533","-0.065796","0.002393","0.013159","-0.055029","-0.038281"
"T","1617451912.7908878","7","36","8","61","58","35","0.703003","0.198792","-0.682861","-0.002197","0","0","-0.015267","9.370532","2.688061","-0.114844","-0.029907","-0.080151","0","0.019141","-0.0646","-0.050244"
"T","1617451912.781","7","33","7","60","57","36","0.703003","0.19873","-0.682861","-0.002258","-0.007634","-0.007634","-0.007634","9.334643","2.71438","-0.108862","-0.0646","-0.053833","0.003589","0.005981","-0.0323","-0.076563"
"T","1617451912.7710805","7","38","9","61","60","36","0.703003","0.198853","-0.6828","-0.002197","-0.022901","-0.007634","0","9.308325","2.777783","-0.088525","-0.090918","0.008374","0.023926","-0.031104","0.025122","-0.084937"
"T","1617451912.7610683","7","36","7","61","57","32","0.703003","0.199097","-0.682739","-0.001953","-0.022901","-0.007634","-0.007634","9.297559","2.819653","-0.075366","-0.101685","0.049048","0.037085","-0.055029","0.062207","-0.08374"
"T","1617451912.7510211","7","37","9","61","58","38","0.703003","0.199219","-0.682739","-0.001709","-0.007634","-0.007634","-0.007634","9.29038","2.80769","-0.069385","-0.110059","0.039478","0.044263","-0.059814","0.053833","-0.094507"
"T","1617451912.7408926","7","37","9","63","62","35","0.703003","0.199158","-0.682739","-0.001587","0","-0.007634","-0.007634","9.292773","2.752661","-0.07417","-0.107666","-0.011963","0.038281","-0.040674","0.007178","-0.10647"
"T","1617451912.730923","7","36","8","63","57","33","0.703003","0.199036","-0.6828","-0.001526","0","0","-0.007634","9.309522","2.709595","-0.076563","-0.092114","-0.052637","0.037085","-0.027515","-0.033496","-0.102881"
"T","1617451912.721011","7","33","9","61","62","7","0.703003","0.198853","-0.6828","-0.001526","0.007634","0","-0.007634","9.32268","2.688061","-0.077759","-0.078955","-0.071777","0.034692","-0.019141","-0.053833","-0.095703"
"T","1617451912.7108774","7","36","8","61","58","36","0.703003","0.19873","-0.682861","-0.001587","0.007634","0","-0.007634","9.332251","2.668921","-0.07417","-0.070581","-0.089722","0.038281","-0.016748","-0.072974","-0.093311"
"T","1617451912.701071","7","35","9","61","59","37","0.702942","0.198608","-0.682922","-0.001648","0","0","-0.007634","9.332251","2.647388","-0.078955","-0.069385","-0.110059","0.034692","-0.008374","-0.090918","-0.096899"
"T","1617451912.6910868","7","35","10","62","59","37","0.702942","0.198486","-0.682983","-0.001648","-0.007634","-0.007634","-0.007634","9.329859","2.64978","-0.087329","-0.072974","-0.10647","0.027515","-0.002393","-0.084937","-0.099292"
"T","1617451912.681181","7","36","11","61","58","34","0.702942","0.198547","-0.682922","-0.001587","-0.015267","-0.007634","-0.007634","9.317896","2.677295","-0.090918","-0.084937","-0.078955","0.022729","-0.005981","-0.055029","-0.102881"
"T","1617451912.670981","7","35","7","58","60","35","0.703003","0.198608","-0.682922","-0.001465","-0.015267","-0.007634","-0.007634","9.308325","2.700024","-0.088525","-0.095703","-0.055029","0.025122","-0.015552","-0.031104","-0.10647"
"T","1617451912.6610928","7","36","10","60","62","39","0.703003","0.198669","-0.682861","-0.001343","-0.007634","-0.007634","-0.007634","9.316699","2.70481","-0.093311","-0.086133","-0.050244","0.019141","-0.00957","-0.027515","-0.096899"
"T","1617451912.650922","7","37","7","62","60","33","0.703003","0.198608","-0.682922","-0.001221","0","0","-0.015267","9.328662","2.677295","-0.102881","-0.075366","-0.075366","0.010767","0.004785","-0.05144","-0.093311"
"T","1617451912.6409369","7","33","10","63","58","33","0.702942","0.198364","-0.682983","-0.001221","0.007634","0","-0.015267","9.356176","2.633032","-0.118433","-0.047852","-0.11604","-0.003589","0.031104","-0.092114","-0.077759"
"T","1617451912.6310444","7","36","9","63","60","33","0.702942","0.198181","-0.683105","-0.001282","0.007634","0","-0.015267","9.365747","2.628247","-0.119629","-0.040674","-0.118433","-0.003589","0.0323","-0.096899","-0.071777"
"T","1617451912.6209536","7","36","10","60","60","37","0.702942","0.197998","-0.683167","-0.001343","0","0","-0.007634","9.363355","2.650977","-0.113647","-0.043066","-0.094507","0.001196","0.020337","-0.075366","-0.066992"
"T","1617451912.6108737","7","36","10","62","57","35","0.702942","0.197937","-0.683167","-0.001404","0","0","-0.007634","9.368139","2.665332","-0.111255","-0.038281","-0.080151","0.003589","0.014355","-0.063403","-0.058618"
"T","1617451911.87195","7","37","10","62","60","33","0.703491","0.19635","-0.683044","-0.001831","0.007634","0.007634","-0.015267","9.375318","2.592358","-0.122021","-0.034692","-0.13877","-0.021533","0.055029","-0.112451","-0.071777"
"T","1617451911.861904","7","38","9","61","59","35","0.70343","0.196228","-0.683167","-0.001953","0","0","-0.007634","9.37771","2.604321","-0.114844","-0.033496","-0.126807","-0.011963","0.04187","-0.104077","-0.066992"
"T","1617451911.851933","7","36","8","61","62","37","0.703369","0.196289","-0.683167","-0.002075","-0.015267","-0.007634","0","9.353785","2.658154","-0.104077","-0.056226","-0.075366","0","0.015552","-0.053833","-0.07417"
"T","1617451911.8420365","7","37","9","61","59","37","0.70343","0.196533","-0.683044","-0.002014","-0.022901","-0.015267","0.007634","9.305933","2.711987","-0.087329","-0.102881","-0.023926","0.013159","-0.013159","0.001196","-0.105273"
"T","1617451911.8318937","7","37","9","62","60","35","0.703491","0.196838","-0.682861","-0.001892","-0.015267","-0.015267","0.007634","9.260473","2.739502","-0.076563","-0.147144","0","0.022729","-0.031104","0.033496","-0.141162"
"T","1617451911.8219914","7","34","9","61","62","32","0.703552","0.197083","-0.682739","-0.001831","-0.007634","-0.015267","0","9.241333","2.734717","-0.072974","-0.166284","-0.007178","0.023926","-0.0323","0.031104","-0.161499"
"T","1617451911.8120704","7","35","8","61","60","34","0.703613","0.197144","-0.682678","-0.00177","0","-0.007634","0","9.254492","2.708398","-0.07417","-0.153125","-0.033496","0.021533","-0.021533","0.003589","-0.155518"
"T","1617451911.8019116","7","35","10","63","59","37","0.703674","0.197083","-0.682617","-0.00177","0.007634","0","-0.007634","9.286792","2.671314","-0.08374","-0.120825","-0.069385","0.010767","0","-0.033496","-0.135181"
"T","1617451911.7918825","7","37","9","61","59","36","0.703674","0.19696","-0.682678","-0.001831","0.007634","0","-0.007634","9.337036","2.660547","-0.082544","-0.070581","-0.080151","0.011963","0.004785","-0.057422","-0.089722"
"T","1617451911.7822075","7","37","10","63","58","33","0.703613","0.196899","-0.682739","-0.001953","0","0","0","9.368139","2.671314","-0.071777","-0.039478","-0.069385","0.023926","-0.007178","-0.059814","-0.057422"
"T","1617451911.7719328","7","36","8","60","59","33","0.703613","0.196899","-0.682739","-0.002075","-0.007634","-0.007634","0","9.374121","2.692847","-0.065796","-0.0323","-0.050244","0.029907","-0.016748","-0.045459","-0.044263"
"T","1617451911.7621195","7","37","10","63","62","36","0.703674","0.197021","-0.682617","-0.002136","-0.015267","-0.015267","0.007634","9.368139","2.726343","-0.059814","-0.037085","-0.019141","0.033496","-0.028711","-0.016748","-0.040674"
"T","1617451911.7518888","7","34","9","62","58","37","0.703796","0.197266","-0.682495","-0.002136","-0.015267","-0.015267","0.007634","9.351392","2.755054","-0.05144","-0.053833","0.004785","0.039478","-0.04187","0.007178","-0.050244"
"T","1617451911.7423234","7","36","10","62","61","33","0.703857","0.197449","-0.682312","-0.002075","-0.015267","-0.015267","0","9.351392","2.759839","-0.045459","-0.052637","0.007178","0.043066","-0.046655","0.008374","-0.047852"
"T","1617451911.732046","7","35","10","62","59","33","0.703918","0.197571","-0.682251","-0.002014","-0.007634","-0.007634","0","9.378906","2.733521","-0.039478","-0.025122","-0.019141","0.047852","-0.04187","-0.023926","-0.029907"
"T","1617451911.7221365","7","35","9","63","64","35","0.703979","0.197571","-0.68219","-0.001953","0","-0.007634","-0.007634","9.393262","2.706006","-0.031104","-0.011963","-0.045459","0.055029","-0.040674","-0.052637","-0.023926"
"T","1617451911.7121713","7","33","9","63","59","33","0.704041","0.197449","-0.682129","-0.001953","0.007634","-0.007634","-0.007634","9.401636","2.67251","-0.040674","-0.003589","-0.077759","0.043066","-0.020337","-0.082544","-0.025122"
"T","1617451911.7020433","7","35","9","62","58","39","0.704102","0.197388","-0.682068","-0.002014","0","-0.007634","0","9.407618","2.654565","-0.047852","0.002393","-0.095703","0.033496","-0.005981","-0.098096","-0.023926"
"T","1617451911.6919394","7","36","10","63","59","33","0.704224","0.197388","-0.681946","-0.002136","-0.007634","-0.015267","0","9.415991","2.674902","-0.033496","0.010767","-0.077759","0.045459","-0.021533","-0.086133","-0.010767"
"T","1617451911.682341","7","37","10","61","58","37","0.704285","0.197632","-0.681824","-0.002197","-0.015267","-0.015267","0.007634","9.405225","2.741894","-0.007178","0.001196","-0.015552","0.069385","-0.062207","-0.033496","-0.003589"
"T","1617451911.6720338","7","37","10","62","60","36","0.704346","0.197876","-0.681702","-0.002075","-0.022901","-0.015267","0","9.380102","2.805298","0.016748","-0.022729","0.045459","0.092114","-0.101685","0.021533","-0.00957"
"T","1617451911.6620188","7","36","9","62","62","35","0.704407","0.198059","-0.68158","-0.001892","-0.007634","-0.015267","0","9.371729","2.795727","0.027515","-0.029907","0.035889","0.101685","-0.108862","0.011963","-0.019141"
"T","1617451911.652254","7","37","8","62","57","33","0.704468","0.198059","-0.681519","-0.001892","0.007634","-0.007634","0","9.371729","2.732324","0.017944","-0.029907","-0.027515","0.089722","-0.080151","-0.04187","-0.037085"
"T","1617451911.6419573","7","36","9","60","64","35","0.704529","0.197998","-0.681458","-0.001953","0.007634","-0.007634","-0.007634","9.374121","2.692847","0.016748","-0.027515","-0.066992","0.087329","-0.066992","-0.077759","-0.045459"
"T","1617451911.632163","7","36","8","63","59","37","0.70459","0.197937","-0.681458","-0.002075","0","-0.007634","0","9.376513","2.716773","0.026318","-0.026318","-0.044263","0.095703","-0.081348","-0.059814","-0.038281"
"T","1617451911.622101","7","36","9","61","60","36","0.70459","0.197937","-0.681458","-0.002136","-0.007634","-0.007634","0","9.363355","2.753857","0.047852","-0.038281","-0.007178","0.117236","-0.112451","-0.027515","-0.039478"
"T","1617451911.6120934","7","36","9","61","62","38","0.70459","0.197998","-0.681458","-0.002136","-0.007634","-0.007634","0","9.339429","2.761035","0.052637","-0.062207","-0.001196","0.122021","-0.120825","-0.016748","-0.059814"
"T","1617451911.6021595","7","38","9","63","60","39","0.70459","0.198059","-0.681396","-0.002136","-0.007634","-0.007634","0","9.310718","2.75625","0.038281","-0.090918","-0.007178","0.10647","-0.10647","-0.010767","-0.089722"
"T","1617451911.5920465","7","36","10","63","59","35","0.704529","0.198181","-0.681396","-0.002075","-0.015267","-0.007634","0","9.315503","2.762231","0.0323","-0.084937","-0.001196","0.102881","-0.104077","-0.005981","-0.082544"
"T","1617451911.5828063","7","26","9","62","58","36","0.704529","0.198303","-0.681458","-0.001953","-0.007634","0","-0.007634","9.320288","2.751465","0.011963","-0.081348","-0.011963","0.08374","-0.082544","-0.011963","-0.081348"
"T","1617451911.571985","7","36","10","60","60","36","0.704407","0.198242","-0.681519","-0.00177","0","0.007634","-0.015267","9.340625","2.709595","-0.004785","-0.061011","-0.050244","0.069385","-0.057422","-0.047852","-0.072974"
"T","1617451911.5619433","7","37","9","62","58","35","0.704224","0.198059","-0.681763","-0.00177","0","0.007634","-0.015267","9.376513","2.658154","-0.019141","-0.026318","-0.098096","0.059814","-0.0323","-0.099292","-0.052637"
"T","1617451911.552219","7","38","9","62","57","37","0.704102","0.197937","-0.681946","-0.00177","0","0.007634","-0.007634","9.384888","2.624658","-0.040674","-0.019141","-0.130396","0.04187","-0.005981","-0.12561","-0.055029"
"T","1617451911.5428376","7","37","10","62","59","35","0.704041","0.197815","-0.682068","-0.001831","0","0","-0.007634","9.347803","2.613892","-0.069385","-0.056226","-0.139966","0.015552","0.017944","-0.117236","-0.093311"
"T","1617451911.5320342","7","35","10","59","60","33","0.704041","0.197815","-0.682068","-0.001953","-0.007634","-0.007634","0","9.319092","2.628247","-0.100488","-0.084937","-0.126807","-0.014355","0.040674","-0.089722","-0.11604"
"T","1617451911.5221405","7","37","9","63","61","-6","0.704041","0.197998","-0.682007","-0.001953","-0.015267","-0.007634","0","9.309522","2.677295","-0.118433","-0.093311","-0.080151","-0.033496","0.046655","-0.038281","-0.111255"
"T","1617451911.5118816","7","37","9","62","60","34","0.703979","0.19812","-0.682007","-0.001953","-0.007634","-0.007634","0","9.308325","2.727539","-0.119629","-0.093311","-0.031104","-0.0323","0.0323","0.004785","-0.096899"
"T","1617451911.5021322","7","38","10","61","58","31","0.703979","0.198242","-0.681946","-0.001953","0","0","0","9.316699","2.734717","-0.13877","-0.084937","-0.026318","-0.052637","0.05144","0.013159","-0.087329"
"T","1617451911.4921546","7","36","11","63","58","35","0.704041","0.198242","-0.681946","-0.001953","0.007634","0","-0.007634","9.346606","2.726343","-0.131592","-0.055029","-0.034692","-0.045459","0.049048","-0.003589","-0.061011"
"T","1617451911.4828415","7","38","8","62","59","36","0.704041","0.19812","-0.681946","-0.002075","0.007634","0","-0.007634","9.368139","2.727539","-0.118433","-0.033496","-0.033496","-0.033496","0.038281","-0.011963","-0.040674"
"T","1617451911.4720502","7","37","10","63","62","39","0.704041","0.197937","-0.682007","-0.002258","0.007634","0","0","9.378906","2.734717","-0.094507","-0.022729","-0.026318","-0.00957","0.014355","-0.014355","-0.028711"
"T","1617451911.46217","7","38","10","61","62","36","0.704102","0.197876","-0.681946","-0.00238","0","-0.007634","0","9.381299","2.774194","-0.061011","-0.020337","0.010767","0.021533","-0.023926","0.008374","-0.015552"
"T","1617451911.4527469","7","35","9","63","62","36","0.704163","0.197937","-0.681885","-0.002441","-0.007634","-0.015267","0","9.356176","2.814868","-0.0323","-0.044263","0.050244","0.047852","-0.062207","0.044263","-0.027515"
"T","1617451911.4421554","7","36","9","63","60","33","0.704285","0.197998","-0.681763","-0.002441","-0.007634","-0.015267","0","9.327466","2.834009","-0.014355","-0.072974","0.068188","0.063403","-0.08374","0.0646","-0.050244"
"T","1617451911.432658","7","35","10","61","57","36","0.704346","0.19812","-0.681641","-0.00238","-0.007634","-0.015267","0","9.316699","2.848364","0","-0.08374","0.081348","0.075366","-0.099292","0.076563","-0.057422"
"T","1617451911.4218016","7","37","8","62","58","33","0.704407","0.198242","-0.681519","-0.002258","-0.015267","-0.015267","0","9.304736","2.83999","-0.005981","-0.095703","0.071777","0.068188","-0.090918","0.072974","-0.071777"
"T","1617451911.4131987","7","36","8","58","60","33","0.704468","0.198364","-0.681396","-0.002197","-0.015267","-0.007634","0","9.311914","2.826831","-0.014355","-0.087329","0.057422","0.057422","-0.076563","0.059814","-0.066992"
"T","1617451911.4028363","7","38","11","62","58","38","0.704468","0.198425","-0.681458","-0.002075","-0.007634","0","-0.007634","9.343018","2.811279","-0.034692","-0.057422","0.043066","0.038281","-0.05144","0.044263","-0.043066"
"T","1617451911.3990004","7","37","9","63","60","36","0.704346","0.198425","-0.681519","-0.001953","0","0.007634","-0.007634","9.37771","2.774194","-0.056226","-0.022729","0.008374","0.019141","-0.021533","0.008374","-0.019141"
"T","1617451911.3977785","7","36","9","63","62","39","0.704224","0.198242","-0.681702","-0.001953","0","0.007634","-0.015267","9.396851","2.722754","-0.078955","-0.004785","-0.039478","0","0.00957","-0.034692","-0.015552"
"T","1617451911.3728216","7","37","10","61","58","33","0.704041","0.19812","-0.681946","-0.001953","0","0.007634","-0.007634","9.400439","2.698828","-0.088525","-0.001196","-0.061011","-0.003589","0.019141","-0.053833","-0.017944"
"T","1617451911.3628106","7","34","8","60","60","33","0.703918","0.19812","-0.682068","-0.001953","-0.007634","0.007634","-0.007634","9.37771","2.706006","-0.094507","-0.023926","-0.052637","-0.005981","0.017944","-0.039478","-0.037085"
"T","1617451911.352919","7","36","8","62","60","35","0.703796","0.198181","-0.682129","-0.001831","-0.015267","0","-0.007634","9.339429","2.722754","-0.101685","-0.062207","-0.034692","-0.010767","0.014355","-0.011963","-0.068188"
"T","1617451911.342742","7","37","10","62","64","35","0.703735","0.198364","-0.68219","-0.001648","-0.022901","0","-0.007634","9.326269","2.727539","-0.110059","-0.076563","-0.029907","-0.016748","0.017944","-0.001196","-0.081348"
"T","1617451911.332976","7","35","9","60","58","35","0.703674","0.198486","-0.682251","-0.001465","-0.015267","0","-0.007634","9.327466","2.713184","-0.114844","-0.075366","-0.043066","-0.019141","0.023926","-0.013159","-0.08374"
"T","1617451911.322732","7","37","8","60","30","35","0.703613","0.198547","-0.682312","-0.001282","-0.015267","0","-0.007634","9.328662","2.684473","-0.105273","-0.075366","-0.070581","-0.007178","0.020337","-0.04187","-0.090918"
"T","1617451911.3127277","7","36","9","63","59","37","0.703552","0.198547","-0.682312","-0.00116","-0.007634","0","-0.007634","9.323877","2.658154","-0.105273","-0.080151","-0.094507","-0.007178","0.026318","-0.062207","-0.102881"
"T","1617451911.3029835","7","37","9","62","58","36","0.703552","0.198608","-0.682373","-0.001099","-0.007634","-0.007634","-0.007634","9.319092","2.66294","-0.084937","-0.086133","-0.089722","0.013159","0.004785","-0.062207","-0.107666"
"T","1617451911.2928965","7","36","10","63","59","33","0.703552","0.198669","-0.682312","-0.001038","-0.007634","-0.007634","0","9.305933","2.674902","-0.062207","-0.098096","-0.077759","0.035889","-0.019141","-0.053833","-0.11604"
"T","1617451911.2828424","7","35","10","62","60","36","0.703613","0.198669","-0.682251","-0.000977","0","-0.007634","0","9.299952","2.671314","-0.035889","-0.104077","-0.081348","0.059814","-0.04187","-0.062207","-0.123218"
"T","1617451911.2728","7","36","9","62","63","37","0.703674","0.198669","-0.68219","-0.001038","0","-0.007634","-0.007634","9.319092","2.655762","-0.016748","-0.084937","-0.098096","0.077759","-0.053833","-0.088525","-0.108862"
"T","1617451911.2630837","7","35","11","63","61","37","0.703674","0.198608","-0.68219","-0.001038","0","-0.007634","-0.007634","9.346606","2.648584","-0.007178","-0.057422","-0.104077","0.087329","-0.058618","-0.104077","-0.084937"
"T","1617451911.2529185","7","37","10","61","58","37","0.703735","0.198608","-0.682129","-0.001038","-0.007634","-0.007634","-0.007634","9.366943","2.654565","0.003589","-0.037085","-0.098096","0.095703","-0.066992","-0.10647","-0.063403"
"T","1617451911.24308","7","38","11","62","59","35","0.703735","0.198669","-0.682129","-0.000977","-0.007634","-0.007634","-0.007634","9.360962","2.664136","0.019141","-0.043066","-0.088525","0.112451","-0.086133","-0.100488","-0.066992"
"T","1617451911.2328522","7","38","10","63","60","35","0.703735","0.198669","-0.682068","-0.000854","-0.007634","-0.015267","-0.007634","9.339429","2.668921","0.020337","-0.0646","-0.082544","0.112451","-0.089722","-0.089722","-0.086133"
"T","1617451911.2228508","7","36","9","63","58","36","0.703796","0.19873","-0.682068","-0.000732","-0.007634","-0.015267","-0.015267","9.31311","2.665332","0.007178","-0.092114","-0.084937","0.098096","-0.076563","-0.080151","-0.112451"
"T","1617451911.2130709","7","37","10","62","60","35","0.703857","0.198669","-0.682007","-0.000549","0","-0.007634","-0.015267","9.298755","2.646191","-0.00957","-0.107666","-0.101685","0.080151","-0.056226","-0.086133","-0.131592"
"T","1617451911.2029812","7","37","9","62","57","31","0.703857","0.198608","-0.682007","-0.000488","0","-0.007634","-0.007634","9.32268","2.636621","-0.022729","-0.08374","-0.108862","0.066992","-0.040674","-0.095703","-0.111255"
"T","1617451911.192933","7","36","9","61","58","35","0.703857","0.198669","-0.682007","-0.000549","-0.007634","0","0","9.346606","2.665332","-0.022729","-0.059814","-0.082544","0.066992","-0.045459","-0.077759","-0.080151"
"T","1617451911.1830268","7","37","10","62","59","37","0.703857","0.19873","-0.682007","-0.00061","0","0","0","9.369336","2.697632","-0.023926","-0.035889","-0.05144","0.065796","-0.05144","-0.055029","-0.049048"
"T","1617451911.1728854","7","35","11","63","58","36","0.703796","0.198792","-0.682007","-0.000671","0","0","0","9.374121","2.707202","-0.023926","-0.031104","-0.043066","0.066992","-0.053833","-0.049048","-0.04187"
"T","1617451911.1630151","7","33","9","61","59","36","0.703796","0.19873","-0.682007","-0.000793","0.007634","0","0","9.378906","2.715576","-0.020337","-0.025122","-0.035889","0.070581","-0.059814","-0.045459","-0.034692"
"T","1617451911.153","7","37","10","61","60","36","0.703796","0.19873","-0.682007","-0.000916","0.007634","0","0","9.384888","2.726343","-0.011963","-0.019141","-0.026318","0.078955","-0.069385","-0.040674","-0.026318"
"T","1617451911.142933","7","35","9","62","59","37","0.703796","0.198608","-0.682068","-0.001038","0.007634","-0.007634","-0.007634","9.380102","2.729932","-0.017944","-0.023926","-0.022729","0.072974","-0.0646","-0.034692","-0.029907"
"T","1617451911.1330814","7","35","10","62","60","33","0.703796","0.198425","-0.682068","-0.00116","0.007634","-0.007634","-0.007634","9.362158","2.725147","-0.0323","-0.04187","-0.027515","0.057422","-0.050244","-0.028711","-0.047852"
"T","1617451911.1229522","7","36","10","62","63","37","0.703857","0.198303","-0.682129","-0.001282","0.007634","0","-0.007634","9.358569","2.727539","-0.046655","-0.046655","-0.025122","0.043066","-0.037085","-0.021533","-0.05144"
"T","1617451911.112883","7","37","-7","60","58","32","0.703857","0.198181","-0.682129","-0.001343","0","-0.007634","-0.007634","9.360962","2.749072","-0.055029","-0.043066","-0.002393","0.034692","-0.034692","0","-0.04187"
"T","1617451911.1030114","7","38","9","63","59","33","0.703857","0.198181","-0.682129","-0.001404","-0.007634","-0.007634","0","9.348999","2.775391","-0.055029","-0.055029","0.021533","0.034692","-0.04187","0.025122","-0.046655"
"T","1617451911.092956","7","33","9","63","59","37","0.703918","0.198242","-0.682068","-0.001404","-0.007634","-0.007634","0","9.339429","2.806494","-0.061011","-0.0646","0.05144","0.026318","-0.043066","0.057422","-0.046655"
"T","1617451911.082859","7","36","9","59","62","36","0.703918","0.198242","-0.682007","-0.001282","0","-0.007634","-0.007634","9.337036","2.808887","-0.061011","-0.066992","0.056226","0.026318","-0.044263","0.062207","-0.047852"
"T","1617451911.0727994","7","36","9","60","60","36","0.703918","0.19812","-0.682068","-0.001221","0.007634","0","-0.015267","9.353785","2.744287","-0.070581","-0.05144","-0.004785","0.016748","-0.017944","0.004785","-0.050244"
"T","1617451911.063003","7","37","10","62","60","37","0.703918","0.197815","-0.68219","-0.001282","0.015267","0.007634","-0.015267","9.372925","2.671314","-0.098096","-0.033496","-0.07417","-0.00957","0.026318","-0.056226","-0.052637"
"T","1617451911.0529184","7","37","9","60","32","33","0.703918","0.197449","-0.682312","-0.001465","0.015267","0.007634","-0.015267","9.383692","2.64978","-0.110059","-0.023926","-0.093311","-0.021533","0.043066","-0.072974","-0.047852"
"T","1617451911.0428638","7","37","7","61","62","32","0.703857","0.197266","-0.682373","-0.001587","0","0","-0.007634","9.370532","2.676099","-0.098096","-0.035889","-0.065796","-0.008374","0.022729","-0.047852","-0.052637"
"T","1617451911.033198","7","36","9","62","58","32","0.703857","0.197205","-0.682373","-0.001648","-0.007634","-0.007634","-0.007634","9.338232","2.71438","-0.096899","-0.068188","-0.027515","-0.007178","0.008374","-0.004785","-0.072974"
"T","1617451911.0230825","7","37","10","62","64","39","0.703857","0.197266","-0.682373","-0.001526","-0.015267","-0.007634","-0.007634","9.314306","2.750268","-0.08374","-0.093311","0.008374","0.004785","-0.013159","0.031104","-0.086133"
"T","1617451911.013028","7","35","11","62","59","37","0.703918","0.197388","-0.682312","-0.001404","-0.015267","-0.007634","-0.007634","9.287989","2.750268","-0.08374","-0.119629","0.007178","0.003589","-0.013159","0.037085","-0.112451"
"T","1617451911.003","7","36","10","59","63","36","0.703918","0.197449","-0.682312","-0.001221","-0.007634","-0.007634","-0.007634","9.282007","2.729932","-0.090918","-0.126807","-0.00957","-0.002393","-0.003589","0.025122","-0.123218"
"T","1617451910.9929256","7","37","10","62","64","35","0.703918","0.197388","-0.682312","-0.001099","-0.007634","0","-0.007634","9.302343","2.695239","-0.105273","-0.10647","-0.04187","-0.016748","0.019141","-0.004785","-0.113647"
"T","1617451910.9829829","7","35","9","62","60","33","0.703796","0.197327","-0.682434","-0.001038","0","0.007634","-0.007634","9.344213","2.654565","-0.113647","-0.0646","-0.080151","-0.021533","0.037085","-0.050244","-0.08374"
"T","1617451910.97316","7","37","9","62","60","36","0.703735","0.197205","-0.682556","-0.001099","0","0.007634","-0.007634","9.364551","2.623462","-0.128003","-0.045459","-0.111255","-0.033496","0.058618","-0.080151","-0.07417"
"T","1617451910.9628932","7","37","8","62","59","33","0.703674","0.197083","-0.682617","-0.00116","0","0","-0.007634","9.368139","2.606714","-0.128003","-0.04187","-0.126807","-0.0323","0.061011","-0.095703","-0.07417"
"T","1617451910.9529476","7","36","9","61","60","36","0.703674","0.197083","-0.682678","-0.001282","-0.007634","0","0","9.384888","2.624658","-0.117236","-0.025122","-0.110059","-0.021533","0.047852","-0.088525","-0.053833"
"T","1617451910.942943","7","37","9","90","60","37","0.703613","0.197205","-0.682617","-0.001282","-0.007634","-0.007634","0","9.388476","2.650977","-0.099292","-0.020337","-0.084937","-0.002393","0.022729","-0.071777","-0.043066"
"T","1617451910.933036","7","36","8","63","62","33","0.703674","0.197327","-0.682556","-0.001282","-0.007634","-0.015267","0","9.360962","2.668921","-0.086133","-0.047852","-0.069385","0.008374","0.007178","-0.052637","-0.0646"
"T","1617451910.923067","7","38","9","60","60","36","0.703857","0.197449","-0.682312","-0.001282","-0.007634","-0.022901","0","9.329859","2.689258","-0.059814","-0.077759","-0.05144","0.028711","-0.019141","-0.033496","-0.088525"
"T","1617451910.913035","7","35","10","62","62","35","0.704041","0.19751","-0.682068","-0.001221","-0.007634","-0.022901","0","9.314306","2.70481","-0.025122","-0.092114","-0.035889","0.058618","-0.052637","-0.023926","-0.098096"
"T","1617451910.9031646","7","34","11","63","60","33","0.704224","0.197571","-0.681885","-0.001099","-0.007634","-0.015267","-0.007634","9.329859","2.72395","0.014355","-0.077759","-0.016748","0.093311","-0.089722","-0.019141","-0.078955"
"T","1617451910.8929574","7","37","10","63","57","36","0.704407","0.197571","-0.681763","-0.001038","0","-0.015267","-0.007634","9.337036","2.726343","0.038281","-0.070581","-0.014355","0.112451","-0.108862","-0.025122","-0.071777"
"T","1617451910.882978","7","36","9","62","64","37","0.704529","0.197388","-0.681702","-0.001099","0.007634","-0.015267","-0.007634","9.339429","2.703613","0.062207","-0.069385","-0.035889","0.132788","-0.122021","-0.050244","-0.076563"
"T","1617451910.8730288","7","36","10","63","61","37","0.70459","0.197266","-0.681641","-0.001221","0.007634","-0.007634","0","9.341822","2.696435","0.066992","-0.065796","-0.043066","0.136377","-0.123218","-0.058618","-0.075366"
"T","1617451910.863123","7","36","10","62","59","36","0.704651","0.197144","-0.68158","-0.001343","0.007634","-0.007634","0","9.317896","2.70481","0.059814","-0.089722","-0.035889","0.126807","-0.118433","-0.043066","-0.096899"
"T","1617451910.8529537","7","37","10","63","64","36","0.704712","0.197083","-0.681519","-0.001526","0.007634","-0.007634","0.007634","9.310718","2.719165","0.044263","-0.095703","-0.022729","0.108862","-0.105273","-0.023926","-0.098096"
"T","1617451910.8431263","7","38","10","62","62","37","0.704773","0.197144","-0.681519","-0.001709","0","-0.007634","0.007634","9.302343","2.749072","0.013159","-0.104077","0.002393","0.077759","-0.082544","0.008374","-0.099292"
"T","1617451910.832993","7","36","10","63","64","37","0.704773","0.197327","-0.681458","-0.001831","-0.007634","-0.007634","0.007634","9.287989","2.786157","-0.010767","-0.117236","0.035889","0.053833","-0.069385","0.049048","-0.101685"
"T","1617451910.822959","7","38","9","63","61","36","0.704773","0.19751","-0.681396","-0.00177","-0.015267","-0.007634","0","9.28081","2.80769","-0.031104","-0.124414","0.055029","0.033496","-0.055029","0.07417","-0.104077"
"T","1617451910.8130476","7","38","11","61","60","35","0.704712","0.197632","-0.681396","-0.001709","-0.015267","0","0","9.297559","2.793335","-0.055029","-0.10647","0.040674","0.010767","-0.028711","0.063403","-0.089722"
"T","1617451910.8032076","7","38","10","60","60","35","0.704651","0.197571","-0.681519","-0.001526","0","0.007634","-0.015267","9.340625","2.745483","-0.059814","-0.065796","-0.002393","0.008374","-0.011963","0.013159","-0.063403"
"T","1617451910.7928798","7","35","9","61","59","32","0.704529","0.197388","-0.681702","-0.001465","0.007634","0.007634","-0.015267","9.371729","2.678491","-0.0646","-0.035889","-0.065796","0.005981","0.008374","-0.05144","-0.052637"
"T","1617451910.7832158","7","38","9","61","57","35","0.704407","0.197144","-0.681824","-0.001404","0.007634","0","-0.015267","9.378906","2.623462","-0.065796","-0.028711","-0.11604","0.007178","0.021533","-0.100488","-0.059814"
"T","1617451910.773711","7","37","9","62","58","37","0.704407","0.196899","-0.681946","-0.001404","0.007634","-0.007634","-0.015267","9.365747","2.588769","-0.0646","-0.043066","-0.14834","0.00957","0.026318","-0.126807","-0.082544"
"T","1617451910.763093","7","36","10","62","60","33","0.704407","0.196777","-0.681946","-0.001404","-0.007634","-0.007634","-0.007634","9.347803","2.587573","-0.057422","-0.061011","-0.147144","0.016748","0.017944","-0.123218","-0.099292"
"T","1617451910.753834","7","37","10","63","57","32","0.704529","0.196838","-0.681824","-0.001404","-0.015267","-0.015267","-0.007634","9.337036","2.624658","-0.047852","-0.071777","-0.111255","0.022729","0.002393","-0.088525","-0.099292"
"T","1617451910.7439396","7","37","10","45","62","37","0.70459","0.19696","-0.681702","-0.001282","-0.015267","-0.015267","0","9.329859","2.665332","-0.052637","-0.078955","-0.071777","0.015552","-0.001196","-0.049048","-0.095703"
"T","1617451910.7338967","7","37","9","62","58","34","0.704712","0.197021","-0.68158","-0.001221","-0.007634","-0.015267","-0.007634","9.346606","2.685669","-0.046655","-0.062207","-0.05144","0.019141","-0.008374","-0.035889","-0.07417"
"T","1617451910.723809","7","28","10","63","60","36","0.704773","0.197021","-0.681519","-0.00116","0.007634","-0.007634","-0.007634","9.364551","2.673706","-0.050244","-0.044263","-0.062207","0.013159","0","-0.049048","-0.059814"
"T","1617451910.7138662","7","38","9","62","59","36","0.704834","0.196899","-0.681458","-0.001282","0.015267","0","-0.007634","9.407618","2.66294","-0.029907","-0.001196","-0.07417","0.0323","-0.010767","-0.076563","-0.021533"
"T","1617451910.7029843","7","36","10","63","60","33","0.704834","0.196655","-0.681519","-0.001404","0.015267","0","-0.007634","9.429151","2.664136","-0.007178","0.019141","-0.070581","0.055029","-0.0323","-0.084937","-0.001196"
"T","1617451910.693128","7","37","9","62","62","36","0.704834","0.196472","-0.68158","-0.001648","0.007634","0","0","9.443506","2.679688","0.016748","0.033496","-0.056226","0.078955","-0.057422","-0.082544","0.015552"
"T","1617451910.6839268","7","36","10","62","60","35","0.704834","0.196472","-0.681641","-0.001831","0","-0.007634","0","9.423169","2.727539","0.037085","0.013159","-0.010767","0.099292","-0.090918","-0.040674","0.008374"
"T","1617451910.672961","7","38","9","60","60","36","0.704834","0.196533","-0.681641","-0.001953","-0.007634","-0.007634","0.007634","9.362158","2.77898","0.046655","-0.046655","0.037085","0.108862","-0.117236","0.016748","-0.034692"
"T","1617451910.6637816","7","37","10","62","60","90","0.704834","0.196716","-0.681519","-0.002014","-0.015267","-0.015267","0.007634","9.317896","2.834009","0.04187","-0.088525","0.088525","0.104077","-0.129199","0.076563","-0.059814"
"T","1617451910.6538343","7","38","10","62","60","37","0.704895","0.197021","-0.681396","-0.001953","-0.022901","-0.015267","0.007634","9.29397","2.88186","0.034692","-0.112451","0.132788","0.095703","-0.135181","0.12561","-0.070581"
"T","1617451910.6439152","7","38","9","62","59","33","0.704895","0.197266","-0.681335","-0.00177","-0.015267","-0.015267","0","9.283203","2.899805","0.005981","-0.123218","0.150732","0.066992","-0.112451","0.153125","-0.075366"
"T","1617451910.6338427","7","33","10","63","58","36","0.704895","0.197327","-0.681335","-0.001648","0","-0.007634","-0.007634","9.304736","2.861523","-0.033496","-0.101685","0.112451","0.027515","-0.063403","0.123218","-0.065796"
"T","1617451910.6238816","7","35","9","60","57","35","0.704834","0.197083","-0.681396","-0.001526","0.015267","0.007634","-0.015267","9.359766","2.759839","-0.058618","-0.046655","0.016748","0.003589","-0.010767","0.026318","-0.039478"
"T","1617451910.6138124","7","38","11","63","59","38","0.704773","0.196533","-0.681641","-0.001587","0.022901","0.022901","-0.022901","9.439917","2.66294","-0.076563","0.029907","-0.072974","-0.011963","0.0323","-0.071777","0.008374"
"T","1617451910.6038628","7","38","10","63","60","35","0.70459","0.196045","-0.682007","-0.00177","0.022901","0.015267","-0.022901","9.498535","2.615088","-0.075366","0.086133","-0.114844","-0.004785","0.040674","-0.126807","0.050244"
"T","1617451910.593744","7","36","10","63","60","34","0.704468","0.195679","-0.682251","-0.001892","0.007634","0.007634","-0.015267","9.481787","2.603125","-0.065796","0.068188","-0.123218","0.007178","0.029907","-0.133984","0.031104"
"T","1617451910.5839014","7","38","10","63","62","37","0.704346","0.195435","-0.682373","-0.001953","-0.007634","0","-0.007634","9.425562","2.616284","-0.0646","0.011963","-0.107666","0.010767","0.017944","-0.105273","-0.017944"
"T","1617451910.5737648","7","33","8","59","62","35","0.704346","0.195496","-0.682434","-0.001953","-0.022901","-0.007634","-0.007634","9.376513","2.64978","-0.062207","-0.037085","-0.07417","0.014355","0.002393","-0.062207","-0.056226"
"T","1617451910.5637963","7","37","9","62","60","36","0.704285","0.195801","-0.682373","-0.00177","-0.030534","-0.007634","0","9.326269","2.703613","-0.056226","-0.086133","-0.022729","0.021533","-0.020337","-0.003589","-0.088525"
"T","1617451910.5538397","7","35","10","60","59","37","0.704224","0.196045","-0.682373","-0.001526","-0.022901","-0.007634","0","9.279614","2.737109","-0.061011","-0.132788","0.00957","0.017944","-0.028711","0.039478","-0.124414"
"T","1617451910.5438912","7","38","9","61","62","37","0.704163","0.196228","-0.682373","-0.001282","-0.015267","0","-0.007634","9.27124","2.721558","-0.087329","-0.141162","-0.003589","-0.005981","-0.002393","0.035889","-0.136377"
"T","1617451910.5339146","7","35","10","63","57","35","0.704041","0.196228","-0.682495","-0.00116","0","0.007634","-0.007634","9.279614","2.690454","-0.100488","-0.132788","-0.0323","-0.015552","0.014355","0.00957","-0.136377"
"T","1617451910.5240014","7","37","9","60","58","34","0.703918","0.196167","-0.682617","-0.001099","0","0.007634","-0.007634","9.304736","2.668921","-0.101685","-0.108862","-0.05144","-0.013159","0.017944","-0.014355","-0.118433"
"T","1617451910.513725","7","37","9","63","62","35","0.703796","0.196106","-0.6828","-0.00116","-0.007634","0.007634","-0.007634","9.317896","2.674902","-0.093311","-0.095703","-0.045459","-0.001196","0.005981","-0.015552","-0.104077"
"T","1617451910.5038464","7","37","5","61","58","33","0.703674","0.196106","-0.682922","-0.001099","-0.015267","0","-0.007634","9.317896","2.697632","-0.076563","-0.095703","-0.021533","0.017944","-0.017944","0","-0.096899"
"T","1617451910.493853","7","37","10","61","60","31","0.703613","0.196167","-0.682922","-0.000977","-0.022901","-0.007634","-0.007634","9.298755","2.71438","-0.058618","-0.114844","-0.003589","0.037085","-0.04187","0.016748","-0.111255"
"T","1617451910.484019","7","37","11","63","63","38","0.703613","0.19635","-0.682922","-0.000732","-0.022901","-0.007634","-0.007634","9.28081","2.729932","-0.04187","-0.133984","0.011963","0.053833","-0.063403","0.031104","-0.12561"
"T","1617451910.4740057","7","13","8","63","62","34","0.703613","0.196472","-0.682861","-0.000366","-0.022901","-0.007634","-0.015267","9.274829","2.711987","-0.038281","-0.139966","-0.002393","0.057422","-0.063403","0.019141","-0.135181"
"T","1617451910.4638083","7","37","9","61","60","36","0.703613","0.196472","-0.682922","-0.000061","-0.007634","-0.007634","-0.015267","9.295166","2.64978","-0.049048","-0.122021","-0.059814","0.047852","-0.037085","-0.034692","-0.133984"
"T","1617451910.453786","7","36","9","60","58","33","0.703552","0.196289","-0.682983","0.000122","0.007634","0","-0.022901","9.332251","2.572021","-0.076563","-0.086133","-0.132788","0.021533","0.008374","-0.105273","-0.119629"
"T","1617451910.4439728","7","33","9","61","59","35","0.703491","0.195984","-0.683105","0.000244","0.007634","0","-0.022901","9.375318","2.528955","-0.084937","-0.044263","-0.169873","0.014355","0.028711","-0.14834","-0.088525"
"T","1617451910.4339075","7","35","9","62","59","35","0.70343","0.195801","-0.683228","0.000244","0","0","-0.015267","9.384888","2.525366","-0.089722","-0.034692","-0.169873","0.010767","0.0323","-0.149536","-0.080151"
"T","1617451910.4239562","7","37","10","61","60","37","0.70343","0.195679","-0.683289","0.000305","-0.007634","-0.007634","-0.015267","9.375318","2.539722","-0.086133","-0.045459","-0.153125","0.014355","0.023926","-0.132788","-0.084937"
"T","1617451910.4138813","7","10","10","63","68","49","0.703491","0.195679","-0.683228","0.000366","-0.015267","-0.007634","-0.007634","9.371729","2.569629","-0.080151","-0.050244","-0.123218","0.019141","0.010767","-0.105273","-0.081348"
"T","1617451910.4041915","7","37","10","60","59","37","0.703491","0.195801","-0.683167","0.000488","-0.015267","-0.007634","-0.007634","9.383692","2.606714","-0.058618","-0.037085","-0.086133","0.040674","-0.017944","-0.080151","-0.058618"
"T","1617451910.3940437","7","35","9","60","60","36","0.703491","0.195923","-0.683167","0.00061","-0.015267","-0.007634","-0.007634","9.394458","2.629443","-0.04187","-0.027515","-0.063403","0.057422","-0.039478","-0.066992","-0.044263"
"T","1617451910.38394","7","36","8","62","60","35","0.703491","0.195923","-0.683105","0.000732","-0.007634","-0.007634","-0.007634","9.395655","2.625854","-0.029907","-0.025122","-0.065796","0.068188","-0.049048","-0.071777","-0.04187"
"T","1617451909.315073","7","37","10","62","59","39","0.702393","0.19165","-0.685486","-0.000244","-0.007634","0","-0.015267","9.344213","2.526562","-0.236865","-0.090918","-0.114844","-0.10647","0.126807","-0.053833","-0.11604"
"T","1617451909.3050215","7","37","10","63","60","35","0.702332","0.19165","-0.685547","-0.000183","-0.007634","0","-0.007634","9.331055","2.540918","-0.247632","-0.105273","-0.099292","-0.114844","0.129199","-0.0323","-0.12561"
"T","1617451909.2949274","7","38","9","62","59","35","0.702332","0.19165","-0.685547","-0.000061","-0.007634","0","-0.007634","9.314306","2.557666","-0.239258","-0.122021","-0.081348","-0.10647","0.11604","-0.014355","-0.137573"
"T","1617451909.285704","7","37","9","63","59","36","0.702332","0.19165","-0.685547","0","0","0","-0.007634","9.29397","2.53374","-0.23208","-0.142358","-0.104077","-0.099292","0.113647","-0.031104","-0.162695"
"T","1617451909.2758996","7","36","10","61","61","37","0.702393","0.19165","-0.685547","0","-0.007634","0","-0.007634","9.289185","2.531348","-0.208154","-0.14834","-0.10647","-0.076563","0.092114","-0.038281","-0.169873"
"T","1617451909.2650409","7","36","10","63","62","36","0.702393","0.191772","-0.685486","0.000061","-0.015267","0","0","9.289185","2.585181","-0.165088","-0.147144","-0.053833","-0.033496","0.037085","-0.001196","-0.155518"
"T","1617451909.2559","7","37","9","62","60","36","0.702332","0.191895","-0.685486","0.000122","-0.007634","0","0","9.295166","2.603125","-0.117236","-0.141162","-0.035889","0.014355","-0.011963","0","-0.144751"
"T","1617451909.2451882","7","37","9","60","60","36","0.702271","0.191956","-0.685486","0.000183","-0.007634","0","-0.007634","9.299952","2.592358","-0.090918","-0.135181","-0.046655","0.04187","-0.035889","-0.017944","-0.142358"
"T","1617451909.2351022","7","37","9","62","62","35","0.702209","0.191956","-0.685608","0.000183","-0.007634","0","0","9.30354","2.591162","-0.086133","-0.132788","-0.047852","0.049048","-0.04187","-0.021533","-0.141162"
"T","1617451909.2250044","7","36","10","63","61","39","0.702148","0.192017","-0.685608","0.000122","-0.015267","0","0","9.301147","2.610303","-0.105273","-0.133984","-0.029907","0.031104","-0.029907","0","-0.136377"
"T","1617451909.2157326","7","38","9","63","62","33","0.702087","0.192261","-0.685608","0.000122","-0.022901","0","0.007634","9.319092","2.650977","-0.128003","-0.114844","0.005981","0.00957","-0.016748","0.0323","-0.108862"
"T","1617451909.2048676","7","38","10","62","60","37","0.702026","0.192566","-0.685608","0.000244","-0.022901","0","0","9.326269","2.686865","-0.14834","-0.107666","0.039478","-0.007178","-0.00957","0.065796","-0.092114"
"T","1617451909.195642","7","35","9","62","60","31","0.701904","0.192749","-0.685669","0.000427","-0.015267","0","0","9.332251","2.66294","-0.18064","-0.101685","0.016748","-0.037085","0.025122","0.05144","-0.092114"
"T","1617451909.185","7","37","10","63","60","36","0.701843","0.19281","-0.68573","0.000549","0","0.007634","-0.007634","9.365747","2.600732","-0.19978","-0.068188","-0.043066","-0.053833","0.058618","-0.007178","-0.075366"
"T","1617451909.175836","7","35","10","62","61","38","0.701782","0.192688","-0.685852","0.000549","0.007634","0.007634","-0.015267","9.401636","2.522974","-0.214136","-0.033496","-0.119629","-0.065796","0.092114","-0.08374","-0.063403"
"T","1617451909.165695","7","37","10","47","63","39","0.70166","0.192444","-0.685974","0.000488","0.007634","0.007634","-0.015267","9.423169","2.476318","-0.212939","-0.011963","-0.162695","-0.062207","0.101685","-0.130396","-0.053833"
"T","1617451909.1557436","7","37","8","62","61","36","0.70166","0.1922","-0.686096","0.000427","0.007634","0.007634","-0.015267","9.423169","2.452393","-0.204565","-0.013159","-0.184229","-0.053833","0.099292","-0.151929","-0.061011"
"T","1617451909.1458132","7","37","9","60","59","37","0.701599","0.192078","-0.686157","0.000305","0","0","-0.007634","9.408813","2.45957","-0.178247","-0.027515","-0.177051","-0.026318","0.069385","-0.149536","-0.072974"
"T","1617451909.1358273","7","35","11","63","59","37","0.70166","0.192078","-0.686157","0.000244","-0.007634","-0.007634","-0.007634","9.380102","2.495459","-0.151929","-0.056226","-0.142358","-0.001196","0.034692","-0.11604","-0.092114"
"T","1617451909.125733","7","36","10","61","60","33","0.701721","0.1922","-0.686035","0.000305","-0.015267","-0.015267","-0.007634","9.347803","2.539722","-0.129199","-0.088525","-0.099292","0.019141","0.002393","-0.072974","-0.111255"
"T","1617451909.1158185","7","35","9","63","62","36","0.701843","0.192322","-0.685913","0.000427","-0.007634","-0.015267","-0.007634","9.333447","2.564844","-0.120825","-0.102881","-0.07417","0.023926","-0.008374","-0.047852","-0.118433"
"T","1617451909.1057866","7","35","9","62","60","37","0.701904","0.192322","-0.685791","0.000549","0","-0.015267","-0.007634","9.333447","2.551685","-0.12561","-0.102881","-0.086133","0.016748","0","-0.056226","-0.122021"
"T","1617451909.0958085","7","37","9","60","61","35","0.701965","0.1922","-0.68573","0.000488","0.015267","-0.007634","-0.007634","9.356176","2.495459","-0.141162","-0.080151","-0.142358","0","0.0323","-0.110059","-0.114844"
"T","1617451909.0857446","7","37","10","63","60","40","0.702026","0.192017","-0.68573","0.000305","0.015267","0","-0.007634","9.378906","2.451196","-0.165088","-0.057422","-0.186621","-0.025122","0.069385","-0.150732","-0.104077"
"T","1617451909.0757473","7","34","8","62","63","37","0.702087","0.191833","-0.685791","0.000061","0.015267","0","-0.007634","9.374121","2.44043","-0.192603","-0.062207","-0.197388","-0.052637","0.098096","-0.151929","-0.111255"
"T","1617451909.0659094","7","38","10","62","59","38","0.702087","0.191711","-0.685791","-0.000183","0.007634","0","0","9.356176","2.481103","-0.198584","-0.080151","-0.159106","-0.059814","0.094507","-0.110059","-0.118433"
"T","1617451909.0559063","7","33","10","63","60","39","0.702148","0.191711","-0.68573","-0.000366","0","-0.007634","0","9.329859","2.543311","-0.187817","-0.105273","-0.099292","-0.050244","0.066992","-0.050244","-0.126807"
"T","1617451909.045648","7","37","17","57","60","37","0.702209","0.191833","-0.685669","-0.000427","-0.007634","-0.015267","0","9.273633","2.591162","-0.187817","-0.161499","-0.053833","-0.05144","0.053833","0.005981","-0.168677"
"T","1617451909.0356743","7","35","9","61","57","33","0.702332","0.191895","-0.685486","-0.000427","-0.007634","-0.015267","0","9.222193","2.629443","-0.192603","-0.211743","-0.016748","-0.059814","0.049048","0.056226","-0.206958"
"T","1617451909.0258398","7","36","9","62","59","33","0.702454","0.192017","-0.685364","-0.000427","-0.007634","-0.015267","0.007634","9.215014","2.653369","-0.196191","-0.218921","0.003589","-0.066992","0.050244","0.078955","-0.208154"
"T","1617451909.0156636","7","36","10","62","63","35","0.702576","0.192078","-0.685181","-0.000427","0","-0.007634","0.007634","9.258081","2.666528","-0.187817","-0.174658","0.015552","-0.062207","0.044263","0.076563","-0.162695"
"T","1617451909.0057309","7","36","10","62","62","36","0.702637","0.192078","-0.68512","-0.000549","0.007634","-0.007634","0","9.289185","2.66294","-0.177051","-0.143555","0.00957","-0.052637","0.038281","0.059814","-0.133984"
"T","1617451908.995952","7","35","10","62","59","33","0.702759","0.191956","-0.684998","-0.000671","0.007634","-0.015267","0","9.283203","2.637817","-0.174658","-0.14834","-0.014355","-0.055029","0.046655","0.039478","-0.145947"
"T","1617451908.9857826","7","37","9","61","62","33","0.703003","0.191833","-0.684875","-0.000793","0.007634","-0.015267","0","9.283203","2.622266","-0.14834","-0.149536","-0.031104","-0.033496","0.031104","0.019141","-0.151929"
"T","1617451908.9759622","7","35","10","63","73","33","0.703247","0.19165","-0.684631","-0.000977","0.007634","-0.022901","0","9.289185","2.623462","-0.10647","-0.143555","-0.031104","0","0","0.008374","-0.145947"
"T","1617451908.966046","7","36","11","61","59","33","0.703613","0.19165","-0.684265","-0.001038","-0.007634","-0.038168","0","9.298755","2.648584","-0.043066","-0.132788","-0.007178","0.052637","-0.056226","0.013159","-0.129199"
"T","1617451908.9558485","7","36","11","63","63","37","0.703979","0.191711","-0.683838","-0.000916","-0.015267","-0.038168","0","9.30354","2.694043","0.029907","-0.128003","0.035889","0.11604","-0.129199","0.034692","-0.113647"
"T","1617451908.9459486","7","35","10","51","60","33","0.704346","0.191833","-0.683411","-0.000671","-0.015267","-0.038168","-0.007634","9.323877","2.70481","0.098096","-0.107666","0.046655","0.173462","-0.185425","0.023926","-0.092114"
"T","1617451908.9359703","7","36","10","63","58","33","0.704712","0.191895","-0.683044","-0.000366","-0.007634","-0.038168","-0.007634","9.357373","2.685669","0.144751","-0.075366","0.029907","0.210547","-0.215332","-0.008374","-0.065796"
"T","1617451908.9260316","7","36","10","58","59","33","0.705017","0.191833","-0.682739","-0.000122","-0.007634","-0.030534","-0.015267","9.404028","2.641406","0.186621","-0.028711","-0.010767","0.244043","-0.233276","-0.068188","-0.031104"
"T","1617451908.9158418","7","37","10","62","60","36","0.7052","0.191772","-0.682556","0","-0.007634","-0.022901","-0.007634","9.432739","2.639014","0.223706","-0.001196","-0.010767","0.275146","-0.261987","-0.08374","-0.004785"
"T","1617451908.906096","7","37","9","63","58","33","0.705383","0.191833","-0.682373","0.000122","-0.007634","-0.022901","0","9.420776","2.660547","0.230884","-0.013159","0.00957","0.277539","-0.270361","-0.062207","-0.010767"
"T","1617451908.8959117","7","36","7","62","57","36","0.705444","0.191956","-0.682251","0.000183","-0.007634","-0.022901","0.007634","9.429151","2.679688","0.218921","-0.004785","0.027515","0.26438","-0.261987","-0.044263","0.001196"
"T","1617451908.8858209","7","37","8","60","63","33","0.705505","0.192139","-0.68219","0.000244","-0.007634","-0.015267","0.007634","9.423169","2.701221","0.175854","-0.010767","0.046655","0.220117","-0.223706","-0.013159","0.001196"
"T","1617451908.876022","7","37","7","62","58","32","0.705505","0.192322","-0.682129","0.000183","-0.007634","-0.007634","0.007634","9.407618","2.690454","0.120825","-0.025122","0.0323","0.165088","-0.168677","-0.007178","-0.015552"
"T","1617451908.8658304","7","37","9","62","57","32","0.705444","0.192444","-0.682129","0.000122","-0.007634","-0.007634","0.007634","9.411206","2.685669","0.065796","-0.020337","0.026318","0.111255","-0.114844","0","-0.011963"
"T","1617451908.8558528","7","33","8","61","60","36","0.705444","0.192505","-0.682129","0.000122","-0.007634","0","0","9.407618","2.692847","0.038281","-0.023926","0.0323","0.08374","-0.089722","0.013159","-0.014355"
"T","1617451908.8458023","7","37","9","61","60","37","0.705383","0.192627","-0.68219","0.000122","-0.007634","0","0","9.411206","2.690454","0.019141","-0.020337","0.028711","0.066992","-0.072974","0.013159","-0.011963"
"T","1617451908.8358011","7","37","8","62","58","33","0.705261","0.192566","-0.682251","0.000122","0.007634","0.007634","-0.007634","9.417188","2.665332","-0.003589","-0.013159","0.004785","0.046655","-0.046655","-0.004785","-0.010767"
"T","1617451908.8259184","7","35","8","61","58","36","0.7052","0.192322","-0.682434","0.000122","0.015267","0.007634","-0.015267","9.41958","2.600732","-0.028711","-0.013159","-0.055029","0.023926","-0.008374","-0.053833","-0.027515"
"T","1617451908.815863","7","35","8","60","59","33","0.705139","0.192017","-0.682617","0","0.015267","0.007634","-0.015267","9.421972","2.539722","-0.039478","-0.011963","-0.113647","0.015552","0.013159","-0.105273","-0.04187"
"T","1617451908.8058832","7","36","9","61","62","33","0.705078","0.191772","-0.682739","-0.000183","0.007634","0","-0.007634","9.407618","2.530151","-0.05144","-0.026318","-0.122021","0.004785","0.025122","-0.10647","-0.057422"
"T","1617451908.7958558","7","35","9","61","59","35","0.705017","0.19165","-0.682739","-0.000244","-0.007634","-0.007634","-0.007634","9.395655","2.557666","-0.055029","-0.037085","-0.093311","0.001196","0.020337","-0.076563","-0.059814"
"T","1617451908.7858632","7","36","9","60","59","36","0.705017","0.191711","-0.682739","-0.000244","-0.015267","-0.007634","0","9.380102","2.604321","-0.058618","-0.052637","-0.047852","-0.001196","0.00957","-0.029907","-0.063403"
"T","1617451908.7759","7","35","9","61","58","36","0.705078","0.191895","-0.682678","-0.000183","-0.015267","-0.015267","0","9.356176","2.628247","-0.07417","-0.076563","-0.025122","-0.016748","0.016748","0.001196","-0.080151"
"T","1617451908.765949","7","35","9","63","60","35","0.7052","0.192078","-0.682495","-0.000061","-0.015267","-0.015267","0","9.338232","2.622266","-0.08374","-0.094507","-0.0323","-0.029907","0.029907","0.002393","-0.099292"
"T","1617451908.7559557","7","35","9","62","60","36","0.705322","0.192139","-0.682312","0.000061","-0.007634","-0.015267","0","9.347803","2.606714","-0.078955","-0.08374","-0.047852","-0.029907","0.034692","-0.013159","-0.093311"
"T","1617451908.7460318","7","37","9","61","60","33","0.705505","0.192139","-0.68219","0.000122","0","-0.007634","-0.007634","9.369336","2.579199","-0.0646","-0.063403","-0.075366","-0.019141","0.033496","-0.047852","-0.081348"
"T","1617451908.735799","7","34","10","63","61","33","0.705627","0.192017","-0.682068","0.000061","0.007634","-0.007634","-0.007634","9.390869","2.573218","-0.029907","-0.04187","-0.081348","0.010767","0.007178","-0.066992","-0.062207"
"T","1617451908.726191","7","35","9","62","60","36","0.705688","0.191772","-0.682068","0","0.015267","-0.007634","-0.007634","9.420776","2.568433","0.00957","-0.013159","-0.08374","0.047852","-0.023926","-0.086133","-0.034692"
"T","1617451908.7161777","7","33","9","61","59","31","0.70575","0.191589","-0.682068","-0.000183","0.007634","-0.007634","-0.007634","9.41958","2.57561","0.053833","-0.014355","-0.076563","0.090918","-0.068188","-0.090918","-0.034692"
"T","1617451908.7058804","7","33","10","63","58","36","0.705811","0.191467","-0.682007","-0.000366","0","-0.015267","0","9.38728","2.610303","0.072974","-0.045459","-0.043066","0.107666","-0.094507","-0.056226","-0.055029"
"T","1617451908.6960447","7","35","9","60","58","36","0.705872","0.191528","-0.681946","-0.000427","-0.007634","-0.015267","0","9.341822","2.654565","0.090918","-0.090918","0","0.124414","-0.12561","-0.00957","-0.087329"
"T","1617451908.6858702","7","36","9","61","59","33","0.705994","0.19165","-0.681763","-0.000427","-0.007634","-0.015267","0","9.309522","2.683276","0.071777","-0.122021","0.025122","0.101685","-0.112451","0.027515","-0.110059"
"T","1617451908.675908","7","36","7","60","58","37","0.706055","0.191711","-0.681702","-0.000305","-0.007634","-0.015267","0","9.299952","2.678491","0.043066","-0.131592","0.020337","0.071777","-0.082544","0.033496","-0.120825"
"T","1617451908.6660795","7","38","9","62","52","88","0.706116","0.191711","-0.681641","-0.000244","0","-0.007634","-0.007634","9.305933","2.621069","-0.002393","-0.126807","-0.034692","0.023926","-0.022729","-0.004785","-0.130396"
"T","1617451908.656034","7","36","10","63","59","33","0.706116","0.191528","-0.681702","-0.000183","0.007634","0","-0.015267","9.332251","2.557666","-0.05144","-0.101685","-0.094507","-0.023926","0.039478","-0.053833","-0.123218"
"T","1617451908.6459246","7","36","11","63","58","35","0.705994","0.191345","-0.681885","-0.000244","0.007634","0.007634","-0.015267","9.35498","2.518188","-0.089722","-0.078955","-0.132788","-0.058618","0.084937","-0.086133","-0.111255"
"T","1617451908.636017","7","35","10","62","63","35","0.705933","0.191162","-0.682007","-0.000244","0","0.007634","-0.015267","9.364551","2.493066","-0.120825","-0.070581","-0.154321","-0.087329","0.118433","-0.100488","-0.108862"
"T","1617451908.6260006","7","37","10","63","59","31","0.705811","0.19104","-0.68219","-0.000244","0","0.007634","-0.015267","9.366943","2.494263","-0.131592","-0.069385","-0.150732","-0.094507","0.124414","-0.095703","-0.10647"
"T","1617451908.6158714","7","37","10","60","59","36","0.705688","0.190979","-0.682251","-0.000244","-0.007634","0.007634","-0.007634","9.352588","2.505029","-0.150732","-0.082544","-0.13877","-0.111255","0.136377","-0.076563","-0.11604"
"T","1617451908.605948","7","37","8","61","57","32","0.705627","0.190979","-0.682312","-0.000244","0","0","-0.007634","9.339429","2.508618","-0.156714","-0.095703","-0.135181","-0.11604","0.139966","-0.068188","-0.128003"
"T","1617451908.5960422","7","37","10","62","57","37","0.705627","0.190979","-0.682312","-0.000305","0","0","0","9.332251","2.509815","-0.151929","-0.102881","-0.135181","-0.111255","0.135181","-0.068188","-0.133984"
"T","1617451908.5860531","7","37","9","62","60","32","0.705688","0.190979","-0.682312","-0.000366","0","-0.007634","0","9.314306","2.526562","-0.151929","-0.120825","-0.119629","-0.112451","0.130396","-0.049048","-0.147144"
"T","1617451908.576001","7","36","10","61","59","36","0.70575","0.19104","-0.68219","-0.000549","0","-0.007634","0","9.321485","2.545703","-0.133984","-0.112451","-0.104077","-0.095703","0.111255","-0.040674","-0.135181"
"T","1617451908.5659058","7","37","10","62","59","36","0.705811","0.190979","-0.682129","-0.000671","0.007634","-0.007634","0","9.325073","2.568433","-0.096899","-0.108862","-0.081348","-0.061011","0.071777","-0.029907","-0.12561"
"T","1617451908.556162","7","36","8","62","57","36","0.705933","0.190918","-0.682068","-0.000793","0.007634","-0.007634","0","9.316699","2.586377","-0.077759","-0.117236","-0.065796","-0.044263","0.05144","-0.017944","-0.130396"
"T","1617451908.5458877","7","37","9","61","59","33","0.706055","0.190857","-0.681946","-0.000916","0","-0.015267","0","9.308325","2.595947","-0.052637","-0.124414","-0.057422","-0.022729","0.027515","-0.014355","-0.135181"
"T","1617451908.5360715","7","37","9","63","59","37","0.706238","0.190857","-0.681763","-0.000977","0","-0.015267","0","9.305933","2.634228","-0.011963","-0.126807","-0.020337","0.011963","-0.014355","0.010767","-0.126807"
"T","1617451908.5261445","7","38","11","63","61","39","0.70636","0.190918","-0.68158","-0.001038","-0.007634","-0.022901","0","9.283203","2.674902","0.027515","-0.14834","0.016748","0.046655","-0.058618","0.040674","-0.137573"
"T","1617451908.515911","7","37","10","60","58","32","0.706543","0.19104","-0.681396","-0.000977","-0.007634","-0.022901","0.007634","9.276026","2.709595","0.059814","-0.155518","0.050244","0.075366","-0.095703","0.066992","-0.135181"
"T","1617451908.506104","7","34","11","62","63","36","0.706726","0.191162","-0.681152","-0.000916","-0.015267","-0.022901","0.007634","9.283203","2.720361","0.087329","-0.14834","0.059814","0.096899","-0.118433","0.068188","-0.12561"
"T","1617451908.4959662","7","36","9","62","62","40","0.706909","0.191284","-0.680908","-0.000793","-0.007634","-0.022901","0","9.302343","2.70481","0.094507","-0.128003","0.043066","0.099292","-0.11604","0.045459","-0.111255"
"T","1617451908.486602","7","36","10","62","61","36","0.707092","0.191284","-0.680725","-0.000732","0","-0.022901","0","9.344213","2.66294","0.084937","-0.086133","0.001196","0.08374","-0.086133","0","-0.082544"
"T","1617451908.476194","7","37","8","60","57","33","0.707275","0.191223","-0.680603","-0.000732","0.007634","-0.015267","0","9.384888","2.615088","0.061011","-0.046655","-0.045459","0.056226","-0.045459","-0.044263","-0.056226"
"T","1617451908.466715","7","34","9","62","60","35","0.707397","0.191162","-0.68042","-0.000854","0","-0.015267","0","9.430346","2.594751","0.04187","0","-0.066992","0.0323","-0.013159","-0.070581","-0.017944"
"T","1617451908.4558873","7","37","9","63","60","39","0.707581","0.191162","-0.680298","-0.000916","-0.007634","-0.015267","0","9.472217","2.618677","0.052637","0.040674","-0.044263","0.039478","-0.022729","-0.062207","0.026318"
"T","1617451908.4468105","7","37","10","63","59","37","0.707703","0.191284","-0.680115","-0.000916","-0.015267","-0.015267","0","9.49375","2.665332","0.086133","0.062207","0","0.069385","-0.061011","-0.034692","0.059814"
"T","1617451908.4361637","7","37","9","66","64","37","0.707825","0.191467","-0.679932","-0.000854","-0.015267","-0.022901","0","9.485376","2.706006","0.118433","0.055029","0.038281","0.098096","-0.099292","-0.004785","0.063403"
"T","1617451908.426785","7","37","9","61","60","38","0.708008","0.191589","-0.679688","-0.000671","-0.007634","-0.022901","0","9.474609","2.720361","0.168677","0.044263","0.052637","0.142358","-0.147144","-0.001196","0.056226"
"T","1617451908.4161122","7","37","10","61","58","39","0.70813","0.191589","-0.679565","-0.000549","0","-0.015267","-0.007634","9.477002","2.703613","0.208154","0.046655","0.037085","0.178247","-0.177051","-0.025122","0.055029"
"T","1617451908.4067016","7","36","9","62","62","39","0.708252","0.191467","-0.679443","-0.000488","0","-0.015267","-0.007634","9.459058","2.673706","0.246436","0.028711","0.008374","0.212939","-0.204565","-0.056226","0.029907"
"T","1617451908.396731","7","37","10","62","62","36","0.708374","0.191345","-0.679382","-0.000427","0","-0.015267","-0.007634","9.432739","2.647388","0.260791","0.001196","-0.014355","0.224902","-0.211743","-0.07417","-0.001196"
"T","1617451908.3869183","7","36","10","62","57","37","0.708435","0.191284","-0.679321","-0.000366","0","-0.015267","-0.007634","9.408813","2.644995","0.256006","-0.021533","-0.015552","0.217725","-0.206958","-0.066992","-0.023926"
"T","1617451908.3766663","7","35","9","62","60","14","0.708496","0.191223","-0.679321","-0.000305","-0.007634","-0.015267","-0.007634","9.398046","2.653369","0.238062","-0.033496","-0.005981","0.198584","-0.191406","-0.050244","-0.0323"
"T","1617451908.366716","7","36","9","62","60","36","0.708496","0.191284","-0.679321","-0.000183","-0.007634","-0.007634","0","9.37771","2.650977","0.217725","-0.053833","-0.007178","0.179443","-0.174658","-0.040674","-0.052637"
"T","1617451908.3567448","7","37","9","62","60","33","0.708435","0.191406","-0.679321","-0.000122","-0.007634","-0.007634","0","9.360962","2.647388","0.175854","-0.070581","-0.011963","0.13877","-0.135181","-0.029907","-0.070581"
"T","1617451908.347022","7","36","10","62","59","33","0.708313","0.191467","-0.679382","-0.000061","-0.007634","0","-0.007634","9.370532","2.633032","0.133984","-0.061011","-0.025122","0.099292","-0.093311","-0.033496","-0.0646"
"T","1617451908.3368096","7","36","10","63","57","35","0.708191","0.191528","-0.679504","0","-0.007634","0.007634","-0.007634","9.380102","2.629443","0.084937","-0.05144","-0.028711","0.053833","-0.047852","-0.027515","-0.056226"
"T","1617451908.3266895","7","37","10","63","62","37","0.708069","0.191467","-0.679688","0","0","0.007634","-0.007634","9.388476","2.610303","0.044263","-0.044263","-0.046655","0.016748","-0.007178","-0.035889","-0.055029"
"T","1617451908.316719","7","35","10","61","60","37","0.707886","0.191284","-0.679932","-0.000061","0.007634","0.015267","-0.015267","9.393262","2.587573","0.020337","-0.039478","-0.066992","-0.001196","0.015552","-0.05144","-0.055029"
"T","1617451908.3067544","7","36","8","62","70","26","0.707764","0.19104","-0.680115","-0.000183","0.015267","0.015267","-0.015267","9.388476","2.548096","0.005981","-0.045459","-0.104077","-0.011963","0.034692","-0.081348","-0.071777"
"T","1617451908.2968168","7","36","10","61","62","35","0.707642","0.190796","-0.680298","-0.000366","0.007634","0.007634","-0.007634","9.371729","2.528955","0.007178","-0.062207","-0.122021","-0.007178","0.033496","-0.094507","-0.092114"
"T","1617451908.286801","7","37","8","63","60","35","0.707581","0.190674","-0.68042","-0.000488","0","0","-0.007634","9.33584","2.548096","0.011963","-0.098096","-0.101685","0","0.017944","-0.068188","-0.120825"
"T","1617451908.2767663","7","37","9","62","61","38","0.707581","0.190735","-0.68042","-0.000549","-0.015267","-0.007634","0","9.295166","2.601929","0.026318","-0.13877","-0.050244","0.013159","-0.00957","-0.013159","-0.147144"
"T","1617451908.2666955","7","37","10","63","63","36","0.707581","0.190979","-0.680298","-0.000427","-0.022901","-0.015267","0","9.262866","2.659351","0.045459","-0.169873","0.004785","0.031104","-0.043066","0.039478","-0.161499"
"T","1617451908.2566812","7","36","10","61","59","33","0.707642","0.191162","-0.680237","-0.000244","-0.015267","-0.015267","0","9.259277","2.668921","0.046655","-0.173462","0.013159","0.031104","-0.045459","0.047852","-0.162695"
"T","1617451908.2467248","7","37","10","62","60","35","0.707642","0.191284","-0.680176","-0.000061","-0.007634","-0.007634","-0.007634","9.298755","2.648584","0.044263","-0.133984","-0.004785","0.028711","-0.035889","0.021533","-0.129199"
"T","1617451908.2368364","7","37","10","58","59","36","0.707642","0.191223","-0.680176","0","0","0","-0.007634","9.357373","2.609107","0.049048","-0.075366","-0.043066","0.033496","-0.026318","-0.028711","-0.08374"
"T","1617451908.2267928","7","35","10","61","58","35","0.707642","0.191101","-0.680237","0","0.007634","0","-0.007634","9.394458","2.579199","0.05144","-0.039478","-0.070581","0.035889","-0.019141","-0.0646","-0.056226"
"T","1617451908.2169712","7","32","8","62","59","32","0.707703","0.190918","-0.680237","-0.000122","0.007634","-0.007634","-0.007634","9.402832","2.557666","0.053833","-0.031104","-0.092114","0.037085","-0.013159","-0.087329","-0.053833"
"T","1617451908.206886","7","36","9","63","59","36","0.707764","0.190857","-0.680176","-0.000244","0","-0.007634","-0.007634","9.400439","2.55647","0.076563","-0.033496","-0.093311","0.057422","-0.033496","-0.092114","-0.056226"
"T","1617451908.1969104","7","37","10","63","61","36","0.707825","0.190857","-0.680115","-0.000305","-0.007634","-0.015267","0","9.390869","2.589966","0.093311","-0.043066","-0.061011","0.072974","-0.057422","-0.0646","-0.057422"
"T","1617451908.1869082","7","37","10","60","58","36","0.707947","0.190918","-0.679932","-0.000305","-0.007634","-0.015267","0","9.383692","2.625854","0.105273","-0.049048","-0.026318","0.081348","-0.07417","-0.033496","-0.053833"
"T","1617451908.17682","7","36","11","62","63","36","0.708069","0.190979","-0.67981","-0.000244","0","-0.015267","-0.007634","9.375318","2.64021","0.108862","-0.057422","-0.013159","0.081348","-0.078955","-0.019141","-0.057422"
"T","1617451908.16677","7","38","10","63","61","37","0.708191","0.190918","-0.679749","-0.000244","0.007634","-0.015267","-0.007634","9.38728","2.628247","0.11604","-0.046655","-0.023926","0.086133","-0.080151","-0.0323","-0.050244"
"T","1617451908.1569211","7","38","10","62","60","35","0.708252","0.190735","-0.679688","-0.000305","0.007634","-0.007634","-0.007634","9.400439","2.621069","0.113647","-0.033496","-0.029907","0.081348","-0.072974","-0.040674","-0.039478"
"T","1617451908.146768","7","37","10","58","63","33","0.708313","0.190552","-0.679688","-0.000366","0.007634","0","-0.007634","9.431543","2.627051","0.104077","-0.002393","-0.022729","0.069385","-0.061011","-0.038281","-0.007178"
"T","1617451908.136907","7","37","8","62","60","35","0.708252","0.190369","-0.67981","-0.000488","0.007634","0","-0.007634","9.45188","2.648584","0.101685","0.016748","0","0.069385","-0.0646","-0.022729","0.015552"
"T","1617451908.1268656","7","37","10","63","59","34","0.708252","0.190308","-0.67981","-0.000549","-0.007634","-0.007634","0","9.431543","2.678491","0.093311","-0.002393","0.028711","0.061011","-0.065796","0.010767","0.004785"
"T","1617451908.1168118","7","36","10","63","59","33","0.708252","0.19043","-0.67981","-0.000549","-0.015267","-0.007634","0","9.420776","2.710791","0.082544","-0.013159","0.059814","0.050244","-0.0646","0.044263","0.003589"
"T","1617451908.1068258","7","36","10","62","60","33","0.708252","0.190613","-0.679749","-0.000366","-0.022901","-0.007634","0","9.421972","2.752661","0.098096","-0.011963","0.101685","0.065796","-0.089722","0.078955","0.015552"
"T","1617451908.0969973","7","38","8","56","59","33","0.708191","0.190796","-0.679749","-0.000122","-0.015267","-0.007634","-0.007634","9.411206","2.737109","0.094507","-0.022729","0.086133","0.063403","-0.084937","0.068188","0.001196"
"T","1617451908.0867498","7","33","9","60","59","36","0.70813","0.190735","-0.67981","0.000122","0","0","-0.007634","9.421972","2.665332","0.076563","-0.013159","0.019141","0.047852","-0.05144","0.007178","-0.007178"
"T","1617451908.0769792","7","35","8","61","58","36","0.70813","0.190613","-0.679871","0.000183","0.007634","0","-0.015267","9.425562","2.594751","0.066992","-0.010767","-0.047852","0.038281","-0.025122","-0.05144","-0.022729"
"T","1617451908.0668442","7","35","10","61","58","35","0.708069","0.190369","-0.679993","0.000183","0.007634","0","-0.015267","9.415991","2.543311","0.066992","-0.021533","-0.095703","0.039478","-0.014355","-0.093311","-0.045459"
"T","1617451908.056997","7","37","9","61","57","35","0.708008","0.190125","-0.680115","0.000183","0.007634","0","-0.015267","9.392065","2.515796","0.059814","-0.045459","-0.119629","0.033496","-0.003589","-0.107666","-0.075366"
"T","1617451908.046814","7","35","9","63","59","36","0.708008","0.190002","-0.680176","0.000183","-0.007634","0","-0.015267","9.362158","2.513403","0.059814","-0.076563","-0.119629","0.034692","-0.007178","-0.100488","-0.105273"
"T","1617451908.036923","7","36","10","63","76","33","0.707947","0.189941","-0.680237","0.000244","-0.015267","0","-0.015267","9.327466","2.53374","0.072974","-0.111255","-0.098096","0.049048","-0.029907","-0.075366","-0.132788"
"T","1617451908.026918","7","37","10","62","57","37","0.707886","0.190002","-0.680298","0.000427","-0.015267","0","-0.007634","9.317896","2.554077","0.099292","-0.122021","-0.075366","0.077759","-0.063403","-0.058618","-0.137573"
"T","1617451908.0168128","7","33","10","62","58","36","0.707764","0.190125","-0.680359","0.00061","-0.015267","0","-0.007634","9.31311","2.551685","0.102881","-0.126807","-0.076563","0.08374","-0.069385","-0.059814","-0.142358"
"T","1617451908.0069797","7","36","10","63","58","35","0.707642","0.190186","-0.680542","0.000732","-0.015267","0.007634","-0.007634","9.284399","2.548096","0.096899","-0.156714","-0.078955","0.082544","-0.069385","-0.055029","-0.171069"
"T","1617451907.9968483","7","38","10","62","58","32","0.707458","0.190247","-0.680664","0.000854","-0.007634","0.007634","-0.007634","9.260473","2.558862","0.065796","-0.18064","-0.066992","0.055029","-0.047852","-0.029907","-0.191406"
"T","1617451907.9868104","7","38","11","61","59","33","0.707275","0.190186","-0.680908","0.000854","0","0.015267","-0.007634","9.264063","2.537329","0.016748","-0.178247","-0.087329","0.011963","-0.001196","-0.038281","-0.194995"
"T","1617451907.976853","7","37","10","62","60","35","0.707031","0.190125","-0.681152","0.000732","0","0.015267","0","9.289185","2.516992","-0.021533","-0.151929","-0.107666","-0.019141","0.034692","-0.055029","-0.174658"
"T","1617451907.9667416","7","37","9","61","60","35","0.706787","0.190125","-0.681396","0.000549","0","0.015267","0","9.278418","2.52417","-0.053833","-0.162695","-0.101685","-0.044263","0.057422","-0.039478","-0.183032"
"T","1617451907.956834","7","40","9","61","59","35","0.706604","0.190186","-0.68158","0.000427","-0.007634","0.015267","0","9.27124","2.540918","-0.070581","-0.168677","-0.087329","-0.056226","0.0646","-0.021533","-0.185425"
"T","1617451907.9468892","7","37","9","63","62","36","0.706421","0.190369","-0.681702","0.000366","-0.015267","0.007634","0","9.255689","2.570825","-0.072974","-0.184229","-0.059814","-0.053833","0.053833","0.005981","-0.192603"
"T","1617451907.9368503","7","37","10","63","63","35","0.706299","0.190613","-0.681763","0.000427","-0.022901","0","0","9.243726","2.583984","-0.070581","-0.194995","-0.047852","-0.047852","0.044263","0.017944","-0.19978"
"T","1617451907.9272926","7","37","10","60","58","33","0.706238","0.190857","-0.681763","0.000549","-0.015267","0","0","9.264063","2.580395","-0.062207","-0.174658","-0.053833","-0.037085","0.037085","0.004785","-0.181836"
"T","1617451907.917237","7","37","10","62","58","35","0.706116","0.190979","-0.681824","0.000671","-0.007634","0","-0.007634","9.299952","2.551685","-0.052637","-0.13877","-0.081348","-0.025122","0.034692","-0.0323","-0.154321"
"T","1617451907.90718","7","38","10","62","58","35","0.706055","0.190979","-0.681885","0.000732","0","0","-0.007634","9.33584","2.503833","-0.052637","-0.102881","-0.129199","-0.023926","0.049048","-0.086133","-0.132788"
"T","1617451907.8970685","7","35","10","62","57","37","0.706055","0.190857","-0.681946","0.000732","0","0","-0.007634","9.353785","2.466748","-0.035889","-0.086133","-0.163892","-0.005981","0.04187","-0.126807","-0.126807"
"T","1617451907.886896","7","36","13","62","60","35","0.706116","0.190796","-0.681946","0.000671","0","-0.007634","-0.007634","9.339429","2.471533","-0.023926","-0.100488","-0.159106","0.003589","0.029907","-0.122021","-0.13877"
"T","1617451907.8771365","7","36","9","62","58","33","0.706116","0.190735","-0.681885","0.000671","-0.007634","-0.007634","-0.007634","9.334643","2.49187","-0.005981","-0.104077","-0.13877","0.020337","0.008374","-0.10647","-0.136377"
"T","1617451907.866941","7","37","10","63","60","37","0.706177","0.190796","-0.681824","0.000671","-0.007634","-0.007634","-0.007634","9.337036","2.521777","0.022729","-0.101685","-0.110059","0.047852","-0.023926","-0.088525","-0.126807"
"T","1617451907.857008","7","38","9","61","62","36","0.706238","0.190796","-0.681763","0.000732","-0.007634","-0.015267","0","9.316699","2.542114","0.038281","-0.122021","-0.088525","0.061011","-0.043066","-0.065796","-0.141162"
"T","1617451907.846952","7","36","10","63","60","33","0.706299","0.190918","-0.681641","0.000732","-0.015267","-0.015267","0.007634","9.291577","2.561255","0.05144","-0.147144","-0.071777","0.072974","-0.061011","-0.047852","-0.160303"
"T","1617451907.8368118","7","36","9","62","59","34","0.706421","0.191223","-0.681458","0.000732","-0.015267","-0.015267","0.007634","9.273633","2.627051","0.069385","-0.163892","-0.010767","0.087329","-0.092114","0.008374","-0.160303"
"T","1617451907.8268304","7","36","10","61","60","33","0.706482","0.191406","-0.681335","0.000854","-0.007634","-0.015267","0","9.276026","2.659351","0.058618","-0.161499","0.020337","0.075366","-0.088525","0.039478","-0.149536"
"T","1617451907.3678162","7","33","8","61","58","33","0.705811","0.192078","-0.681824","0.00061","0.015267","0.007634","-0.007634","9.411206","2.540918","-0.052637","-0.022729","-0.107666","-0.016748","0.04187","-0.088525","-0.050244"
"T","1617451907.3580153","7","36","9","62","62","33","0.705811","0.191895","-0.681885","0.000427","0.007634","0","-0.007634","9.417188","2.544507","-0.033496","-0.016748","-0.104077","0.001196","0.023926","-0.092114","-0.043066"
"T","1617451907.3476577","7","37","9","61","57","32","0.705811","0.191833","-0.681946","0.000244","0","-0.007634","0","9.394458","2.570825","-0.023926","-0.039478","-0.078955","0.011963","0.005981","-0.065796","-0.058618"
"T","1617451907.3376887","7","33","10","62","59","32","0.705872","0.191895","-0.681885","0.000122","-0.007634","-0.007634","0","9.362158","2.612695","-0.003589","-0.071777","-0.039478","0.029907","-0.022729","-0.025122","-0.078955"
"T","1617451907.327706","7","34","9","61","60","33","0.705933","0.192078","-0.681763","0.000122","-0.015267","-0.015267","0","9.333447","2.661743","0.019141","-0.099292","0.004785","0.05144","-0.057422","0.015552","-0.093311"
"T","1617451907.3176105","7","37","9","60","59","35","0.705994","0.192322","-0.68158","0.000244","-0.015267","-0.015267","0","9.301147","2.692847","0.040674","-0.130396","0.034692","0.070581","-0.086133","0.046655","-0.11604"
"T","1617451907.308036","7","35","10","60","59","39","0.706116","0.192444","-0.681458","0.000427","-0.007634","-0.015267","0","9.273633","2.697632","0.046655","-0.159106","0.039478","0.07417","-0.092114","0.057422","-0.142358"
"T","1617451907.3038816","7","38","9","60","62","33","0.706177","0.192444","-0.681335","0.000488","0","-0.007634","-0.007634","9.277222","2.670117","0.034692","-0.154321","0.011963","0.059814","-0.070581","0.034692","-0.144751"
"T","1617451907.287805","7","35","8","63","59","33","0.706238","0.192383","-0.681335","0.000488","0.007634","-0.007634","-0.007634","9.307129","2.636621","0.023926","-0.12561","-0.019141","0.047852","-0.049048","0.001196","-0.12561"
"T","1617451907.2777658","7","30","10","63","57","33","0.706299","0.192261","-0.681274","0.000427","0.007634","-0.007634","0","9.323877","2.631836","0.011963","-0.108862","-0.023926","0.033496","-0.033496","-0.002393","-0.111255"
"T","1617451907.2679138","7","38","10","61","59","35","0.70636","0.192139","-0.681274","0.000305","0.007634","-0.007634","0","9.341822","2.624658","0.007178","-0.090918","-0.031104","0.027515","-0.023926","-0.011963","-0.095703"
"T","1617451907.2578287","7","35","9","62","62","35","0.706421","0.192078","-0.681213","0.000244","0","-0.007634","0","9.346606","2.619873","0.011963","-0.086133","-0.035889","0.029907","-0.025122","-0.017944","-0.092114"
"T","1617451907.24799","7","36","10","62","58","39","0.706482","0.192078","-0.681152","0.000183","0","-0.007634","0","9.35498","2.616284","0.014355","-0.076563","-0.040674","0.031104","-0.023926","-0.025122","-0.08374"
"T","1617451907.2379627","7","35","10","60","27","34","0.706482","0.192017","-0.681152","0.000244","-0.007634","-0.007634","-0.007634","9.364551","2.59834","0.020337","-0.068188","-0.056226","0.037085","-0.025122","-0.044263","-0.080151"
"T","1617451907.227913","7","36","8","61","58","35","0.706482","0.192017","-0.681152","0.000305","0","-0.007634","-0.007634","9.382495","2.569629","0.019141","-0.050244","-0.084937","0.035889","-0.015552","-0.07417","-0.070581"
"T","1617451907.2177668","7","36","10","63","58","37","0.706543","0.191956","-0.681152","0.000305","0","-0.007634","-0.007634","9.386084","2.542114","0.010767","-0.046655","-0.111255","0.026318","0","-0.096899","-0.07417"
"T","1617451907.2078505","7","37","11","62","59","36","0.706543","0.191895","-0.681152","0.000305","0","-0.007634","-0.007634","9.381299","2.539722","0.00957","-0.05144","-0.112451","0.025122","0.001196","-0.096899","-0.078955"
"T","1617451907.198109","7","34","9","63","58","36","0.706543","0.191833","-0.681152","0.000305","0","-0.007634","-0.007634","9.366943","2.543311","0","-0.065796","-0.108862","0.014355","0.00957","-0.087329","-0.092114"
"T","1617451907.1879702","7","37","9","61","59","37","0.706604","0.191833","-0.681152","0.000244","0","-0.007634","0","9.368139","2.548096","-0.005981","-0.065796","-0.105273","0.008374","0.014355","-0.082544","-0.090918"
"T","1617451907.1778708","7","35","8","60","59","36","0.706604","0.191895","-0.681091","0.000122","-0.007634","-0.007634","0","9.356176","2.581592","-0.013159","-0.076563","-0.07417","0","0.013159","-0.047852","-0.093311"
"T","1617451907.16798","7","37","9","63","62","35","0.706665","0.192017","-0.68103","0.000061","-0.007634","-0.007634","0.007634","9.350195","2.617481","-0.011963","-0.082544","-0.040674","0","0.003589","-0.015552","-0.089722"
"T","1617451907.157894","7","37","10","62","61","35","0.706665","0.1922","-0.680908","0.000061","-0.015267","-0.015267","0.007634","9.346606","2.660547","-0.005981","-0.08374","0","0.004785","-0.00957","0.020337","-0.080151"
"T","1617451907.1479824","7","33","10","61","60","34","0.706726","0.192505","-0.680786","0.000061","-0.015267","-0.015267","0.007634","9.343018","2.695239","-0.001196","-0.087329","0.028711","0.008374","-0.021533","0.046655","-0.075366"
"T","1617451907.1380672","7","38","9","62","61","33","0.706848","0.192688","-0.680603","0.000183","-0.007634","-0.015267","0","9.341822","2.69165","-0.005981","-0.087329","0.023926","0","-0.011963","0.044263","-0.076563"
"T","1617451907.127925","7","36","9","62","60","39","0.70697","0.192749","-0.680481","0.000244","0","-0.007634","-0.007634","9.370532","2.64021","-0.005981","-0.058618","-0.026318","-0.001196","0.003589","-0.008374","-0.063403"
"T","1617451907.117958","7","35","9","62","61","37","0.707031","0.192627","-0.68042","0.000244","0.007634","-0.007634","-0.007634","9.407618","2.59834","0.004785","-0.021533","-0.066992","0.005981","0.00957","-0.057422","-0.038281"
"T","1617451907.1079528","7","37","8","61","62","36","0.707092","0.192444","-0.68042","0.000183","0.007634","-0.007634","-0.007634","9.414795","2.581592","0.029907","-0.015552","-0.082544","0.029907","-0.007178","-0.080151","-0.037085"
"T","1617451907.0978863","7","36","9","62","59","39","0.707214","0.192322","-0.680298","0.000122","0","-0.015267","-0.007634","9.398046","2.583984","0.07417","-0.031104","-0.080151","0.070581","-0.049048","-0.084937","-0.05144"
"T","1617451907.0879414","7","36","10","61","62","35","0.707397","0.192322","-0.680176","0.000122","-0.007634","-0.022901","0","9.375318","2.615088","0.118433","-0.055029","-0.049048","0.110059","-0.096899","-0.059814","-0.065796"
"T","1617451907.0781324","7","37","9","61","63","33","0.70752","0.192505","-0.679993","0.000244","-0.022901","-0.022901","0","9.353785","2.661743","0.155518","-0.076563","-0.003589","0.143555","-0.142358","-0.021533","-0.07417"
"T","1617451907.067786","7","36","10","58","59","36","0.707642","0.192749","-0.679749","0.000427","-0.022901","-0.022901","0","9.332251","2.697632","0.179443","-0.096899","0.029907","0.163892","-0.172266","0.007178","-0.08374"
"T","1617451907.0586302","7","37","10","62","57","33","0.707764","0.193054","-0.679565","0.000732","-0.022901","-0.022901","0","9.317896","2.689258","0.183032","-0.111255","0.020337","0.163892","-0.171069","0.002393","-0.100488"
"T","1617451907.0479186","7","37","7","60","62","35","0.707825","0.193176","-0.679443","0.000916","-0.015267","-0.015267","-0.007634","9.341822","2.650977","0.168677","-0.087329","-0.016748","0.14834","-0.144751","-0.0323","-0.087329"
"T","1617451907.037868","7","37","10","60","62","36","0.707886","0.193176","-0.679382","0.001099","0","-0.007634","-0.007634","9.368139","2.597144","0.14834","-0.061011","-0.068188","0.12561","-0.10647","-0.081348","-0.076563"
"T","1617451907.0282605","7","37","7","61","61","39","0.707825","0.193054","-0.679504","0.00116","0.007634","0","-0.015267","9.400439","2.534936","0.133984","-0.029907","-0.126807","0.113647","-0.077759","-0.139966","-0.062207"
"T","1617451907.0178945","7","38","7","62","58","36","0.707703","0.19281","-0.679688","0.001099","0.015267","0.007634","-0.015267","9.417188","2.478711","0.114844","-0.014355","-0.18064","0.098096","-0.046655","-0.19021","-0.062207"
"T","1617451907.0080004","7","36","9","62","58","36","0.707581","0.192505","-0.679871","0.000977","0.015267","0.015267","-0.015267","9.426758","2.447608","0.110059","-0.004785","-0.208154","0.095703","-0.037085","-0.216528","-0.059814"
"T","1617451906.9979348","7","38","10","62","61","36","0.707458","0.192383","-0.680115","0.000793","0","0.007634","-0.007634","9.408813","2.461963","0.114844","-0.023926","-0.194995","0.105273","-0.05144","-0.202173","-0.075366"
"T","1617451906.987934","7","36","9","61","60","36","0.707275","0.192566","-0.680176","0.000671","-0.022901","0","0","9.362158","2.551685","0.114844","-0.068188","-0.107666","0.108862","-0.081348","-0.111255","-0.094507"
"T","1617451906.977924","7","35","8","61","60","35","0.707153","0.193054","-0.680176","0.000732","-0.045802","-0.007634","0.007634","9.302343","2.700024","0.126807","-0.126807","0.033496","0.124414","-0.137573","0.029907","-0.112451"
"T","1617451906.967919","7","38","10","63","59","32","0.707031","0.193726","-0.680115","0.000977","-0.038168","-0.007634","0.015267","9.243726","2.808887","0.126807","-0.184229","0.136377","0.128003","-0.172266","0.13877","-0.139966"
"T","1617451906.9580572","7","37","9","62","60","35","0.706848","0.194092","-0.680237","0.001221","-0.007634","0.007634","0.007634","9.24851","2.793335","0.098096","-0.179443","0.119629","0.105273","-0.145947","0.128003","-0.139966"
"T","1617451906.9486454","7","36","9","61","58","38","0.706604","0.194031","-0.680481","0.00116","0.022901","0.022901","0.007634","9.302343","2.671314","0.043066","-0.12561","0","0.056226","-0.062207","0.016748","-0.120825"
"T","1617451906.9379437","7","36","10","61","60","36","0.70636","0.193848","-0.680786","0.000732","0.022901","0.022901","0","9.338232","2.588769","0","-0.089722","-0.084937","0.020337","-0.003589","-0.059814","-0.108862"
"T","1617451906.9286664","7","37","7","61","58","36","0.706177","0.193604","-0.68103","0.000305","0.022901","0.022901","0","9.333447","2.609107","-0.038281","-0.093311","-0.065796","-0.011963","0.021533","-0.0323","-0.107666"
"T","1617451906.9180007","7","33","7","62","58","33","0.705994","0.19342","-0.681274","-0.000122","0.022901","0.015267","0","9.350195","2.609107","-0.059814","-0.075366","-0.068188","-0.028711","0.039478","-0.034692","-0.090918"
"T","1617451906.908678","7","43","9","63","58","33","0.705872","0.193237","-0.681458","-0.000488","0.015267","0.015267","0","9.360962","2.612695","-0.090918","-0.0646","-0.066992","-0.056226","0.066992","-0.028711","-0.080151"
"T","1617451906.898961","7","37","9","62","58","33","0.70575","0.193176","-0.681641","-0.000793","0","0.007634","0","9.381299","2.639014","-0.098096","-0.044263","-0.043066","-0.059814","0.0646","-0.010767","-0.053833"
"T","1617451906.888838","7","35","8","62","59","30","0.705627","0.193237","-0.681702","-0.000977","-0.007634","0.007634","0","9.395655","2.680884","-0.090918","-0.028711","-0.003589","-0.050244","0.046655","0.016748","-0.027515"
"T","1617451906.8787608","7","36","10","61","59","36","0.705566","0.193359","-0.681763","-0.001038","-0.007634","0","0","9.405225","2.70481","-0.068188","-0.017944","0.016748","-0.025122","0.017944","0.026318","-0.011963"
"T","1617451906.8686695","7","36","9","61","60","37","0.705505","0.19342","-0.681824","-0.000977","0","0","-0.007634","9.407618","2.684473","-0.037085","-0.016748","-0.002393","0.007178","-0.007178","0","-0.016748"
"T","1617451906.858741","7","36","8","60","61","33","0.705505","0.193359","-0.681824","-0.000977","0.007634","-0.007634","-0.007634","9.396851","2.63064","-0.019141","-0.027515","-0.055029","0.025122","-0.010767","-0.050244","-0.040674"
"T","1617451906.848812","7","36","9","61","62","32","0.705566","0.193176","-0.681824","-0.001038","0.007634","-0.007634","-0.007634","9.381299","2.59834","0.005981","-0.043066","-0.086133","0.047852","-0.026318","-0.080151","-0.0646"
"T","1617451906.838647","7","37","9","62","59","35","0.705627","0.192993","-0.681824","-0.001099","0.007634","-0.007634","-0.007634","9.370532","2.609107","0.014355","-0.055029","-0.07417","0.055029","-0.037085","-0.068188","-0.072974"
"T","1617451906.8286617","7","37","8","61","57","36","0.705627","0.192871","-0.681824","-0.001221","0.007634","-0.007634","-0.007634","9.359766","2.623462","0.008374","-0.0646","-0.059814","0.049048","-0.035889","-0.05144","-0.077759"
"T","1617451906.8186824","7","37","8","63","60","35","0.705688","0.192749","-0.681763","-0.001343","0.007634","-0.007634","0","9.344213","2.639014","0.007178","-0.080151","-0.044263","0.045459","-0.037085","-0.031104","-0.088525"
"T","1617451906.808668","7","34","10","63","59","33","0.70575","0.192749","-0.681702","-0.001465","-0.007634","-0.007634","0.007634","9.328662","2.68208","0.005981","-0.094507","-0.003589","0.043066","-0.046655","0.00957","-0.090918"
"T","1617451906.7989988","7","37","9","61","60","35","0.705811","0.192932","-0.681641","-0.001526","-0.022901","-0.007634","0.007634","9.319092","2.750268","0.028711","-0.104077","0.059814","0.0646","-0.084937","0.0646","-0.08374"
"T","1617451906.7888937","7","36","8","63","61","37","0.705811","0.193298","-0.681519","-0.001404","-0.022901","-0.007634","0.007634","9.305933","2.804101","0.034692","-0.11604","0.111255","0.069385","-0.104077","0.114844","-0.080151"
"T","1617451906.7787428","7","35","11","62","57","35","0.70575","0.193481","-0.681519","-0.001221","-0.015267","0","-0.007634","9.315503","2.793335","0.027515","-0.10647","0.100488","0.0646","-0.095703","0.102881","-0.07417"
"T","1617451906.7688582","7","37","8","59","59","38","0.705688","0.19342","-0.681641","-0.001038","0","0.007634","-0.007634","9.357373","2.713184","0.004785","-0.065796","0.023926","0.044263","-0.052637","0.027515","-0.056226"
"T","1617451906.758733","7","35","9","59","60","37","0.705566","0.193176","-0.681824","-0.001038","0.007634","0.007634","-0.015267","9.398046","2.627051","-0.005981","-0.026318","-0.057422","0.035889","-0.020337","-0.055029","-0.040674"
"T","1617451906.748711","7","36","10","62","59","33","0.705444","0.192871","-0.682007","-0.001038","0.007634","0.007634","-0.015267","9.390869","2.573218","-0.034692","-0.034692","-0.10647","0.010767","0.014355","-0.092114","-0.062207"
"T","1617451906.7390006","7","36","9","60","62","40","0.705383","0.192688","-0.682129","-0.00116","0.007634","0","-0.015267","9.384888","2.537329","-0.053833","-0.040674","-0.141162","-0.005981","0.039478","-0.117236","-0.076563"
"T","1617451906.728795","7","37","10","60","74","37","0.705383","0.192566","-0.68219","-0.001221","-0.007634","0","-0.007634","9.369336","2.540918","-0.053833","-0.057422","-0.137573","-0.004785","0.035889","-0.110059","-0.092114"
"T","1617451906.7188137","7","36","10","63","60","32","0.705322","0.192627","-0.68219","-0.00116","-0.015267","-0.007634","0","9.34541","2.586377","-0.043066","-0.080151","-0.090918","0.005981","0.011963","-0.063403","-0.101685"
"T","1617451906.7088375","7","36","5","60","60","31","0.705322","0.192871","-0.682129","-0.001038","-0.022901","-0.007634","0","9.331055","2.644995","-0.04187","-0.094507","-0.034692","0.007178","-0.003589","-0.008374","-0.099292"
"T","1617451906.6988475","7","35","9","60","60","35","0.705322","0.193176","-0.682068","-0.000854","-0.015267","-0.007634","0","9.316699","2.679688","-0.028711","-0.108862","-0.001196","0.020337","-0.026318","0.021533","-0.104077"
"T","1617451906.6887274","7","37","9","60","62","33","0.705322","0.193237","-0.682068","-0.000732","0","0","-0.007634","9.314306","2.661743","-0.035889","-0.111255","-0.019141","0.013159","-0.014355","0.007178","-0.111255"
"T","1617451906.6788182","7","35","9","62","59","33","0.705261","0.193176","-0.682129","-0.000671","0.007634","0.007634","-0.007634","9.35498","2.631836","-0.037085","-0.070581","-0.046655","0.013159","-0.004785","-0.027515","-0.080151"
"T","1617451906.668687","7","36","9","62","59","33","0.7052","0.193054","-0.68219","-0.000793","0.007634","0","0","9.38728","2.628247","-0.00957","-0.038281","-0.050244","0.04187","-0.028711","-0.046655","-0.050244"
"T","1617451906.6588197","7","37","9","63","58","37","0.705139","0.192993","-0.682251","-0.000977","0","0","0","9.382495","2.64021","0.005981","-0.04187","-0.039478","0.058618","-0.047852","-0.040674","-0.050244"
