timestamp,user_id,flex_1,flex_2,flex_3,flex_4,flex_5,Qw,Qx,Qy,Qz,GYRx,GYRy,GYRz,ACCx,ACCy,ACCz,ACCx_body,ACCy_body,ACCz_body,ACCx_world,ACCy_world,ACCz_world,Alphabet
1616136268.7070837,1,19.0,7.0,-5.0,-7.0,1.0,0.771362,0.285828,-0.568298,0.018494,-0.007634,-0.007634,-0.007634,8.777173,4.160693,1.714282,0.081348,0.044263,-0.154321,0.145947,0.08374,0.061011,thankyou
1616136268.717181,1,16.0,5.0,-6.0,-2.0,1.0,0.771301,0.285828,-0.568359,0.018372,-0.007634,-0.007634,-0.007634,8.787939,4.165479,1.727441,0.092114,0.049048,-0.13877,0.135181,0.077759,0.075366,thankyou
1616136268.7269197,1,19.0,6.0,-4.0,-2.0,0.0,0.77124,0.285828,-0.568481,0.01825,-0.007634,-0.007634,-0.007634,8.799902,4.158301,1.737012,0.104077,0.040674,-0.126807,0.131592,0.061011,0.084937,thankyou
1616136268.737267,1,19.0,9.0,-1.0,2.0,3.0,0.771179,0.285828,-0.568481,0.018188,-0.007634,-0.007634,-0.007634,8.798706,4.143945,1.745386,0.104077,0.025122,-0.117236,0.129199,0.043066,0.080151,thankyou
1616136268.7471433,1,19.0,7.0,-4.0,3.0,1.0,0.771179,0.285828,-0.568542,0.018127,-0.007634,-0.007634,-0.007634,8.792725,4.135571,1.737012,0.096899,0.016748,-0.12561,0.136377,0.043066,0.068188,thankyou
1616136268.7570798,1,16.0,4.0,-2.0,2.0,3.0,0.771118,0.285828,-0.568604,0.018127,0.0,0.0,-0.007634,8.787939,4.130786,1.739404,0.092114,0.011963,-0.122021,0.133984,0.038281,0.063403,thankyou
1616136268.7672565,1,19.0,9.0,-4.0,-1.0,1.0,0.771057,0.28595,-0.568604,0.018188,0.0,0.0,-0.007634,8.78435,4.140357,1.742993,0.088525,0.021533,-0.11604,0.123218,0.044263,0.0646,thankyou
1616136268.777044,1,18.0,7.0,-4.0,0.0,3.0,0.771057,0.286011,-0.568665,0.018188,0.0,-0.007634,0.0,8.778369,4.157104,1.733423,0.081348,0.037085,-0.124414,0.123218,0.063403,0.063403,thankyou
1616136268.7870784,1,19.0,8.0,-3.0,-2.0,-1.0,0.770996,0.286011,-0.568665,0.018188,-0.007634,-0.007634,0.0,8.780762,4.170264,1.733423,0.084937,0.050244,-0.124414,0.119629,0.07417,0.071777,thankyou
1616136268.7971735,1,20.0,8.0,-4.0,0.0,1.0,0.770935,0.286011,-0.568726,0.018188,-0.007634,-0.007634,0.0,8.773584,4.176245,1.738208,0.077759,0.056226,-0.117236,0.108862,0.077759,0.069385,thankyou
1616136268.8069005,1,17.0,10.0,-2.0,0.0,1.0,0.770935,0.286011,-0.568787,0.018066,-0.007634,-0.007634,-0.007634,8.760425,4.169067,1.739404,0.063403,0.047852,-0.11604,0.105273,0.07417,0.053833,thankyou
1616136268.817222,1,17.0,7.0,-2.0,2.0,-7.0,0.770935,0.28595,-0.568848,0.018005,-0.007634,-0.007634,-0.007634,8.754443,4.14873,1.754956,0.057422,0.027515,-0.099292,0.095703,0.05144,0.043066,thankyou
1616136268.8270402,1,19.0,7.0,-2.0,0.0,6.0,0.770874,0.285889,-0.568909,0.017883,-0.007634,-0.007634,-0.007634,8.75205,4.124804,1.762134,0.055029,0.003589,-0.090918,0.096899,0.027515,0.0323,thankyou
1616136268.837145,1,19.0,8.0,-4.0,-1.0,0.0,0.770874,0.285889,-0.568909,0.017883,-0.007634,-0.007634,-0.007634,8.75205,4.104468,1.768115,0.055029,-0.015552,-0.084937,0.098096,0.00957,0.025122,thankyou
1616136268.847175,1,18.0,5.0,-6.0,2.0,0.0,0.770813,0.285889,-0.569031,0.017883,0.0,-0.007634,-0.007634,8.747266,4.091309,1.768115,0.049048,-0.027515,-0.082544,0.098096,0.0,0.015552,thankyou
1616136268.8570426,1,18.0,7.0,-18.0,0.0,1.0,0.770752,0.28595,-0.569092,0.017883,0.0,-0.007634,-0.007634,8.753247,4.079346,1.769312,0.055029,-0.040674,-0.080151,0.102881,-0.013159,0.015552,thankyou
1616136268.8669174,1,18.0,7.0,-6.0,0.0,4.0,0.77063,0.286011,-0.569153,0.017883,0.0,-0.007634,-0.007634,8.756836,4.082934,1.757349,0.059814,-0.037085,-0.088525,0.110059,-0.007178,0.020337,thankyou
1616136268.876928,1,17.0,8.0,-6.0,-2.0,3.0,0.770508,0.286133,-0.569275,0.017822,0.0,-0.007634,-0.007634,8.768799,4.098486,1.740601,0.070581,-0.022729,-0.101685,0.120825,0.005981,0.033496,thankyou
1616136268.8872335,1,16.0,6.0,-4.0,-4.0,0.0,0.770386,0.286255,-0.569397,0.017761,0.0,-0.007634,-0.007634,8.78435,4.124804,1.719067,0.086133,0.0,-0.119629,0.132788,0.028711,0.053833,thankyou
1616136268.8969414,1,20.0,8.0,-4.0,-2.0,1.0,0.770325,0.286316,-0.569458,0.0177,0.0,-0.007634,-0.007634,8.802295,4.145142,1.707104,0.104077,0.019141,-0.129199,0.141162,0.044263,0.075366,thankyou
1616136268.907104,1,16.0,9.0,-4.0,2.0,0.0,0.770203,0.286438,-0.56958,0.017639,0.0,-0.007634,-0.007634,8.823828,4.153516,1.680786,0.12561,0.026318,-0.151929,0.166284,0.053833,0.093311,thankyou
1616136268.9170237,1,17.0,9.0,-4.0,-1.0,1.0,0.770142,0.286499,-0.569641,0.017639,0.0,0.0,-0.007634,8.845362,4.163086,1.65686,0.147144,0.034692,-0.173462,0.189014,0.0646,0.112451,thankyou
1616136268.9269176,1,18.0,8.0,-6.0,-4.0,1.0,0.77002,0.286621,-0.569641,0.017761,0.007634,0.0,0.0,8.859716,4.173852,1.644897,0.162695,0.045459,-0.183032,0.198584,0.072974,0.129199,thankyou
1616136268.9368937,1,17.0,6.0,-4.0,-1.0,4.0,0.769958,0.286804,-0.569702,0.017944,0.007634,0.0,0.0,8.856128,4.197778,1.632935,0.156714,0.069385,-0.192603,0.196191,0.099292,0.131592,thankyou
1616136268.947121,1,17.0,8.0,-5.0,-2.0,-1.0,0.769958,0.286926,-0.569641,0.018127,0.007634,0.007634,0.0,8.852539,4.227685,1.641309,0.153125,0.099292,-0.184229,0.177051,0.122021,0.142358,thankyou
1616136268.95701,1,19.0,6.0,-2.0,0.0,3.0,0.769958,0.286926,-0.569641,0.01825,0.0,0.007634,0.007634,8.84895,4.251611,1.655664,0.149536,0.124414,-0.169873,0.154321,0.137573,0.153125,thankyou
1616136268.9669964,1,19.0,7.0,-4.0,-2.0,-9.0,0.77002,0.286926,-0.56958,0.018372,-0.007634,0.007634,0.007634,8.846558,4.252808,1.665234,0.145947,0.126807,-0.161499,0.145947,0.136377,0.151929,thankyou
1616136268.977059,1,17.0,5.0,-4.0,-2.0,0.0,0.770142,0.286804,-0.569458,0.018494,-0.007634,0.007634,0.007634,8.833399,4.233667,1.67959,0.132788,0.110059,-0.151929,0.13877,0.122021,0.135181,thankyou
1616136268.9870288,1,17.0,9.0,-5.0,3.0,0.0,0.770264,0.286682,-0.569336,0.018555,-0.007634,0.015267,0.0,8.815454,4.204956,1.695142,0.114844,0.08374,-0.139966,0.131592,0.099292,0.110059,thankyou
1616136268.9968758,1,19.0,6.0,-6.0,2.0,4.0,0.770447,0.286499,-0.569214,0.018677,-0.007634,0.015267,0.0,8.798706,4.17146,1.714282,0.098096,0.052637,-0.12561,0.124414,0.071777,0.084937,thankyou
1616136269.006996,1,17.0,9.0,-5.0,-2.0,5.0,0.770569,0.286377,-0.569092,0.018799,-0.007634,0.007634,0.0,8.769995,4.14873,1.739404,0.069385,0.0323,-0.105273,0.104077,0.055029,0.055029,thankyou
1616136269.0170467,1,17.0,5.0,-6.0,6.0,1.0,0.770691,0.286194,-0.56897,0.018799,-0.015267,0.007634,0.0,8.736499,4.12959,1.762134,0.035889,0.015552,-0.086133,0.081348,0.04187,0.021533,thankyou
1616136269.0268185,1,17.0,7.0,-7.0,2.0,-2.0,0.770813,0.286072,-0.568909,0.018799,-0.015267,0.0,0.0,8.717359,4.100879,1.78606,0.016748,-0.010767,-0.065796,0.065796,0.015552,-0.001196,thankyou
1616136269.0369246,1,19.0,7.0,-6.0,-1.0,1.0,0.770874,0.285889,-0.568848,0.01886,-0.015267,0.0,0.0,8.716162,4.067383,1.799219,0.015552,-0.04187,-0.055029,0.066992,-0.013159,-0.013159,thankyou
1616136269.0470488,1,17.0,5.0,-4.0,-1.0,3.0,0.770935,0.285767,-0.568848,0.018921,-0.007634,0.0,0.0,8.708984,4.036279,1.801611,0.007178,-0.070581,-0.053833,0.072974,-0.035889,-0.0323,thankyou
1616136269.0568929,1,17.0,7.0,-4.0,-39.0,3.0,0.770996,0.285706,-0.568848,0.018982,0.0,0.0,0.0,8.701807,4.012353,1.799219,0.0,-0.093311,-0.058618,0.08374,-0.050244,-0.049048,thankyou
1616136269.0670545,1,16.0,7.0,-5.0,0.0,1.0,0.770996,0.285706,-0.568848,0.019104,0.0,0.0,0.0,8.698217,3.994409,1.796826,-0.004785,-0.108862,-0.061011,0.089722,-0.061011,-0.061011,thankyou
1616136269.0768566,1,19.0,5.0,-3.0,5.0,3.0,0.770935,0.285767,-0.568848,0.019226,0.0,0.0,0.0,8.698217,3.995605,1.79563,-0.004785,-0.107666,-0.061011,0.088525,-0.059814,-0.059814,thankyou
1616136269.086848,1,18.0,10.0,-6.0,1.0,4.0,0.770935,0.285828,-0.568848,0.019348,0.007634,0.0,-0.007634,8.70061,4.002783,1.782471,-0.002393,-0.099292,-0.072974,0.096899,-0.047852,-0.057422,thankyou
1616136269.0969443,1,17.0,9.0,-4.0,3.0,1.0,0.770874,0.28595,-0.568848,0.019409,0.007634,0.0,-0.007634,8.712573,4.014746,1.76333,0.008374,-0.088525,-0.090918,0.112451,-0.033496,-0.046655,thankyou
1616136269.1069632,1,17.0,7.0,-7.0,0.0,4.0,0.770813,0.286072,-0.568909,0.01947,0.007634,0.0,-0.007634,8.734106,4.02312,1.751367,0.028711,-0.081348,-0.100488,0.12561,-0.029907,-0.027515,thankyou
1616136269.116865,1,18.0,7.0,-4.0,0.0,3.0,0.770752,0.286194,-0.568909,0.019592,0.007634,0.0,-0.007634,8.746069,4.029101,1.738208,0.040674,-0.075366,-0.112451,0.137573,-0.022729,-0.015552,thankyou
1616136269.1267428,1,17.0,7.0,-3.0,-2.0,3.0,0.770691,0.286316,-0.568909,0.019775,0.007634,0.0,-0.007634,8.762817,4.038672,1.726245,0.057422,-0.0646,-0.123218,0.149536,-0.013159,0.0,thankyou
1616136269.1367316,1,18.0,8.0,-6.0,1.0,4.0,0.77063,0.286499,-0.568848,0.019897,0.007634,0.0,-0.007634,8.771192,4.044653,1.723853,0.066992,-0.059814,-0.123218,0.150732,-0.011963,0.010767,thankyou
1616136269.146754,1,17.0,8.0,-6.0,-1.0,1.0,0.770569,0.286682,-0.568848,0.020081,0.007634,0.0,-0.007634,8.76521,4.054224,1.723853,0.059814,-0.05144,-0.122021,0.144751,-0.003589,0.008374,thankyou
1616136269.156758,1,20.0,7.0,-3.0,0.0,-1.0,0.770508,0.286865,-0.568848,0.020203,0.007634,0.0,-0.007634,8.766406,4.05542,1.726245,0.061011,-0.05144,-0.117236,0.141162,-0.005981,0.00957,thankyou
1616136269.166857,1,19.0,7.0,-2.0,2.0,1.0,0.770447,0.287048,-0.568848,0.020386,0.007634,0.0,0.0,8.77478,4.048242,1.732227,0.069385,-0.058618,-0.110059,0.139966,-0.017944,0.015552,thankyou
1616136269.1767988,1,17.0,7.0,-2.0,0.0,1.0,0.770386,0.28717,-0.568848,0.02063,0.015267,0.0,0.0,8.78435,4.041064,1.746582,0.077759,-0.0646,-0.093311,0.130396,-0.0323,0.023926,thankyou
1616136269.1869335,1,17.0,7.0,-5.0,-1.0,1.0,0.770325,0.287354,-0.568787,0.020935,0.015267,0.007634,0.0,8.787939,4.031494,1.758545,0.081348,-0.072974,-0.081348,0.124414,-0.046655,0.026318,thankyou
1616136269.196865,1,15.0,5.0,-6.0,-2.0,4.0,0.770264,0.287598,-0.568726,0.02124,0.022901,0.007634,0.0,8.779566,4.024316,1.778882,0.072974,-0.080151,-0.058618,0.104077,-0.059814,0.019141,thankyou
1616136269.206911,1,18.0,9.0,-3.0,4.0,0.0,0.770264,0.287842,-0.568665,0.021545,0.015267,0.0,0.0,8.762817,4.030298,1.802808,0.055029,-0.07417,-0.034692,0.075366,-0.061011,0.010767,thankyou
1616136269.2168305,1,18.0,9.0,-4.0,2.0,3.0,0.770264,0.288025,-0.568604,0.021729,0.015267,0.0,0.0,8.758032,4.021924,1.829126,0.050244,-0.08374,-0.008374,0.055029,-0.080151,0.007178,thankyou
1616136269.2269087,1,17.0,5.0,-1.0,2.0,4.0,0.770203,0.288086,-0.568542,0.021912,0.007634,0.0,0.0,8.748462,4.00398,1.844678,0.04187,-0.100488,0.007178,0.044263,-0.099292,-0.002393,thankyou
1616136269.236842,1,17.0,7.0,-3.0,-1.0,1.0,0.770203,0.288208,-0.568542,0.022095,0.007634,0.0,0.0,8.748462,3.98125,1.867407,0.040674,-0.123218,0.029907,0.0323,-0.128003,-0.00957,thankyou
1616136269.2469308,1,16.0,6.0,-4.0,2.0,1.0,0.770203,0.288269,-0.568481,0.022339,0.007634,0.0,0.0,8.744873,3.950146,1.899707,0.035889,-0.151929,0.062207,0.013159,-0.165088,-0.019141,thankyou
1616136269.256934,1,18.0,7.0,-5.0,-2.0,1.0,0.770203,0.288391,-0.568359,0.022583,0.015267,0.0,0.0,8.738892,3.946558,1.936792,0.031104,-0.154321,0.098096,-0.016748,-0.183032,-0.017944,thankyou
1616136269.2669806,1,19.0,7.0,-2.0,3.0,5.0,0.770264,0.288574,-0.568237,0.022766,0.015267,0.007634,-0.007634,8.725733,3.976465,2.007373,0.017944,-0.12561,0.16748,-0.092114,-0.187817,-0.004785,thankyou
1616136269.2767968,1,19.0,10.0,-2.0,3.0,3.0,0.770447,0.288696,-0.567932,0.022888,0.0,0.007634,-0.007634,8.711377,4.054224,2.121021,0.004785,-0.050244,0.276343,-0.217725,-0.172266,0.034692,thankyou
1616136269.2868557,1,42.0,7.0,-3.0,-2.0,0.0,0.770691,0.288574,-0.567566,0.022705,-0.015267,0.007634,-0.007634,8.688647,4.147534,2.255005,-0.013159,0.040674,0.401953,-0.364868,-0.150732,0.081348,thankyou
1616136269.2969334,1,17.0,10.0,-1.0,-1.0,4.0,0.77124,0.288208,-0.567139,0.022278,-0.045802,0.007634,-0.015267,8.646777,4.210938,2.445215,-0.05144,0.101685,0.576611,-0.551489,-0.171069,0.10647,thankyou
1616136269.3070974,1,1.0,8.0,-3.0,1.0,3.0,0.771973,0.287476,-0.566467,0.021667,-0.068702,0.015267,-0.015267,8.505615,4.140357,2.722754,-0.186621,0.031104,0.831421,-0.794336,-0.308643,0.007178,thankyou
1616136269.3169177,1,17.0,6.0,-2.0,3.0,-1.0,0.773132,0.286377,-0.565491,0.021118,-0.068702,0.030534,-0.015267,8.230469,3.744385,3.198877,-0.456982,-0.360083,1.274048,-1.134082,-0.762036,-0.305054,thankyou
1616136269.326884,1,15.0,8.0,-3.0,3.0,-11.0,0.77478,0.284973,-0.563904,0.021301,-0.038168,0.061069,-0.007634,7.943359,2.987134,4.08772,-0.73811,-1.104175,2.11145,-1.695142,-1.693945,-0.689062,thankyou
1616136269.336847,1,18.0,7.0,-4.0,0.0,5.0,0.777283,0.283386,-0.561218,0.022644,0.022901,0.114504,-0.007634,7.702905,1.976269,5.573511,-0.972583,-2.091113,3.520679,-2.646191,-3.117529,-0.991724,thankyou
1616136269.346918,1,17.0,5.0,-4.0,0.0,4.0,0.780884,0.281921,-0.556885,0.024902,0.083969,0.175573,-0.030534,7.318896,1.010864,7.722046,-1.34104,-3.031396,5.557959,-4.192993,-4.777978,-1.208252,thankyou
1616136269.35691,1,16.0,5.0,-4.0,2.0,0.0,0.786072,0.280151,-0.550293,0.026489,0.045802,0.206107,-0.114504,6.567627,0.30625,10.588354,-2.055225,-3.724048,8.262769,-6.529346,-6.465942,-1.379321,thankyou
1616136269.3668013,1,17.0,5.0,-4.0,0.0,0.0,0.792114,0.278381,-0.542603,0.024414,-0.083969,0.091603,-0.29771,4.771997,-0.126807,12.977344,-3.785058,-4.188208,10.466333,-8.978149,-7.428955,-2.360278,thankyou
1616136269.3768756,1,17.0,7.0,-4.0,-1.0,3.0,0.796692,0.277161,-0.536804,0.015747,-0.267176,-0.251908,-0.572519,2.209546,-0.50603,14.733496,-6.257788,-4.66792,12.087305,-11.374316,-7.785449,-4.126001,thankyou
1616136269.386918,1,17.0,7.0,-6.0,-1.0,1.0,0.798157,0.276062,-0.5354,-0.000305,-0.450382,-0.748092,-0.824427,-0.26438,-0.947461,15.71565,-8.638403,-5.268457,13.027588,-13.266846,-7.643091,-6.132178,thankyou
1616136269.396921,1,19.0,8.0,-3.0,-1.0,1.0,0.795044,0.274536,-0.540405,-0.022217,-0.580153,-1.290076,-0.954198,-2.173657,-1.406836,15.624731,-10.474707,-5.919238,13.025195,-14.149707,-6.915747,-8.144336,thankyou
1616136269.4069145,1,17.0,7.0,-6.0,10.0,4.0,0.786072,0.272705,-0.552612,-0.047607,-0.603053,-1.80916,-0.984733,-3.329273,-1.726245,14.398535,-11.588452,-6.443213,12.041845,-13.77168,-5.623755,-9.972265,thankyou
1616136269.416815,1,16.0,5.0,-6.0,0.0,1.0,0.770447,0.272034,-0.571777,-0.073792,-0.442748,-2.244275,-0.961832,-3.6104,-1.967896,12.290674,-11.850439,-6.902588,10.349096,-12.14353,-4.23606,-11.389868,thankyou
1616136269.4268334,1,17.0,9.0,-4.0,2.0,3.0,0.748901,0.273987,-0.59552,-0.097046,-0.099237,-2.450382,-0.89313,-3.012256,-1.984644,9.772486,-11.231958,-7.138257,8.394361,-9.694727,-3.107959,-11.995191,thankyou
1616136269.4368756,1,17.0,9.0,-2.0,-1.0,5.0,0.722961,0.28009,-0.620911,-0.11554,0.305344,-2.442748,-0.80916,-1.977466,-0.821851,6.897803,-10.140943,-6.196777,6.190796,-6.889429,-1.455884,-11.400635,thankyou
1616136269.4470606,1,19.0,9.0,-4.0,0.0,4.0,0.695129,0.290283,-0.644653,-0.13031,0.541985,-2.21374,-0.763359,-0.460571,1.826733,4.098486,-8.502027,-3.774292,4.094897,-4.397559,0.746484,-9.132471,thankyou
1616136269.456866,1,19.0,3.0,-11.0,2.0,4.0,0.669189,0.302551,-0.663208,-0.144165,0.496183,-1.801527,-0.793893,1.156811,5.755347,1.253711,-6.686059,-0.086133,1.868603,-2.329175,3.506323,-5.519678,thankyou
1616136269.4669735,1,19.0,9.0,-4.0,-1.0,0.0,0.6474,0.314697,-0.675415,-0.160095,0.183206,-1.335878,-0.877863,2.428467,9.426758,-1.99541,-5.153613,3.313721,-0.912769,-0.017944,5.920434,-1.819556,thankyou
1616136269.4767845,1,20.0,9.0,-3.0,2.0,-1.0,0.630371,0.324463,-0.682251,-0.17865,-0.244275,-0.946565,-0.931298,3.428565,12.12439,-5.476611,-3.864014,5.72544,-4.090112,2.726343,7.411011,1.440332,thankyou
1616136269.486912,1,17.0,8.0,-4.0,0.0,-1.0,0.616821,0.330566,-0.686035,-0.198914,-0.59542,-0.748092,-0.847328,4.117627,14.028882,-9.08462,-2.886646,7.357178,-7.51748,5.877368,8.198169,4.146338,thankyou
1616136269.496845,1,19.0,8.0,-6.0,-1.0,3.0,0.605042,0.332275,-0.690125,-0.217468,-0.717557,-0.70229,-0.557252,4.629639,14.434423,-11.874365,-2.137769,7.552173,-10.175634,8.591748,7.74956,5.590259,thankyou
1616136269.5070095,1,17.0,4.0,-1.0,-1.0,1.0,0.594604,0.3302,-0.695862,-0.230652,-0.59542,-0.648855,-0.244275,5.191895,13.844653,-13.923609,-1.42478,6.849951,-12.095678,10.688843,6.538916,6.182422,thankyou
1616136269.5168226,1,17.0,5.0,-3.0,0.0,1.0,0.584595,0.328186,-0.70282,-0.237915,-0.305344,-0.557252,-0.10687,5.874976,12.833789,-15.42854,-0.647192,5.796021,-13.435522,12.142334,5.031592,6.462354,thankyou
1616136269.5268004,1,17.0,5.0,-4.0,3.0,-2.0,0.574646,0.328918,-0.709961,-0.239929,0.030534,-0.419847,-0.10687,6.51499,11.886328,-16.19895,0.0646,4.842578,-13.998975,12.697412,3.710889,6.664526,thankyou
1616136269.5368495,1,17.0,8.0,-3.0,2.0,1.0,0.565369,0.332397,-0.716248,-0.238342,0.274809,-0.29771,-0.10687,7.017432,11.25708,-16.154688,0.632837,4.227685,-13.733398,12.336133,2.813672,6.836792,thankyou
1616136269.546805,1,19.0,8.0,-4.0,-1.0,4.0,0.557495,0.336853,-0.721497,-0.234802,0.374046,-0.198473,-0.068702,7.432544,10.960401,-15.306519,1.098193,3.95852,-12.678271,11.15061,2.268164,6.936084,thankyou
1616136269.5568566,1,19.0,7.0,-2.0,3.0,4.0,0.551514,0.341064,-0.725403,-0.230896,0.351145,-0.122137,-0.045802,7.647876,10.789331,-13.970263,1.349414,3.818555,-11.175733,9.570312,1.971484,6.767407,thankyou
1616136269.566813,1,17.0,8.0,-4.0,0.0,-1.0,0.547302,0.344421,-0.727905,-0.227905,0.259542,-0.061069,-0.038168,7.626343,10.646973,-12.506006,1.355396,3.700122,-9.595434,7.997192,1.853052,6.339136,thankyou
1616136269.576169,1,17.0,9.0,-2.0,3.0,1.0,0.544678,0.346802,-0.729248,-0.226501,0.122137,-0.030534,-0.045802,7.479199,10.459155,-10.999878,1.233374,3.518286,-8.018725,6.512598,1.76333,5.715869,thankyou
1616136269.586855,1,16.0,10.0,-1.0,2.0,4.0,0.543396,0.348083,-0.729492,-0.226807,-0.015267,-0.015267,-0.053435,7.269849,10.18042,-9.582275,1.046753,3.22998,-6.577197,5.233765,1.636523,4.971777,thankyou
1616136269.596243,1,19.0,8.0,-3.0,-2.0,5.0,0.54303,0.348267,-0.729126,-0.228516,-0.122137,-0.007634,-0.061069,7.023413,9.8,-8.365649,0.821851,2.826831,-5.367749,4.232471,1.465454,4.172656,thankyou
1616136269.606321,1,16.0,7.0,-2.0,-1.0,1.0,0.543091,0.347778,-0.728455,-0.231201,-0.183206,-0.015267,-0.061069,6.781763,9.320288,-7.352393,0.60293,2.317212,-4.380811,3.476416,1.230981,3.363965,thankyou
1616136269.6161995,1,17.0,8.0,-4.0,0.0,5.0,0.543274,0.346924,-0.727783,-0.234131,-0.206107,-0.030534,-0.068702,6.590356,8.789136,-6.52815,0.43186,1.754956,-3.586475,2.905786,0.94148,2.606714,thankyou
1616136269.6261125,1,20.0,7.0,-2.0,3.0,1.0,0.543335,0.346069,-0.727295,-0.236816,-0.175573,-0.038168,-0.061069,6.442017,8.253199,-5.913257,0.302661,1.191504,-2.9979,2.515796,0.636426,1.939185,thankyou
1616136269.6361122,1,17.0,8.0,-2.0,-2.0,-1.0,0.54303,0.345459,-0.727234,-0.238647,-0.114504,-0.045802,-0.045802,6.351099,7.773486,-5.47063,0.226099,0.693848,-2.56604,2.241846,0.34812,1.402051,thankyou
1616136269.6459472,1,19.0,9.0,-2.0,6.0,1.0,0.542358,0.345215,-0.7276,-0.239441,-0.038168,-0.045802,-0.030534,6.306836,7.445703,-5.124902,0.191406,0.361279,-2.213135,1.990625,0.144751,1.037183,thankyou
1616136269.65619,1,15.0,8.0,-2.0,-2.0,4.0,0.541382,0.345459,-0.728271,-0.239197,0.038168,-0.045802,-0.015267,6.286499,7.305737,-4.862915,0.178247,0.224902,-1.928418,1.752563,0.058618,0.850561,thankyou
1616136269.666201,1,22.0,8.0,-2.0,-3.0,3.0,0.540283,0.34613,-0.729065,-0.238342,0.083969,-0.030534,0.0,6.294873,7.348804,-4.618872,0.19021,0.277539,-1.652075,1.471436,0.077759,0.818262,thankyou
1616136269.6759915,1,16.0,7.0,-4.0,-1.0,1.0,0.539307,0.347046,-0.729736,-0.237061,0.10687,-0.015267,0.007634,6.334351,7.493555,-4.387988,0.23208,0.434253,-1.390088,1.172363,0.142358,0.881665,thankyou
1616136269.686173,1,12.0,7.0,-3.0,-1.0,1.0,0.538574,0.348022,-0.730286,-0.235657,0.114504,0.007634,0.007634,6.358276,7.645483,-4.192993,0.256006,0.598145,-1.165186,0.90918,0.227295,0.948657,thankyou
1616136269.6960237,1,17.0,7.0,-5.0,0.0,2.0,0.538147,0.348999,-0.730591,-0.234314,0.099237,0.015267,0.007634,6.360669,7.824927,-4.005176,0.257202,0.788355,-0.955835,0.657959,0.344531,1.022827,thankyou
1616136269.7060556,1,15.0,6.0,-5.0,3.0,3.0,0.537964,0.349731,-0.730591,-0.233459,0.061069,0.022901,0.0,6.366651,7.985229,-3.816162,0.263184,0.953442,-0.756055,0.423486,0.441431,1.083838,thankyou
1616136269.71608,1,17.0,7.0,-3.0,-1.0,1.0,0.538147,0.35022,-0.730286,-0.233154,0.015267,0.030534,-0.007634,6.381006,8.055811,-3.624756,0.277539,1.024023,-0.567041,0.22251,0.470142,1.083838,thankyou
1616136269.72604,1,12.0,6.0,-2.0,-2.0,0.0,0.538635,0.350464,-0.729736,-0.233582,-0.038168,0.030534,-0.022901,6.384595,8.07854,-3.476416,0.284717,1.037183,-0.43186,0.090918,0.467749,1.056323,thankyou
1616136269.736164,1,17.0,7.0,-3.0,2.0,3.0,0.539307,0.350464,-0.728882,-0.23468,-0.083969,0.030534,-0.045802,6.38938,8.071362,-3.349609,0.29668,1.013257,-0.328979,0.0,0.437842,1.014453,thankyou
1616136269.7459514,1,17.0,8.0,-5.0,-1.0,0.0,0.540222,0.350159,-0.727722,-0.236511,-0.137405,0.022901,-0.053435,6.443213,8.055811,-3.207251,0.360083,0.973779,-0.223706,-0.095703,0.35769,0.994116,thankyou
1616136269.7559626,1,13.0,6.0,-4.0,-1.0,0.0,0.541443,0.349548,-0.726379,-0.238892,-0.183206,0.030534,-0.068702,6.503027,8.019922,-3.112744,0.430664,0.90918,-0.175854,-0.131592,0.258398,0.978564,thankyou
1616136269.7660744,1,17.0,6.0,-6.0,-2.0,3.0,0.542664,0.348816,-0.724854,-0.241638,-0.198473,0.030534,-0.083969,6.542505,7.893115,-3.098389,0.484497,0.748877,-0.214136,-0.058618,0.112451,0.907983,thankyou
1616136269.7760365,1,19.0,8.0,-2.0,-4.0,3.0,0.543762,0.348206,-0.72345,-0.244324,-0.19084,0.022901,-0.091603,6.568823,7.725635,-3.137866,0.525171,0.549097,-0.302661,0.070581,-0.045459,0.81228,thankyou
1616136269.7860715,1,17.0,9.0,-7.0,-1.0,5.0,0.544617,0.347778,-0.72229,-0.246582,-0.152672,0.022901,-0.083969,6.595141,7.55935,-3.195288,0.565845,0.355298,-0.399561,0.205762,-0.200977,0.722559,thankyou
1616136269.795948,1,16.0,8.0,-4.0,-3.0,1.0,0.545105,0.347595,-0.721436,-0.248047,-0.099237,0.015267,-0.061069,6.622656,7.394263,-3.239551,0.604126,0.172266,-0.468945,0.309839,-0.346924,0.630444,thankyou
1616136269.805913,1,18.0,7.0,-4.0,0.0,1.0,0.545349,0.347595,-0.721069,-0.248596,-0.038168,0.015267,-0.038168,6.625049,7.302148,-3.280225,0.611304,0.072974,-0.520386,0.381616,-0.415112,0.575415,thankyou
1616136269.8160942,1,16.0,4.0,-3.0,-1.0,4.0,0.545288,0.347961,-0.721069,-0.248291,0.022901,0.007634,-0.015267,6.614282,7.30813,-3.268262,0.600537,0.080151,-0.503638,0.366064,-0.401953,0.569434,thankyou
1616136269.826053,1,16.0,5.0,-3.0,2.0,4.0,0.545105,0.348389,-0.721252,-0.247437,0.061069,0.007634,0.007634,6.580786,7.430151,-3.213233,0.563452,0.209351,-0.436646,0.277539,-0.291895,0.623267,thankyou
1616136269.835886,1,17.0,8.0,-4.0,-3.0,0.0,0.5448,0.348816,-0.721619,-0.246521,0.068702,-0.007634,0.022901,6.516187,7.586865,-3.151025,0.495264,0.374438,-0.358887,0.174658,-0.135181,0.681885,thankyou
1616136269.8462005,1,15.0,8.0,-4.0,0.0,-4.0,0.544495,0.348999,-0.722046,-0.245667,0.053435,-0.015267,0.030534,6.474317,7.724439,-3.084033,0.448608,0.522778,-0.277539,0.068188,-0.005981,0.739307,thankyou
1616136269.856099,1,17.0,10.0,-3.0,-1.0,1.0,0.544312,0.348816,-0.722473,-0.245117,0.022901,-0.022901,0.038168,6.469531,7.812964,-3.001489,0.436646,0.619678,-0.185425,-0.040674,0.062207,0.776392,thankyou
1616136269.8659525,1,16.0,6.0,-2.0,-1.0,3.0,0.544312,0.348328,-0.722778,-0.244934,-0.007634,-0.022901,0.030534,6.468335,7.83689,-2.938086,0.429468,0.650781,-0.120825,-0.108862,0.086133,0.776392,thankyou
1616136269.8760128,1,19.0,3.0,-2.0,-2.0,1.0,0.544434,0.347717,-0.7229,-0.245056,-0.030534,-0.015267,0.030534,6.470727,7.811768,-2.886646,0.425879,0.628052,-0.072974,-0.14834,0.07417,0.742895,thankyou
1616136269.886112,1,19.0,8.0,-4.0,4.0,3.0,0.544739,0.346985,-0.7229,-0.245361,-0.053435,-0.015267,0.022901,6.474317,7.744775,-2.873486,0.423486,0.563452,-0.069385,-0.135181,0.034692,0.693848,thankyou
1616136269.89585,1,19.0,7.0,-6.0,3.0,3.0,0.545105,0.346252,-0.722839,-0.245789,-0.053435,-0.007634,0.015267,6.486279,7.611987,-2.899805,0.430664,0.429468,-0.107666,-0.066992,-0.053833,0.611304,thankyou
1616136269.9059277,1,16.0,9.0,-3.0,0.0,3.0,0.545471,0.345642,-0.722778,-0.246033,-0.045802,0.0,0.015267,6.498242,7.454077,-2.945264,0.436646,0.272754,-0.163892,0.021533,-0.156714,0.515601,thankyou
1616136269.9159582,1,17.0,5.0,-4.0,-1.0,-3.0,0.545776,0.345215,-0.722778,-0.245972,-0.022901,0.007634,0.015267,6.479102,7.333252,-3.01106,0.411523,0.155518,-0.234473,0.119629,-0.210547,0.434253,thankyou
1616136269.9258125,1,16.0,7.0,-3.0,-1.0,-1.0,0.545959,0.345032,-0.7229,-0.245605,0.0,0.015267,0.007634,6.444409,7.269849,-3.079248,0.369653,0.096899,-0.302661,0.205762,-0.214136,0.385205,thankyou
1616136269.9358945,1,16.0,7.0,-4.0,0.0,0.0,0.546021,0.345093,-0.722961,-0.245117,0.015267,0.015267,0.015267,6.396558,7.278223,-3.125903,0.317017,0.111255,-0.346924,0.253613,-0.162695,0.375635,thankyou
1616136269.9459662,1,16.0,6.0,-3.0,3.0,0.0,0.546021,0.345154,-0.723145,-0.244629,0.015267,0.007634,0.015267,6.346313,7.311719,-3.162988,0.261987,0.149536,-0.378027,0.283521,-0.095703,0.379224,thankyou
1616136269.9557889,1,16.0,9.0,-2.0,-2.0,1.0,0.546021,0.345154,-0.723328,-0.24408,0.015267,0.007634,0.022901,6.309228,7.334448,-3.200073,0.218921,0.179443,-0.410327,0.314624,-0.04187,0.382812,thankyou
1616136269.966037,1,17.0,8.0,-1.0,-2.0,5.0,0.546021,0.345093,-0.723511,-0.24353,0.015267,0.007634,0.022901,6.278125,7.359571,-3.231177,0.181836,0.211743,-0.436646,0.33855,0.007178,0.391187,thankyou
1616136269.9758174,1,16.0,6.0,-3.0,-3.0,1.0,0.546021,0.344971,-0.723694,-0.243042,0.007634,0.007634,0.022901,6.25061,7.381104,-3.232373,0.14834,0.24165,-0.433057,0.333765,0.052637,0.391187,thankyou
1616136269.9857876,1,15.0,4.0,-3.0,-4.0,4.0,0.546082,0.344788,-0.723877,-0.242737,0.0,0.0,0.022901,6.223096,7.413404,-3.226392,0.114844,0.278735,-0.425879,0.322998,0.101685,0.395972,thankyou
1616136269.9959035,1,19.0,8.0,-3.0,4.0,4.0,0.546082,0.344543,-0.723999,-0.242554,-0.015267,0.0,0.022901,6.202759,7.425366,-3.222803,0.090918,0.295483,-0.421094,0.318213,0.131592,0.391187,thankyou
1616136270.0059233,1,17.0,5.0,-4.0,-2.0,4.0,0.546143,0.344238,-0.724182,-0.242554,-0.022901,-0.007634,0.022901,6.190796,7.401441,-3.231177,0.075366,0.272754,-0.429468,0.334961,0.128003,0.367261,thankyou
1616136270.0157878,1,17.0,9.0,-3.0,2.0,5.0,0.546204,0.343811,-0.724365,-0.242554,-0.022901,-0.007634,0.022901,6.202759,7.351196,-3.223999,0.081348,0.226099,-0.423486,0.33855,0.093311,0.336157,thankyou
1616136270.0258594,1,17.0,7.0,30.0,-1.0,3.0,0.546204,0.343384,-0.724548,-0.242432,-0.015267,-0.007634,0.022901,6.227881,7.263867,-3.215625,0.101685,0.144751,-0.413916,0.345728,0.025122,0.285913,thankyou
1616136270.0359554,1,16.0,5.0,-3.0,3.0,4.0,0.546265,0.343018,-0.724792,-0.242188,-0.007634,0.0,0.022901,6.262573,7.171753,-3.21084,0.130396,0.058618,-0.407935,0.354102,-0.05144,0.240454,thankyou
1616136270.0458777,1,17.0,8.0,-4.0,0.0,1.0,0.546326,0.342834,-0.724976,-0.241699,0.007634,0.0,0.015267,6.286499,7.123901,-3.203662,0.147144,0.017944,-0.398364,0.351709,-0.089722,0.218921,thankyou
1616136270.0558894,1,19.0,7.0,-3.0,0.0,0.0,0.546387,0.342773,-0.725098,-0.241211,0.015267,0.007634,0.015267,6.312818,7.128686,-3.161792,0.16748,0.028711,-0.352905,0.302661,-0.099292,0.226099,thankyou
1616136270.0658534,1,18.0,6.0,-3.0,2.0,-1.0,0.54657,0.342834,-0.725098,-0.240784,0.007634,0.015267,0.007634,6.321191,7.168164,-3.10437,0.171069,0.072974,-0.295483,0.236865,-0.07417,0.244043,thankyou
1616136270.0759368,1,17.0,5.0,-3.0,-1.0,-1.0,0.546753,0.342957,-0.724976,-0.24054,0.0,0.015267,0.0,6.293677,7.221997,-3.064893,0.141162,0.128003,-0.257202,0.192603,-0.016748,0.25481,thankyou
1616136270.0858555,1,19.0,9.0,-2.0,3.0,0.0,0.546997,0.343018,-0.724731,-0.240601,-0.015267,0.015267,-0.007634,6.270947,7.267456,-3.037378,0.118433,0.171069,-0.235669,0.165088,0.026318,0.26438,thankyou
1616136270.0958514,1,16.0,7.0,-4.0,-1.0,2.0,0.547302,0.342957,-0.724487,-0.240784,-0.030534,0.015267,-0.007634,6.264966,7.29856,-3.01106,0.111255,0.19978,-0.217725,0.143555,0.050244,0.276343,thankyou
1616136270.1058087,1,17.0,7.0,-5.0,0.0,1.0,0.547546,0.342773,-0.724243,-0.24115,-0.038168,0.007634,-0.007634,6.27334,7.330859,-2.98833,0.120825,0.228491,-0.203369,0.120825,0.061011,0.299072,thankyou
1616136270.1159773,1,17.0,7.0,-3.0,3.0,3.0,0.547852,0.342529,-0.723938,-0.241699,-0.045802,0.007634,-0.015267,6.286499,7.366748,-2.962012,0.135181,0.258398,-0.189014,0.098096,0.069385,0.325391,thankyou
1616136270.1257813,1,0.0,8.0,-3.0,-1.0,-1.0,0.548218,0.342224,-0.723572,-0.242432,-0.061069,0.0,-0.015267,6.303247,7.400244,-2.938086,0.154321,0.284717,-0.18064,0.082544,0.070581,0.354102,thankyou
1616136270.1358542,1,17.0,6.0,-5.0,-3.0,-4.0,0.548523,0.341858,-0.723267,-0.243225,-0.068702,0.0,-0.015267,6.325976,7.372729,-2.940479,0.179443,0.248828,-0.196191,0.101685,0.028711,0.34812,thankyou
1616136270.1460605,1,16.0,7.0,-2.0,-1.0,1.0,0.548767,0.34137,-0.723083,-0.243835,-0.053435,-0.007634,-0.007634,6.34751,7.288989,-2.981152,0.200977,0.161499,-0.248828,0.168677,-0.04187,0.312231,thankyou
1616136270.1560128,1,18.0,9.0,-3.0,-1.0,3.0,0.548828,0.341064,-0.723145,-0.24408,-0.022901,-0.007634,0.0,6.371436,7.195679,-3.023022,0.223706,0.066992,-0.293091,0.228491,-0.119629,0.270361,thankyou
1616136270.1658645,1,16.0,7.0,-5.0,2.0,0.0,0.548706,0.341003,-0.723328,-0.243774,0.007634,-0.007634,0.007634,6.397754,7.168164,-3.055322,0.247632,0.044263,-0.320605,0.256006,-0.151929,0.276343,thankyou
1616136270.1759164,1,16.0,7.0,-2.0,0.0,1.0,0.548523,0.341187,-0.723572,-0.243286,0.030534,0.0,0.007634,6.410913,7.219604,-3.069678,0.258398,0.100488,-0.326587,0.247632,-0.123218,0.326587,thankyou
1616136270.185839,1,13.0,8.0,-4.0,0.0,4.0,0.548279,0.34137,-0.723816,-0.242676,0.038168,-0.007634,0.007634,6.418091,7.312915,-3.066089,0.263184,0.200977,-0.312231,0.209351,-0.062207,0.398364,thankyou
1616136270.195797,1,16.0,7.0,-4.0,-3.0,2.0,0.548157,0.341492,-0.72406,-0.242188,0.022901,-0.007634,0.015267,6.436035,7.396655,-3.049341,0.277539,0.289502,-0.287109,0.162695,-0.015552,0.46416,thankyou
1616136275.5289493,1,18.0,9.0,-2.0,-2.0,-2.0,0.765442,0.284729,-0.5755,0.042053,-0.007634,0.0,-0.007634,8.884839,3.751563,1.659253,0.015552,-0.045459,-0.058618,0.072974,-0.013159,-0.013159,thankyou
1616136275.539121,1,19.0,5.0,-5.0,-1.0,-2.0,0.765442,0.284668,-0.5755,0.042053,-0.007634,0.0,-0.007634,8.889624,3.743188,1.667627,0.020337,-0.052637,-0.05144,0.070581,-0.023926,-0.010767,thankyou
1616136275.5489738,1,17.0,7.0,-5.0,-2.0,0.0,0.765503,0.284729,-0.5755,0.042053,0.0,0.0,-0.007634,8.903979,3.751563,1.676001,0.033496,-0.045459,-0.043066,0.065796,-0.025122,0.004785,thankyou
1616136275.5592358,1,17.0,7.0,-4.0,-2.0,-1.0,0.765503,0.284729,-0.575439,0.042053,0.0,0.0,-0.007634,8.908765,3.768311,1.683179,0.039478,-0.028711,-0.037085,0.056226,-0.015552,0.017944,thankyou
1616136275.568936,1,17.0,7.0,-4.0,-2.0,1.0,0.765564,0.28479,-0.575317,0.042053,0.0,0.0,-0.007634,8.908765,3.795825,1.695142,0.040674,-0.002393,-0.026318,0.037085,0.0,0.031104,thankyou
1616136275.5792,1,16.0,6.0,-4.0,0.0,0.0,0.765625,0.28479,-0.575256,0.042053,-0.007634,0.0,-0.007634,8.896802,3.812573,1.709497,0.028711,0.011963,-0.014355,0.016748,0.008374,0.027515,thankyou
1616136275.5891,1,18.0,7.0,-2.0,4.0,-1.0,0.765747,0.284729,-0.575134,0.041931,-0.015267,0.0,-0.007634,8.88125,3.828125,1.720264,0.014355,0.026318,-0.007178,0.0,0.021533,0.021533,thankyou
1616136275.5989249,1,19.0,7.0,-2.0,-2.0,-3.0,0.765808,0.284668,-0.575134,0.04187,-0.015267,0.0,0.0,8.863306,3.824536,1.732227,-0.002393,0.022729,0.002393,-0.010767,0.017944,0.005981,thankyou
1616136275.6090307,1,17.0,10.0,-2.0,0.0,-1.0,0.765869,0.284546,-0.575134,0.041809,-0.007634,0.0,0.0,8.863306,3.803003,1.735815,-0.002393,0.002393,0.004785,-0.004785,0.0,0.0,thankyou
1616136275.6190872,1,16.0,8.0,-3.0,2.0,1.0,0.765869,0.284485,-0.575134,0.04187,-0.007634,0.0,0.0,8.860913,3.768311,1.727441,-0.004785,-0.029907,-0.002393,0.011963,-0.021533,-0.015552,thankyou
1616136275.6290953,1,17.0,9.0,-4.0,-3.0,3.0,0.765869,0.284424,-0.575134,0.041992,0.0,0.0,0.0,8.863306,3.741992,1.722656,-0.003589,-0.053833,-0.008374,0.026318,-0.039478,-0.025122,thankyou
1616136275.638986,1,16.0,5.0,-6.0,-2.0,1.0,0.765808,0.284485,-0.575134,0.042175,0.007634,0.0,0.0,8.866895,3.740796,1.717871,0.0,-0.053833,-0.011963,0.031104,-0.038281,-0.022729,thankyou
1616136275.6490874,1,17.0,8.0,-4.0,-3.0,1.0,0.765747,0.284607,-0.575134,0.042297,0.007634,0.0,0.0,8.868091,3.740796,1.717871,0.0,-0.053833,-0.00957,0.028711,-0.039478,-0.021533,thankyou
1616136275.6589484,1,1.0,7.0,-3.0,2.0,1.0,0.765747,0.284607,-0.575195,0.042419,0.0,-0.007634,0.0,8.872876,3.741992,1.717871,0.002393,-0.050244,-0.00957,0.028711,-0.037085,-0.017944,thankyou
1616136275.668994,1,17.0,8.0,-6.0,-4.0,0.0,0.765686,0.284607,-0.575195,0.042542,0.0,0.0,0.0,8.878858,3.736011,1.692749,0.008374,-0.055029,-0.033496,0.052637,-0.031104,-0.019141,thankyou
1616136275.6788993,1,17.0,8.0,-4.0,-3.0,5.0,0.765686,0.284607,-0.575256,0.042664,0.0,0.0,0.0,8.888428,3.725244,1.676001,0.016748,-0.0646,-0.050244,0.072974,-0.033496,-0.017944,thankyou
1616136275.688934,1,17.0,7.0,-4.0,-2.0,3.0,0.765625,0.284546,-0.575256,0.042786,0.0,0.0,0.0,8.903979,3.709692,1.662842,0.0323,-0.077759,-0.062207,0.094507,-0.043066,-0.010767,thankyou
1616136275.6991568,1,17.0,8.0,-6.0,3.0,1.0,0.765625,0.284546,-0.575317,0.042847,0.0,0.0,0.0,8.913549,3.690552,1.646094,0.040674,-0.095703,-0.078955,0.118433,-0.05144,-0.013159,thankyou
1616136275.7089305,1,3.0,8.0,-2.0,0.0,-1.0,0.765625,0.284607,-0.575317,0.042969,0.0,0.0,-0.007634,8.933887,3.683374,1.635327,0.059814,-0.102881,-0.089722,0.136377,-0.057422,-0.001196,thankyou
1616136275.7189288,1,17.0,7.0,-4.0,0.0,-4.0,0.765564,0.284729,-0.575317,0.043091,0.007634,0.0,-0.007634,8.949438,3.686963,1.631738,0.075366,-0.099292,-0.090918,0.141162,-0.057422,0.013159,thankyou
1616136275.7290883,1,19.0,6.0,-7.0,-1.0,3.0,0.765564,0.284851,-0.575256,0.043213,0.007634,0.0,-0.007634,8.961401,3.714478,1.641309,0.087329,-0.071777,-0.081348,0.126807,-0.043066,0.035889,thankyou
1616136275.739106,1,15.0,5.0,-6.0,-2.0,4.0,0.765564,0.285034,-0.575134,0.043335,0.007634,0.007634,-0.007634,8.960205,3.744385,1.654468,0.087329,-0.043066,-0.069385,0.105273,-0.023926,0.049048,thankyou
1616136275.7491758,1,17.0,6.0,-5.0,-4.0,0.0,0.765625,0.285156,-0.575012,0.043396,0.0,0.007634,-0.007634,8.959009,3.774292,1.674805,0.087329,-0.015552,-0.050244,0.077759,-0.010767,0.063403,thankyou
1616136275.7590158,1,19.0,8.0,-4.0,-4.0,-2.0,0.765686,0.285217,-0.57489,0.043457,0.0,0.007634,-0.007634,8.957812,3.794629,1.691553,0.086133,0.003589,-0.035889,0.057422,-0.001196,0.072974,thankyou
1616136275.769112,1,17.0,6.0,-4.0,0.0,0.0,0.765747,0.285339,-0.574707,0.043518,0.0,0.007634,-0.007634,8.944654,3.810181,1.71189,0.075366,0.016748,-0.017944,0.033496,0.002393,0.070581,thankyou
1616136275.7789135,1,15.0,5.0,-4.0,-2.0,1.0,0.765869,0.2854,-0.574524,0.04364,0.0,0.007634,-0.007634,8.933887,3.822144,1.734619,0.0646,0.028711,0.0,0.00957,0.005981,0.069385,thankyou
1616136275.7882717,1,17.0,9.0,-4.0,-1.0,4.0,0.76593,0.285522,-0.574341,0.043701,0.0,0.007634,0.0,8.917139,3.837695,1.760937,0.050244,0.043066,0.023926,-0.020337,0.010767,0.065796,thankyou
1616136275.7990031,1,17.0,8.0,-5.0,-1.0,1.0,0.765991,0.285583,-0.574219,0.043823,0.0,0.0,0.0,8.897998,3.841284,1.7729,0.031104,0.046655,0.033496,-0.035889,0.014355,0.05144,thankyou
1616136275.8082378,1,19.0,8.0,-4.0,-2.0,3.0,0.766052,0.285645,-0.574158,0.043945,0.0,0.0,0.0,8.884839,3.83291,1.78606,0.017944,0.038281,0.045459,-0.047852,0.004785,0.038281,thankyou
1616136275.8181698,1,17.0,10.0,-2.0,-1.0,1.0,0.766052,0.285706,-0.574036,0.044006,0.0,0.0,0.0,8.876465,3.82334,1.788452,0.010767,0.027515,0.046655,-0.046655,-0.002393,0.027515,thankyou
1616136275.829039,1,19.0,6.0,-4.0,-1.0,0.0,0.766113,0.285767,-0.573975,0.044189,0.007634,0.0,0.0,8.872876,3.805396,1.784863,0.005981,0.010767,0.04187,-0.037085,-0.011963,0.016748,thankyou
1616136275.838861,1,15.0,7.0,-10.0,0.0,3.0,0.766113,0.285767,-0.573914,0.044373,0.007634,0.0,0.0,8.864502,3.779077,1.769312,-0.001196,-0.011963,0.025122,-0.016748,-0.021533,-0.001196,thankyou
1616136275.848942,1,15.0,9.0,-3.0,0.0,-1.0,0.766113,0.285889,-0.573914,0.044617,0.007634,0.0,0.0,8.854932,3.768311,1.75376,-0.011963,-0.021533,0.010767,-0.003589,-0.019141,-0.016748,thankyou
1616136275.8589156,1,17.0,7.0,-3.0,-4.0,1.0,0.766113,0.28595,-0.573853,0.044861,0.007634,0.007634,0.0,8.859716,3.752759,1.745386,-0.008374,-0.035889,0.001196,0.00957,-0.027515,-0.020337,thankyou
1616136275.868852,1,13.0,7.0,-6.0,-2.0,1.0,0.766113,0.286072,-0.573792,0.045166,0.007634,0.007634,0.0,8.869287,3.740796,1.738208,0.0,-0.046655,-0.004785,0.021533,-0.035889,-0.017944,thankyou
1616136275.8788314,1,17.0,7.0,-6.0,-2.0,1.0,0.766113,0.286133,-0.573669,0.04541,0.007634,0.007634,0.0,8.876465,3.722852,1.727441,0.007178,-0.062207,-0.016748,0.040674,-0.044263,-0.020337,thankyou
1616136275.8883934,1,16.0,5.0,-2.0,-2.0,0.0,0.766113,0.286194,-0.573608,0.045654,0.007634,0.007634,0.0,8.890821,3.691748,1.740601,0.020337,-0.092114,-0.003589,0.045459,-0.078955,-0.016748,thankyou
1616136275.8985305,1,17.0,8.0,-4.0,-4.0,0.0,0.766174,0.286255,-0.573486,0.045898,0.007634,0.007634,0.0,8.905176,3.661841,1.758545,0.034692,-0.120825,0.010767,0.050244,-0.113647,-0.013159,thankyou
1616136275.9081037,1,18.0,0.0,-5.0,-1.0,1.0,0.766296,0.286316,-0.573303,0.046204,0.007634,0.015267,0.0,8.907568,3.641504,1.790845,0.037085,-0.13877,0.039478,0.033496,-0.143555,-0.011963,thankyou
1616136275.91832,1,16.0,6.0,-5.0,-1.0,-1.0,0.766418,0.286377,-0.573059,0.046448,0.007634,0.015267,0.0,8.893213,3.628345,1.838696,0.023926,-0.150732,0.082544,-0.001196,-0.171069,-0.021533,thankyou
1616136275.9283392,1,17.0,7.0,-4.0,4.0,1.0,0.766541,0.286438,-0.572815,0.046631,0.007634,0.007634,-0.007634,8.876465,3.627148,1.904492,0.008374,-0.151929,0.143555,-0.058618,-0.198584,-0.025122,thankyou
1616136275.938161,1,17.0,9.0,-5.0,0.0,1.0,0.766785,0.286377,-0.57251,0.046753,0.0,0.007634,-0.007634,8.866895,3.643897,1.997803,0.0,-0.135181,0.229687,-0.141162,-0.224902,-0.00957,thankyou
1616136275.9482386,1,17.0,7.0,-6.0,0.0,-28.0,0.76709,0.286255,-0.572205,0.046814,-0.007634,0.007634,-0.007634,8.84895,3.659448,2.104272,-0.016748,-0.118433,0.327783,-0.236865,-0.25481,-0.001196,thankyou
1616136275.9589062,1,16.0,8.0,-2.0,0.0,0.0,0.767456,0.286072,-0.571838,0.046753,-0.015267,0.007634,-0.007634,8.825025,3.694141,2.257397,-0.038281,-0.084937,0.470142,-0.379224,-0.291895,0.017944,thankyou
1616136275.9681244,1,19.0,6.0,-6.0,-1.0,0.0,0.768005,0.285706,-0.571289,0.046509,-0.030534,0.015267,-0.015267,8.790332,3.7073,2.519385,-0.069385,-0.071777,0.715381,-0.60293,-0.393579,0.040674,thankyou
1616136275.978171,1,17.0,7.0,-3.0,2.0,1.0,0.768921,0.285095,-0.570374,0.046265,-0.038168,0.038168,-0.015267,8.747266,3.619971,3.029004,-0.10647,-0.159106,1.197485,-0.991724,-0.692651,0.065796,thankyou
1616136275.988259,1,17.0,10.0,-5.0,0.0,1.0,0.77063,0.284058,-0.568542,0.046265,-0.038168,0.083969,-0.015267,8.6719,3.389087,3.915454,-0.172266,-0.385205,2.032495,-1.635327,-1.274048,0.086133,thankyou
1616136275.998898,1,17.0,5.0,-5.0,4.0,-2.0,0.773376,0.282837,-0.565369,0.046997,0.0,0.145038,-0.022901,8.524755,3.002686,5.266065,-0.305054,-0.763232,3.299365,-2.605518,-2.180835,0.093311,thankyou
1616136276.0082903,1,19.0,9.0,-4.0,-1.0,1.0,0.777039,0.281982,-0.560608,0.048462,0.061069,0.206107,-0.038168,8.181421,2.588769,6.955225,-0.623267,-1.172363,4.873682,-3.881958,-3.22998,0.023926,thankyou
1616136276.018263,1,16.0,5.0,-6.0,-1.0,2.0,0.781494,0.281494,-0.554504,0.050049,0.091603,0.229008,-0.076336,7.577295,2.083935,8.827417,-1.191504,-1.683179,6.607104,-5.335449,-4.402344,-0.216528,thankyou
1616136276.028397,1,17.0,9.0,-7.0,-1.0,-1.0,0.786194,0.281433,-0.547729,0.050964,0.114504,0.183206,-0.152672,6.65376,1.538428,10.804883,-2.067188,-2.25022,8.437427,-6.965991,-5.614184,-0.671118,thankyou
1616136276.0389912,1,17.0,6.0,-6.0,-2.0,0.0,0.790527,0.281921,-0.541321,0.050049,0.091603,0.045802,-0.259542,5.300757,0.978564,12.498828,-3.362769,-2.857934,9.999781,-8.552271,-6.627441,-1.542017,thankyou
1616136276.0482576,1,15.0,9.0,-5.0,2.0,1.0,0.793457,0.28302,-0.536804,0.045959,0.038168,-0.206107,-0.389313,3.690552,0.47373,13.71665,-4.911963,-3.444116,11.135058,-9.957911,-7.293775,-2.755054,thankyou
1616136276.0582657,1,18.0,9.0,-6.0,-2.0,0.0,0.794006,0.284485,-0.535889,0.038086,-0.045802,-0.549618,-0.496183,2.031299,-0.00957,14.420069,-6.519775,-4.036279,11.834888,-11.095581,-7.607202,-4.225293,thankyou
1616136276.0688958,1,16.0,8.0,-2.0,2.0,4.0,0.791504,0.285767,-0.53949,0.026367,-0.152672,-0.946565,-0.572519,0.571826,-0.356494,14.622241,-7.944556,-4.51001,12.127978,-11.903076,-7.479199,-5.730225,thankyou
1616136276.07827,1,15.0,8.0,-6.0,0.0,0.0,0.785461,0.286987,-0.548218,0.011169,-0.21374,-1.335878,-0.641221,-0.522778,-0.667529,14.142529,-9.024805,-4.9646,11.84685,-12.074145,-6.949243,-7.232764,thankyou
1616136276.0889945,1,18.0,8.0,-4.0,-2.0,0.0,0.775452,0.288818,-0.561401,-0.006409,-0.198473,-1.648855,-0.70229,-1.144849,-0.864917,12.985718,-9.640894,-5.324683,10.997485,-11.504712,-6.0604,-8.551074,thankyou
1616136276.0991352,1,17.0,9.0,-6.0,-5.0,0.0,0.761658,0.29248,-0.577637,-0.025146,-0.099237,-1.847328,-0.763359,-1.258496,-0.707007,11.303736,-9.736597,-5.356982,9.719849,-10.316797,-4.818652,-9.395655,thankyou
1616136276.1089406,1,16.0,9.0,-4.0,-2.0,1.0,0.74469,0.29834,-0.595337,-0.04425,0.0,-1.923664,-0.80916,-0.988135,0.245239,9.109741,-9.418384,-4.624854,8.000781,-8.6719,-2.950049,-9.496142,thankyou
1616136276.1183238,1,17.0,7.0,-6.0,-4.0,-1.0,0.725464,0.306335,-0.612976,-0.064209,0.030534,-1.900763,-0.862595,-0.544312,2.198779,6.193189,-8.874072,-2.927319,5.59624,-6.501831,-0.240454,-8.734106,thankyou
1616136276.1290045,1,16.0,7.0,-4.0,-1.0,0.0,0.705078,0.315552,-0.629272,-0.085632,-0.045802,-1.770992,-0.923664,0.218921,4.738501,2.915356,-7.946948,-0.678296,2.826831,-4.009961,2.628247,-6.971972,thankyou
1616136276.1382036,1,12.0,8.0,-4.0,-3.0,-1.0,0.685425,0.324219,-0.642883,-0.108337,-0.21374,-1.564885,-0.954198,1.172363,7.495947,-0.748877,-6.775781,1.774097,-0.386401,-1.123315,5.307935,-4.44541,thankyou
1616136276.1489155,1,17.0,6.0,-4.0,-2.0,-2.0,0.666382,0.331604,-0.654663,-0.131958,-0.40458,-1.389313,-0.916031,2.031299,10.012939,-5.055518,-5.66084,3.988428,-4.299463,2.484692,7.58208,-1.660449,thankyou
1616136276.1581163,1,16.0,5.0,-4.0,-3.0,-3.0,0.648193,0.336243,-0.665588,-0.153931,-0.519084,-1.221374,-0.732824,3.166577,11.697314,-8.913549,-4.274341,5.416797,-7.812964,5.921631,8.505615,1.101782,thankyou
1616136276.1681535,1,17.0,8.0,-5.0,-3.0,-4.0,0.632141,0.337769,-0.675903,-0.171692,-0.496183,-1.068702,-0.465649,4.233667,12.601709,-11.747559,-3.003882,6.141748,-10.356275,8.497241,8.420679,3.298169,thankyou
1616136276.1782851,1,16.0,6.0,-4.0,0.0,1.0,0.617371,0.337952,-0.686401,-0.183044,-0.251908,-0.900763,-0.206107,5.384497,12.528735,-13.830297,-1.708301,5.97666,-12.15669,10.400537,7.407422,4.834204,thankyou
1616136276.1884124,1,16.0,5.0,-6.0,-6.0,1.0,0.603882,0.338867,-0.697144,-0.185791,0.152672,-0.679389,0.015267,6.7052,11.962891,-15.360352,-0.312231,5.413208,-13.384082,11.623144,6.024512,6.0927,thankyou
1616136276.198392,1,15.0,7.0,-6.0,-2.0,-3.0,0.591675,0.341858,-0.707397,-0.180603,0.526718,-0.419847,0.175573,7.9625,11.547778,-16.484863,0.968994,5.078247,-14.185596,12.191381,4.9969,7.370337,thankyou
1616136276.2083364,1,15.0,7.0,-6.0,-4.0,1.0,0.581299,0.346375,-0.71637,-0.170166,0.740458,-0.198473,0.282443,8.901587,11.428149,-16.834179,1.893726,5.091406,-14.223877,11.843262,4.51958,8.432642,thankyou
1616136276.2181337,1,17.0,9.0,-4.0,-3.0,-1.0,0.573853,0.350647,-0.722961,-0.158142,0.732824,-0.022901,0.335878,9.467432,11.511889,-16.008739,2.422485,5.327075,-13.153198,10.406519,4.367651,8.933887,thankyou
1616136276.22823,1,17.0,9.0,-4.0,-1.0,1.0,0.569763,0.353516,-0.727051,-0.147583,0.557252,0.076336,0.343511,9.65166,11.501123,-14.423657,2.554077,5.449097,-11.412598,8.503222,4.2552,8.718554,thankyou
1616136276.2381194,1,16.0,5.0,-6.0,-1.0,0.0,0.568481,0.354309,-0.729187,-0.140076,0.29771,0.122137,0.29771,9.516479,11.149414,-12.515576,2.363867,5.199072,-9.432739,6.654956,3.964502,7.847656,thankyou
1616136276.2481174,1,15.0,7.0,-6.0,-1.0,3.0,0.569153,0.35321,-0.729919,-0.136108,0.053435,0.122137,0.229008,9.235352,10.389771,-10.558447,2.034888,4.501636,-7.469629,5.091406,3.365161,6.552075,thankyou
1616136276.258148,1,16.0,7.0,-6.0,3.0,0.0,0.570984,0.350769,-0.729919,-0.134888,-0.122137,0.091603,0.152672,8.915942,9.296362,-8.748462,1.673608,3.440527,-5.694336,3.881958,2.513403,5.066284,thankyou
1616136276.2680197,1,14.0,7.0,-10.0,-1.0,1.0,0.572998,0.347839,-0.729614,-0.135498,-0.206107,0.053435,0.083969,8.610888,8.051025,-7.223193,1.339844,2.205957,-4.216919,3.009863,1.549194,3.602026,thankyou
1616136276.2782557,1,18.0,9.0,-4.0,-3.0,0.0,0.574768,0.34491,-0.729309,-0.13678,-0.21374,0.015267,0.045802,8.359668,6.873877,-6.016138,1.068286,1.032398,-3.057715,2.386597,0.6448,2.332764,thankyou
1616136276.2880378,1,15.0,8.0,-2.0,-3.0,0.0,0.57605,0.342468,-0.729309,-0.138,-0.175573,-0.007634,0.022901,8.134766,5.890527,-5.110547,0.826636,0.050244,-2.186816,1.942773,-0.084937,1.297974,thankyou
1616136276.298281,1,18.0,4.0,-6.0,-3.0,-3.0,0.576599,0.340759,-0.729492,-0.138672,-0.10687,-0.022901,0.007634,7.911059,5.202661,-4.462158,0.592163,-0.630444,-1.555176,1.606616,-0.551489,0.527563,thankyou
1616136276.308047,1,17.0,9.0,-5.0,3.0,0.0,0.576599,0.339905,-0.729919,-0.138733,-0.030534,-0.030534,0.0,7.668213,4.864111,-4.068579,0.343335,-0.961816,-1.161597,1.374536,-0.707007,0.028711,thankyou
1616136276.3181112,1,16.0,7.0,-3.0,-4.0,-1.0,0.575989,0.339844,-0.730469,-0.138367,0.022901,-0.038168,0.0,7.431348,4.834204,-3.844873,0.105273,-0.98335,-0.922339,1.18313,-0.6125,-0.229687,thankyou
1616136276.3281946,1,16.0,6.0,-6.0,-2.0,-1.0,0.575073,0.340271,-0.731079,-0.137939,0.045802,-0.045802,-0.007634,7.236352,5.03877,-3.703711,-0.08374,-0.772803,-0.758447,0.979761,-0.364868,-0.291895,thankyou
1616136276.3383725,1,22.0,7.0,-1.0,-4.0,-3.0,0.574219,0.34082,-0.731567,-0.137756,0.038168,-0.038168,-0.007634,7.070068,5.368945,-3.616382,-0.242847,-0.441431,-0.649585,0.782373,-0.038281,-0.245239,thankyou
1616136276.3482263,1,13.0,7.0,-4.0,-3.0,-1.0,0.573547,0.341309,-0.73175,-0.138184,0.0,-0.030534,-0.022901,6.925317,5.737402,-3.537427,-0.375635,-0.080151,-0.558667,0.58977,0.294287,-0.156714,thankyou
1616136276.358271,1,16.0,8.0,-4.0,-2.0,-1.0,0.57312,0.341675,-0.731628,-0.139526,-0.053435,-0.030534,-0.045802,6.818848,6.049634,-3.468042,-0.46416,0.210547,-0.48689,0.433057,0.550293,-0.070581,thankyou
1616136276.368364,1,16.0,8.0,-4.0,0.0,-1.0,0.573181,0.341736,-0.73114,-0.141663,-0.114504,-0.015267,-0.068702,6.782959,6.335547,-3.37832,-0.480908,0.465356,-0.410327,0.278735,0.730933,0.045459,thankyou
1616136276.3780942,1,17.0,7.0,-5.0,-2.0,0.0,0.573669,0.341492,-0.730286,-0.144714,-0.175573,-0.007634,-0.091603,6.78894,6.511401,-3.319702,-0.453394,0.599341,-0.38042,0.205762,0.803906,0.139966,thankyou
1616136276.388156,1,14.0,5.0,-4.0,-4.0,1.0,0.574463,0.340942,-0.729248,-0.148315,-0.221374,-0.007634,-0.099237,6.818848,6.499438,-3.318506,-0.400757,0.539526,-0.416309,0.257202,0.730933,0.155518,thankyou
1616136276.3982582,1,18.0,8.0,-4.0,-1.0,-1.0,0.575073,0.340149,-0.728394,-0.151794,-0.221374,-0.015267,-0.099237,6.852344,6.318799,-3.402246,-0.344531,0.317017,-0.534741,0.437842,0.550293,0.096899,thankyou
1616136276.4081447,1,17.0,8.0,-4.0,-2.0,-3.0,0.575439,0.339355,-0.727844,-0.154785,-0.183206,-0.022901,-0.083969,6.943262,6.055615,-3.482398,-0.235669,0.019141,-0.641211,0.623267,0.277539,0.023926,thankyou
1616136276.4182246,1,15.0,8.0,-3.0,-4.0,-4.0,0.5755,0.338806,-0.7276,-0.156799,-0.122137,-0.022901,-0.068702,7.055713,5.781665,-3.536231,-0.110059,-0.275146,-0.709399,0.766821,-0.008374,-0.045459,thankyou
1616136276.4282238,1,15.0,7.0,-6.0,3.0,-1.0,0.575256,0.338684,-0.727661,-0.157715,-0.045802,-0.022901,-0.053435,7.146631,5.605811,-3.542212,-0.010767,-0.461768,-0.715381,0.819458,-0.210547,-0.087329,thankyou
1616136276.438092,1,17.0,7.0,-4.0,3.0,0.0,0.574707,0.33905,-0.727905,-0.157837,0.015267,-0.030534,-0.038168,7.207642,5.568726,-3.500342,0.056226,-0.501245,-0.661548,0.773999,-0.293091,-0.077759,thankyou
1616136276.448256,1,16.0,5.0,-5.0,-2.0,-4.0,0.573975,0.339661,-0.728271,-0.157532,0.045802,-0.030534,-0.030534,7.236352,5.689551,-3.409424,0.090918,-0.379224,-0.552686,0.629248,-0.245239,-0.007178,thankyou
1616136276.458179,1,15.0,9.0,-6.0,-4.0,-1.0,0.573181,0.340393,-0.728577,-0.157349,0.045802,-0.038168,-0.030534,7.248315,5.918042,-3.308936,0.112451,-0.151929,-0.433057,0.442627,-0.114844,0.113647,thankyou
1616136276.468035,1,12.0,8.0,-5.0,0.0,1.0,0.57251,0.340881,-0.728821,-0.157654,0.015267,-0.045802,-0.030534,7.261475,6.148926,-3.209644,0.136377,0.070581,-0.320605,0.26438,0.00957,0.236865,thankyou
1616136276.4780989,1,16.0,6.0,-4.0,2.0,1.0,0.57196,0.341003,-0.729004,-0.158447,-0.030534,-0.053435,-0.030534,7.284204,6.327173,-3.1594,0.169873,0.239258,-0.263184,0.151929,0.098096,0.349316,thankyou
1616136276.4880617,1,16.0,8.0,-5.0,25.0,3.0,0.571472,0.340942,-0.729126,-0.15979,-0.061069,-0.061069,-0.038168,7.321289,6.477905,-3.145044,0.221313,0.374438,-0.246436,0.088525,0.155518,0.465356,thankyou
1616136276.4980583,1,12.0,5.0,-4.0,-3.0,-2.0,0.571167,0.340637,-0.729126,-0.16156,-0.091603,-0.061069,-0.045802,7.365552,6.552075,-3.167773,0.281128,0.429468,-0.272754,0.089722,0.156714,0.551489,thankyou
1616136276.5080824,1,15.0,7.0,-3.0,-2.0,-1.0,0.570923,0.340088,-0.729187,-0.16333,-0.099237,-0.053435,-0.045802,7.420581,6.479102,-3.231177,0.349316,0.33855,-0.342139,0.177051,0.055029,0.564648,thankyou
1616136276.518011,1,15.0,5.0,-4.0,-1.0,-1.0,0.570618,0.3396,-0.729309,-0.164795,-0.083969,-0.045802,-0.038168,7.486377,6.328369,-3.311328,0.425879,0.173462,-0.424683,0.29668,-0.104077,0.540723,thankyou
1616136276.5281968,1,13.0,8.0,-3.0,0.0,-3.0,0.570251,0.339294,-0.729553,-0.165588,-0.038168,-0.038168,-0.030534,7.553369,6.160889,-3.37832,0.500049,0.0,-0.489282,0.401953,-0.270361,0.503638,thankyou
1616136276.5381944,1,16.0,7.0,-3.0,-2.0,-1.0,0.569824,0.339355,-0.729858,-0.165588,0.007634,-0.022901,-0.022901,7.616773,6.052026,-3.398657,0.565845,-0.10647,-0.500049,0.436646,-0.38999,0.48689,thankyou
1616136276.548175,1,16.0,7.0,-6.0,-2.0,-1.0,0.569458,0.339783,-0.730103,-0.165161,0.038168,-0.007634,-0.022901,7.641894,6.063989,-3.383106,0.592163,-0.090918,-0.472534,0.401953,-0.400757,0.508423,thankyou
1616136276.5581143,1,17.0,8.0,-2.0,0.0,3.0,0.569092,0.340393,-0.730225,-0.164551,0.053435,0.0,-0.022901,7.644287,6.177637,-3.319702,0.596948,0.025122,-0.397168,0.294287,-0.331372,0.563452,thankyou
1616136276.568081,1,16.0,7.0,-5.0,-2.0,1.0,0.568909,0.341003,-0.730164,-0.164185,0.030534,0.0,-0.022901,7.609595,6.331958,-3.22998,0.564648,0.179443,-0.301465,0.160303,-0.212939,0.607715,thankyou
1616136276.5781105,1,17.0,7.0,-4.0,-2.0,-1.0,0.568787,0.34137,-0.730042,-0.164307,0.0,-0.007634,-0.022901,7.556958,6.458765,-3.147437,0.516797,0.301465,-0.216528,0.047852,-0.10647,0.624463,thankyou
1616136276.588046,1,16.0,7.0,-7.0,-5.0,-1.0,0.568848,0.341431,-0.729858,-0.164795,-0.030534,-0.007634,-0.022901,7.50791,6.507812,-3.105567,0.472534,0.343335,-0.179443,0.004785,-0.052637,0.607715,thankyou
1616136276.5983114,1,16.0,9.0,-4.0,-1.0,0.0,0.568848,0.34137,-0.729736,-0.165405,-0.038168,-0.015267,-0.022901,7.452881,6.444409,-3.122314,0.42229,0.271558,-0.19978,0.052637,-0.066992,0.532349,thankyou
1616136276.608024,1,16.0,5.0,-6.0,-1.0,3.0,0.568726,0.341431,-0.729736,-0.165771,-0.015267,-0.015267,-0.022901,7.411011,6.331958,-3.166577,0.385205,0.154321,-0.244043,0.135181,-0.118433,0.44502,thankyou
1616136276.6180928,1,17.0,6.0,-4.0,-2.0,0.0,0.568542,0.341553,-0.729797,-0.16571,0.007634,-0.007634,-0.015267,7.369141,6.25061,-3.203662,0.345728,0.07417,-0.277539,0.196191,-0.143555,0.376831,thankyou
1616136276.6280327,1,16.0,36.0,-8.0,0.0,-1.0,0.568237,0.341919,-0.72998,-0.165283,0.038168,-0.007634,-0.007634,7.335645,6.244629,-3.215625,0.312231,0.070581,-0.278735,0.202173,-0.123218,0.350513,thankyou
1616136276.6379428,1,16.0,9.0,-4.0,0.0,1.0,0.567932,0.342285,-0.730164,-0.164673,0.045802,-0.007634,0.0,7.274634,6.298462,-3.21084,0.251221,0.131592,-0.26438,0.177051,-0.039478,0.342139,thankyou
1616136276.647586,1,13.0,8.0,-4.0,2.0,-1.0,0.567566,0.342651,-0.730408,-0.164124,0.038168,-0.007634,0.007634,7.208838,6.395361,-3.200073,0.185425,0.233276,-0.24165,0.131592,0.07417,0.351709,thankyou
1616136276.6574216,1,16.0,7.0,-6.0,1.0,-1.0,0.567261,0.342773,-0.730713,-0.163818,0.022901,-0.022901,0.015267,7.156201,6.46355,-3.180933,0.131592,0.30625,-0.212939,0.087329,0.159106,0.350513,thankyou
1616136276.6673956,1,20.0,8.0,-7.0,-5.0,1.0,0.566895,0.342651,-0.731018,-0.163696,0.007634,-0.030534,0.022901,7.116724,6.485083,-3.16897,0.093311,0.331372,-0.192603,0.0646,0.19978,0.332568,thankyou
1616136276.6776152,1,14.0,6.0,-3.0,-4.0,-1.0,0.566589,0.342285,-0.731445,-0.163696,-0.007634,-0.038168,0.022901,7.115527,6.459961,-3.172559,0.090918,0.311035,-0.189014,0.068188,0.186621,0.317017,thankyou
1616136276.6874478,1,16.0,7.0,-4.0,0.0,0.0,0.566284,0.341797,-0.731873,-0.163757,-0.015267,-0.038168,0.022901,7.149024,6.408521,-3.166577,0.122021,0.265576,-0.177051,0.066992,0.131592,0.307446,thankyou
1616136276.6973116,1,15.0,5.0,-4.0,0.0,-3.0,0.566162,0.341248,-0.732178,-0.16394,-0.030534,-0.022901,0.015267,7.189697,6.369043,-3.152222,0.160303,0.228491,-0.161499,0.059814,0.076563,0.30625,thankyou
1616136276.7080307,1,21.0,7.0,-3.0,-2.0,-1.0,0.566223,0.340759,-0.7323,-0.164307,-0.045802,-0.015267,0.007634,7.219604,6.346313,-3.149829,0.189014,0.205762,-0.162695,0.0646,0.040674,0.313428,thankyou
1616136276.7178798,1,16.0,7.0,-4.0,0.0,1.0,0.566406,0.340271,-0.732239,-0.164917,-0.061069,-0.007634,-0.007634,7.23396,6.314013,-3.166577,0.204565,0.168677,-0.187817,0.098096,0.007178,0.308643,thankyou
1616136276.727956,1,15.0,7.0,-4.0,-4.0,1.0,0.566711,0.339844,-0.732056,-0.165771,-0.068702,0.0,-0.022901,7.242334,6.233862,-3.185718,0.214136,0.080151,-0.217725,0.153125,-0.057422,0.269165,thankyou
1616136276.7372377,1,17.0,9.0,-1.0,9.0,-2.0,0.567017,0.339478,-0.731812,-0.166626,-0.068702,0.0,-0.030534,7.236352,6.140552,-3.216821,0.211743,-0.021533,-0.260791,0.224902,-0.123218,0.216528,thankyou
1616136276.7479522,1,16.0,6.0,-5.0,-1.0,-1.0,0.5672,0.339172,-0.731567,-0.16748,-0.061069,0.0,-0.030534,7.216016,6.079541,-3.235962,0.196191,-0.092114,-0.290698,0.277539,-0.159106,0.168677,thankyou
1616136276.7573311,1,15.0,9.0,-4.0,-3.0,0.0,0.567261,0.33905,-0.731384,-0.168213,-0.053435,-0.007634,-0.030534,7.216016,6.0604,-3.253906,0.200977,-0.119629,-0.31582,0.308643,-0.179443,0.162695,thankyou
1616136276.7681346,1,17.0,7.0,-4.0,10.0,18.0,0.567261,0.338989,-0.731323,-0.168823,-0.038168,-0.007634,-0.030534,7.217212,6.074756,-3.259888,0.206958,-0.113647,-0.324194,0.313428,-0.178247,0.172266,thankyou
1616136276.7779417,1,16.0,8.0,-6.0,-4.0,-1.0,0.5672,0.33905,-0.731201,-0.169373,-0.030534,-0.007634,-0.030534,7.218408,6.096289,-3.256299,0.214136,-0.099292,-0.322998,0.307446,-0.173462,0.186621,thankyou
1616136276.787983,1,19.0,8.0,-6.0,-2.0,0.0,0.567017,0.339172,-0.731201,-0.169678,-0.015267,-0.007634,-0.022901,7.221997,6.075952,-3.256299,0.223706,-0.124414,-0.321802,0.312231,-0.198584,0.177051,thankyou
1616136276.7981205,1,16.0,4.0,-8.0,2.0,-1.0,0.566772,0.339355,-0.731323,-0.169617,0.007634,-0.015267,-0.015267,7.219604,6.056811,-3.267066,0.223706,-0.143555,-0.326587,0.322998,-0.210547,0.166284,thankyou
1616136276.8080237,1,13.0,9.0,-2.0,-1.0,1.0,0.566406,0.339661,-0.731506,-0.169312,0.030534,-0.015267,-0.007634,7.22439,6.0927,-3.24314,0.229687,-0.105273,-0.293091,0.278735,-0.192603,0.185425,thankyou
1616136276.8171804,1,17.0,8.0,-5.0,-4.0,-1.0,0.566101,0.340027,-0.731689,-0.168884,0.038168,-0.015267,-0.007634,7.24353,6.188403,-3.202466,0.250024,-0.005981,-0.242847,0.198584,-0.142358,0.247632,thankyou
1616136276.8274252,1,17.0,8.0,-6.0,-2.0,1.0,0.565796,0.340454,-0.731812,-0.168579,0.030534,-0.007634,-0.007634,7.251904,6.310425,-3.190503,0.260791,0.11604,-0.221313,0.13877,-0.065796,0.325391,thankyou
1616136276.837295,1,13.0,7.0,-3.0,-2.0,0.0,0.565552,0.340759,-0.731934,-0.168457,0.015267,-0.007634,-0.007634,7.248315,6.408521,-3.200073,0.259595,0.214136,-0.223706,0.111255,0.003589,0.387598,thankyou
1616136276.8472714,1,17.0,8.0,-2.0,-4.0,-1.0,0.565369,0.340942,-0.731934,-0.168457,0.0,-0.007634,-0.007634,7.247119,6.475513,-3.222803,0.261987,0.279932,-0.244043,0.108862,0.05144,0.437842,thankyou
1616136276.8572416,1,16.0,6.0,-5.0,-2.0,0.0,0.565247,0.340942,-0.731995,-0.16864,-0.015267,-0.007634,-0.007634,7.236352,6.483887,-3.268262,0.253613,0.287109,-0.287109,0.14834,0.068188,0.448608,thankyou
1616136276.867498,1,13.0,7.0,-4.0,-3.0,-1.0,0.565063,0.340942,-0.732117,-0.168823,-0.015267,-0.015267,-0.007634,7.235156,6.455176,-3.328076,0.25481,0.256006,-0.344531,0.211743,0.052637,0.447412,thankyou
1616136276.8779995,1,17.0,5.0,-4.0,-4.0,5.0,0.564819,0.340942,-0.732239,-0.168823,-0.007634,-0.015267,-0.007634,7.249512,6.408521,-3.377124,0.270361,0.210547,-0.388794,0.265576,0.015552,0.443823,thankyou
1616136276.887432,1,16.0,5.0,-2.0,-4.0,-1.0,0.564575,0.341003,-0.732483,-0.16864,0.015267,-0.007634,0.0,7.261475,6.345117,-3.423779,0.282324,0.149536,-0.428271,0.319409,-0.028711,0.425879,thankyou
1616136276.897656,1,15.0,5.0,-6.0,-5.0,-3.0,0.56427,0.341248,-0.732788,-0.168091,0.038168,-0.007634,0.0,7.272241,6.256592,-3.463257,0.291895,0.068188,-0.455786,0.369653,-0.088525,0.38999,thankyou
1616136276.907206,1,17.0,7.0,-3.0,-2.0,3.0,0.563843,0.341675,-0.733154,-0.166992,0.076336,0.0,0.007634,7.278223,6.135767,-3.49436,0.293091,-0.039478,-0.471338,0.416309,-0.163892,0.328979,thankyou
1616136276.917175,1,17.0,7.0,-4.0,3.0,0.0,0.563232,0.342407,-0.733643,-0.165344,0.114504,0.0,0.015267,7.265063,6.086719,-3.502734,0.275146,-0.070581,-0.455786,0.413916,-0.173462,0.293091,thankyou
1616136276.9275768,1,15.0,7.0,-5.0,-3.0,0.0,0.5625,0.343384,-0.734131,-0.163452,0.137405,0.0,0.022901,7.236352,6.146533,-3.478809,0.24165,0.008374,-0.403149,0.343335,-0.100488,0.303857,thankyou
1616136276.937148,1,16.0,9.0,-3.0,-4.0,3.0,0.561707,0.344421,-0.73468,-0.161621,0.129771,-0.007634,0.022901,7.200464,6.30564,-3.426172,0.202173,0.185425,-0.321802,0.214136,0.040674,0.361279,thankyou
1616136276.9473476,1,20.0,8.0,-4.0,36.0,-9.0,0.561035,0.345215,-0.735107,-0.160278,0.099237,-0.015267,0.022901,7.166968,6.488672,-3.362769,0.16748,0.382812,-0.234473,0.070581,0.191406,0.43186,thankyou
1616136276.9574318,1,16.0,8.0,-3.0,-2.0,0.0,0.560608,0.345703,-0.735413,-0.159424,0.061069,-0.015267,0.022901,7.146631,6.639404,-3.288599,0.145947,0.541919,-0.145947,-0.061011,0.30625,0.488086,thankyou
1616136276.967075,1,19.0,9.0,-3.0,-2.0,0.0,0.560364,0.345764,-0.735596,-0.159241,0.015267,-0.015267,0.015267,7.138257,6.736304,-3.241943,0.137573,0.642407,-0.093311,-0.142358,0.375635,0.527563,thankyou
1616136276.9773495,1,15.0,9.0,-2.0,-1.0,-1.0,0.560303,0.345581,-0.735657,-0.159485,-0.022901,-0.015267,0.007634,7.143042,6.730322,-3.231177,0.143555,0.635229,-0.082544,-0.150732,0.364868,0.523975,thankyou
1616136276.9872458,1,16.0,6.0,-2.0,-2.0,3.0,0.560303,0.345215,-0.735718,-0.159973,-0.038168,-0.015267,0.0,7.146631,6.623853,-3.267066,0.14834,0.525171,-0.120825,-0.078955,0.288306,0.471338,thankyou
1616136276.997188,1,16.0,9.0,-3.0,-4.0,4.0,0.560364,0.344849,-0.735718,-0.160339,-0.038168,-0.007634,0.0,7.158594,6.446802,-3.343628,0.161499,0.346924,-0.202173,0.052637,0.165088,0.395972,thankyou
1616136277.0071394,1,14.0,8.0,-2.0,-1.0,1.0,0.560364,0.344666,-0.73584,-0.160339,-0.015267,0.0,0.0,7.176538,6.258985,-3.435742,0.177051,0.160303,-0.294287,0.198584,0.035889,0.319409,thankyou
1616136277.0173008,1,12.0,8.0,-3.0,0.0,1.0,0.560181,0.344727,-0.736084,-0.159912,0.022901,0.0,0.007634,7.175342,6.141748,-3.514697,0.173462,0.049048,-0.366064,0.302661,-0.028711,0.271558,thankyou
1616136280.8923168,1,21.0,6.0,-7.0,-7.0,2.0,0.710022,0.292664,-0.64032,0.013245,-0.007634,0.007634,-0.007634,9.137256,4.183423,-0.11604,0.149536,0.276343,-0.19978,0.098096,0.261987,0.245239,thankyou
1616136280.9023936,1,18.0,9.0,-10.0,-7.0,3.0,0.710144,0.292603,-0.640198,0.013184,-0.015267,0.007634,0.0,9.146826,4.167871,-0.090918,0.160303,0.259595,-0.178247,0.087329,0.234473,0.248828,thankyou
1616136280.9124236,1,21.0,9.0,-8.0,-4.0,2.0,0.710327,0.29248,-0.640076,0.013123,-0.015267,0.007634,0.0,9.143237,4.136767,-0.068188,0.155518,0.228491,-0.160303,0.082544,0.202173,0.23208,thankyou
1616136280.922195,1,20.0,9.0,-8.0,-6.0,0.0,0.710571,0.292297,-0.639893,0.013123,-0.015267,0.015267,0.0,9.125293,4.088916,-0.039478,0.137573,0.181836,-0.13877,0.077759,0.161499,0.196191,thankyou
1616136280.9321816,1,22.0,7.0,-7.0,-6.0,-5.0,0.710754,0.292114,-0.639771,0.013184,-0.015267,0.015267,0.0,9.101367,4.04585,-0.021533,0.112451,0.141162,-0.12561,0.077759,0.130396,0.15791,thankyou
1616136280.9422123,1,21.0,8.0,-11.0,-3.0,-1.0,0.710938,0.291931,-0.639648,0.013245,-0.007634,0.015267,0.007634,9.085815,4.005176,0.008374,0.096899,0.102881,-0.101685,0.068188,0.094507,0.128003,thankyou
1616136280.9521048,1,20.0,7.0,-7.0,-6.0,4.0,0.711121,0.291748,-0.639526,0.013428,-0.007634,0.015267,0.007634,9.069067,3.97168,0.022729,0.077759,0.072974,-0.092114,0.068188,0.071777,0.098096,thankyou
1616136280.9624162,1,21.0,8.0,-7.0,-7.0,4.0,0.711243,0.291687,-0.639404,0.013733,0.0,0.015267,0.007634,9.051123,3.942969,0.031104,0.058618,0.047852,-0.087329,0.070581,0.056226,0.070581,thankyou
1616136280.972303,1,19.0,8.0,-10.0,-6.0,1.0,0.711304,0.291565,-0.639343,0.014099,0.007634,0.007634,0.015267,9.037964,3.931006,0.040674,0.043066,0.04187,-0.080151,0.063403,0.053833,0.055029,thankyou
1616136280.9823337,1,20.0,7.0,-12.0,-8.0,0.0,0.711365,0.291565,-0.639343,0.014465,0.007634,0.007634,0.015267,9.033178,3.933398,0.044263,0.035889,0.049048,-0.077759,0.056226,0.061011,0.050244,thankyou
1616136280.992222,1,19.0,6.0,-7.0,-7.0,0.0,0.711426,0.291504,-0.639282,0.014832,0.007634,0.007634,0.015267,9.036768,3.944165,0.0646,0.037085,0.0646,-0.058618,0.033496,0.065796,0.058618,thankyou
1616136281.0022435,1,20.0,8.0,-6.0,-6.0,1.0,0.711548,0.291382,-0.639221,0.015198,0.0,0.007634,0.015267,9.027197,3.953735,0.092114,0.025122,0.080151,-0.034692,0.003589,0.071777,0.053833,thankyou
1616136281.012408,1,20.0,10.0,-10.0,-6.0,0.0,0.71167,0.291138,-0.639099,0.015503,-0.007634,0.007634,0.015267,9.02959,3.93938,0.108862,0.026318,0.071777,-0.022729,-0.002393,0.059814,0.05144,thankyou
1616136281.0221553,1,21.0,6.0,-12.0,-8.0,1.0,0.711853,0.290833,-0.639038,0.015747,-0.015267,0.015267,0.015267,9.028394,3.911865,0.130396,0.021533,0.050244,-0.005981,-0.00957,0.035889,0.039478,thankyou
1616136281.032326,1,17.0,8.0,-10.0,-9.0,1.0,0.712097,0.290466,-0.638977,0.01593,-0.015267,0.015267,0.015267,9.034375,3.873584,0.145947,0.025122,0.017944,0.001196,-0.002393,0.004785,0.029907,thankyou
1616136281.0422418,1,22.0,7.0,-10.0,-7.0,3.0,0.712402,0.290039,-0.638794,0.016113,-0.022901,0.015267,0.015267,9.031982,3.867603,0.163892,0.020337,0.019141,0.010767,-0.013159,0.003589,0.026318,thankyou
1616136281.0521162,1,20.0,7.0,-10.0,-7.0,3.0,0.712708,0.289612,-0.638672,0.016174,-0.030534,0.015267,0.015267,9.021215,3.860425,0.171069,0.007178,0.016748,0.00957,-0.013159,0.007178,0.013159,thankyou
1616136281.0622554,1,20.0,3.0,-12.0,-7.0,1.0,0.713013,0.289124,-0.638489,0.016174,-0.038168,0.015267,0.015267,9.008057,3.848462,0.178247,-0.005981,0.00957,0.007178,-0.010767,0.005981,-0.001196,thankyou
1616136281.0721672,1,19.0,8.0,-10.0,-6.0,-2.0,0.713379,0.288574,-0.638367,0.016113,-0.038168,0.015267,0.015267,8.99729,3.816162,0.183032,-0.019141,-0.016748,0.002393,0.0,-0.007178,-0.023926,thankyou
1616136281.082371,1,17.0,9.0,-8.0,-7.0,-1.0,0.713745,0.287964,-0.638245,0.016052,-0.030534,0.015267,0.015267,8.99729,3.768311,0.189014,-0.021533,-0.058618,-0.001196,0.019141,-0.040674,-0.04187,thankyou
1616136281.0924544,1,21.0,4.0,-9.0,-6.0,-1.0,0.71405,0.287537,-0.638123,0.016113,-0.022901,0.015267,0.007634,8.996094,3.724048,0.19978,-0.025122,-0.098096,0.001196,0.0323,-0.072974,-0.061011,thankyou
1616136281.102195,1,21.0,7.0,-8.0,-5.0,-1.0,0.714233,0.287231,-0.638,0.016235,-0.015267,0.015267,0.007634,8.998487,3.677392,0.205762,-0.023926,-0.139966,0.001196,0.047852,-0.108862,-0.075366,thankyou
1616136281.1123471,1,21.0,8.0,-22.0,-7.0,3.0,0.714417,0.287109,-0.637878,0.016479,0.0,0.007634,0.0,9.021215,3.646289,0.224902,-0.002393,-0.16748,0.015552,0.050244,-0.144751,-0.066992,thankyou
1616136281.1223092,1,22.0,10.0,-10.0,-6.0,1.0,0.714539,0.287109,-0.637756,0.016785,0.007634,0.007634,0.0,9.028394,3.6427,0.233276,0.001196,-0.16748,0.020337,0.046655,-0.14834,-0.063403,thankyou
1616136281.132261,1,21.0,10.0,-10.0,-6.0,0.0,0.714539,0.28717,-0.637634,0.01709,0.015267,0.007634,0.0,9.02959,3.664233,0.242847,0.002393,-0.143555,0.028711,0.029907,-0.132788,-0.052637,thankyou
1616136281.142073,1,18.0,9.0,-11.0,-6.0,0.0,0.7146,0.287292,-0.637573,0.017334,0.015267,0.007634,0.0,9.02959,3.703711,0.261987,0.001196,-0.102881,0.046655,-0.001196,-0.105273,-0.037085,thankyou
1616136281.1521835,1,21.0,36.0,-7.0,-5.0,3.0,0.7146,0.287354,-0.637512,0.017578,0.007634,0.0,0.007634,9.016431,3.743188,0.270361,-0.010767,-0.061011,0.055029,-0.027515,-0.070581,-0.0323,thankyou
1616136281.1622746,1,21.0,7.0,14.0,-7.0,0.0,0.7146,0.287354,-0.637512,0.017761,0.0,0.0,0.007634,9.012842,3.764722,0.27395,-0.015552,-0.037085,0.057422,-0.039478,-0.050244,-0.026318,thankyou
1616136281.1723075,1,21.0,8.0,-12.0,-7.0,0.0,0.7146,0.287292,-0.637512,0.018005,0.0,0.0,0.007634,9.031982,3.767114,0.279932,0.001196,-0.031104,0.063403,-0.044263,-0.053833,-0.008374,thankyou
1616136281.1820352,1,20.0,9.0,-7.0,-6.0,3.0,0.714661,0.287231,-0.637512,0.01825,0.007634,0.0,0.007634,9.047534,3.761133,0.26438,0.014355,-0.033496,0.046655,-0.025122,-0.052637,0.001196,thankyou
1616136281.1922293,1,19.0,7.0,-11.0,-7.0,3.0,0.714661,0.28717,-0.637512,0.018555,0.007634,0.0,0.007634,9.049927,3.756348,0.251221,0.015552,-0.033496,0.033496,-0.013159,-0.046655,0.001196,thankyou
1616136281.2022898,1,20.0,9.0,-7.0,-7.0,-5.0,0.714661,0.28717,-0.637512,0.01886,0.007634,0.0,0.007634,9.042749,3.746777,0.248828,0.005981,-0.039478,0.031104,-0.010767,-0.047852,-0.008374,thankyou
1616136281.2121694,1,21.0,10.0,-7.0,-7.0,1.0,0.714661,0.287231,-0.637451,0.019165,0.007634,0.0,0.007634,9.033178,3.738403,0.252417,-0.003589,-0.045459,0.033496,-0.011963,-0.050244,-0.019141,thankyou
1616136281.222384,1,17.0,8.0,-6.0,-7.0,-3.0,0.714661,0.287231,-0.637451,0.019409,0.007634,0.0,0.007634,9.021215,3.71687,0.258398,-0.016748,-0.063403,0.039478,-0.013159,-0.063403,-0.038281,thankyou
1616136281.2321644,1,21.0,10.0,-8.0,-6.0,5.0,0.714661,0.287231,-0.637451,0.019714,0.007634,0.0,0.007634,8.996094,3.675,0.267969,-0.043066,-0.101685,0.049048,-0.011963,-0.090918,-0.077759,thankyou
1616136281.2422569,1,21.0,10.0,-10.0,-7.0,1.0,0.714661,0.287231,-0.637451,0.02002,0.007634,0.0,0.007634,8.954224,3.619971,0.288306,-0.087329,-0.153125,0.069385,-0.017944,-0.128003,-0.137573,thankyou
1616136281.2521887,1,22.0,7.0,-10.0,-6.0,3.0,0.714661,0.28717,-0.637451,0.020264,0.007634,0.0,0.0,8.913549,3.535034,0.321802,-0.129199,-0.233276,0.101685,-0.022729,-0.194995,-0.205762,thankyou
1616136281.262236,1,21.0,5.0,-10.0,-6.0,4.0,0.714722,0.28717,-0.63739,0.020569,0.007634,-0.007634,0.0,8.846558,3.423779,0.367261,-0.197388,-0.340942,0.145947,-0.0323,-0.281128,-0.309839,thankyou
1616136281.2721756,1,22.0,9.0,-11.0,-2.0,2.0,0.714722,0.28717,-0.63739,0.020874,0.015267,-0.007634,0.0,8.753247,3.287402,0.468945,-0.293091,-0.47373,0.247632,-0.089722,-0.404346,-0.446216,thankyou
1616136281.282279,1,20.0,10.0,-5.0,-7.0,-1.0,0.714722,0.287109,-0.63739,0.02124,0.015267,-0.015267,0.0,8.632421,3.086426,0.697437,-0.415112,-0.669922,0.476123,-0.239258,-0.626855,-0.629248,thankyou
1616136281.2923026,1,19.0,9.0,-10.0,-7.0,1.0,0.714905,0.286987,-0.637207,0.021912,0.038168,-0.007634,-0.007634,8.467334,2.683276,1.134082,-0.583789,-1.063501,0.906787,-0.501245,-1.088623,-0.924731,thankyou
1616136281.3021033,1,20.0,9.0,-10.0,-7.0,1.0,0.715454,0.287048,-0.636536,0.023193,0.083969,0.007634,-0.007634,8.283106,2.131787,1.935596,-0.772803,-1.603027,1.691553,-1.024023,-1.824341,-1.282422,thankyou
1616136281.312253,1,19.0,9.0,-7.0,-7.0,-1.0,0.716675,0.287048,-0.635071,0.025146,0.114504,0.038168,-0.015267,8.12998,1.57312,3.26228,-0.931909,-2.144946,2.982349,-1.990625,-2.804101,-1.589868,thankyou
1616136281.3221643,1,20.0,8.0,-13.0,-7.0,0.0,0.719177,0.28656,-0.632385,0.0271,0.083969,0.061069,-0.022901,8.023511,1.223804,5.231372,-1.041968,-2.478711,4.878467,-3.573315,-3.908276,-1.725049,thankyou
1616136281.332025,1,21.0,8.0,-11.0,-7.0,1.0,0.723328,0.284912,-0.628357,0.027649,-0.045802,0.076336,-0.068702,7.826123,1.201074,7.773486,-1.235767,-2.496655,7.303345,-5.787646,-4.957422,-1.734619,thankyou
1616136281.3423226,1,20.0,9.0,-8.0,-5.0,1.0,0.72937,0.281189,-0.623169,0.024658,-0.305344,0.030534,-0.145038,7.260278,1.434351,10.468725,-1.783667,-2.283716,9.829907,-8.313013,-5.691943,-1.870996,thankyou
1616136281.3520246,1,19.0,7.0,-11.0,-9.0,-1.0,0.736084,0.27533,-0.618164,0.016174,-0.618321,-0.122137,-0.290076,6.101074,1.501343,12.720141,-2.90459,-2.274146,11.894702,-10.572803,-6.067578,-2.544507,thankyou
1616136281.3622737,1,22.0,8.0,-10.0,-6.0,-2.0,0.741333,0.267822,-0.615356,0.001587,-0.870229,-0.419847,-0.48855,4.559058,0.963013,14.057592,-4.390381,-2.908179,13.08501,-12.026294,-6.274536,-3.860425,thankyou
1616136281.3723042,1,17.0,7.0,-12.0,-7.0,0.0,0.742615,0.260559,-0.616699,-0.017578,-0.931298,-0.816794,-0.679389,3.073267,-0.24165,14.263354,-5.812768,-4.24563,13.247705,-12.388769,-6.485083,-5.633325,thankyou
1616136281.3822396,1,19.0,10.0,-11.0,-7.0,4.0,0.737976,0.255798,-0.623291,-0.038452,-0.732824,-1.236641,-0.816794,2.032495,-1.735815,13.449878,-6.790137,-5.904883,12.546679,-11.735596,-6.699219,-7.468432,thankyou
1616136281.3925238,1,20.0,7.0,-12.0,-7.0,0.0,0.726807,0.255249,-0.63501,-0.057861,-0.366412,-1.580153,-0.854962,1.67002,-2.661743,11.903076,-7.08562,-7.017432,11.283399,-10.387378,-6.519775,-8.736499,thankyou
1616136281.402168,1,21.0,9.0,-11.0,-6.0,-1.0,0.709961,0.259766,-0.65033,-0.074219,0.045802,-1.78626,-0.832061,1.87937,-2.32439,9.815552,-6.791333,-6.884644,9.627734,-8.632421,-5.48977,-9.028394,thankyou
1616136281.4122732,1,17.0,6.0,-11.0,-5.0,-1.0,0.689331,0.268677,-0.666992,-0.088074,0.320611,-1.816794,-0.793893,2.418896,-0.070581,7.216016,-6.128589,-4.850952,7.54978,-6.730322,-3.043359,-7.969678,thankyou
1616136281.4222534,1,19.0,-6.0,-10.0,-6.0,3.0,0.667114,0.280273,-0.682617,-0.102051,0.343511,-1.679389,-0.78626,3.183325,3.529053,3.978858,-5.181128,-1.500147,4.850952,-4.569824,0.31582,-5.623755,thankyou
1616136281.4320867,1,20.0,7.0,-11.0,-7.0,1.0,0.646606,0.291748,-0.695068,-0.116943,0.167939,-1.366412,-0.763359,4.24563,7.436133,0.356494,-3.893921,2.144946,1.692749,-2.207153,3.525464,-2.306445,thankyou
1616136281.4422843,1,20.0,6.0,26.0,-7.0,-3.0,0.630066,0.301208,-0.703308,-0.132812,-0.114504,-0.961832,-0.717557,5.130884,10.661328,-3.515893,-2.769409,5.110547,-1.842285,0.537134,5.994605,0.976172,thankyou
1616136281.4520285,1,21.0,7.0,-11.0,-6.0,-1.0,0.617188,0.307373,-0.708801,-0.149048,-0.40458,-0.679389,-0.587786,5.49336,13.032373,-7.596436,-2.182031,7.242334,-5.696729,3.789844,7.862012,3.671411,thankyou
1616136281.4622853,1,21.0,7.0,-7.0,-10.0,-29.0,0.606506,0.309326,-0.713867,-0.163879,-0.557252,-0.572519,-0.312977,5.745776,14.112622,-10.77976,-1.746582,8.141943,-8.714966,6.57959,8.494848,5.459863,thankyou
1616136281.4721498,1,20.0,8.0,-10.0,-7.0,-1.0,0.597534,0.307312,-0.71991,-0.17395,-0.473282,-0.48855,-0.022901,6.190796,13.721436,-13.119702,-1.1927,7.667017,-10.910156,8.869287,7.80459,6.296069,thankyou
1616136281.4820707,1,19.0,7.0,-7.0,-4.0,5.0,0.589539,0.304749,-0.726746,-0.177246,-0.175573,-0.351145,0.137405,6.782959,12.471313,-14.83877,-0.555078,6.424072,-12.466528,10.591944,6.456372,6.565234,thankyou
1616136281.4922247,1,19.0,10.0,-9.0,-6.0,0.0,0.58197,0.304688,-0.733521,-0.174377,0.183206,-0.19084,0.167939,7.348804,11.1542,-16.087696,0.022729,5.171557,-13.521655,11.715259,5.217017,6.713574,thankyou
1616136281.502134,1,19.0,9.0,-8.0,-8.0,4.0,0.575073,0.307556,-0.73938,-0.167358,0.435115,-0.045802,0.160305,7.841675,10.193579,-16.222876,0.515601,4.300659,-13.453466,11.619555,4.341333,6.772192,thankyou
1616136281.512047,1,21.0,8.0,-8.0,-5.0,3.0,0.570374,0.311279,-0.743286,-0.158875,0.496183,0.076336,0.167939,8.196973,9.621753,-15.180908,0.856543,3.826929,-12.252393,10.389771,3.797021,6.565234,thankyou
1616136281.5220895,1,19.0,5.0,-8.0,-7.0,-1.0,0.568359,0.314331,-0.745178,-0.151184,0.396947,0.160305,0.160305,8.324976,9.161181,-13.369726,0.954639,3.451294,-10.349096,8.576197,3.365161,5.918042,thankyou
1616136281.532095,1,19.0,5.0,-8.0,-4.0,-1.0,0.568665,0.316223,-0.745239,-0.145813,0.229008,0.198473,0.114504,8.193384,8.705396,-11.172144,0.790747,3.050537,-8.126391,6.583179,2.963208,4.882056,thankyou
1616136281.5421276,1,20.0,8.0,-9.0,-4.0,1.0,0.570496,0.316895,-0.743958,-0.143738,0.015267,0.183206,0.038168,7.884741,8.228076,-8.921924,0.458179,2.587573,-5.904883,4.685864,2.540918,3.653467,thankyou
1616136281.5512602,1,17.0,8.0,-8.0,-6.0,1.0,0.573242,0.316101,-0.741882,-0.145264,-0.206107,0.122137,-0.022901,7.560547,7.682569,-6.859521,0.124414,2.01814,-3.913062,3.058911,2.025317,2.436841,thankyou
1616136281.5620615,1,18.0,9.0,-10.0,-7.0,3.0,0.57605,0.313782,-0.739807,-0.149597,-0.366412,0.038168,-0.068702,7.309326,6.894214,-5.17395,-0.123218,1.181934,-2.316016,1.862622,1.29917,1.270459,thankyou
1616136281.5714002,1,20.0,7.0,-10.0,-5.0,0.0,0.578369,0.310608,-0.73822,-0.15509,-0.412214,-0.038168,-0.091603,7.143042,5.882154,-3.93938,-0.281128,0.11604,-1.166382,1.113745,0.418701,0.184229,thankyou
1616136281.5821726,1,20.0,6.0,-11.0,-7.0,-1.0,0.579468,0.307739,-0.737488,-0.160034,-0.328244,-0.099237,-0.114504,7.049731,4.811475,-3.192895,-0.360083,-0.996509,-0.476123,0.77041,-0.468945,-0.730933,thankyou
1616136281.5922868,1,19.0,8.0,-10.0,-6.0,-1.0,0.579041,0.306213,-0.737793,-0.163086,-0.152672,-0.137405,-0.114504,7.010254,4.042261,-2.808887,-0.384009,-1.790845,-0.101685,0.62207,-1.101782,-1.326685,thankyou
1616136281.6020775,1,19.0,9.0,-10.0,-7.0,0.0,0.577332,0.306458,-0.738831,-0.164124,0.030534,-0.152672,-0.099237,6.974365,3.829321,-2.667725,-0.399561,-2.014551,0.070581,0.520386,-1.278833,-1.52168,thankyou
1616136281.6121058,1,20.0,10.0,-11.0,-7.0,-1.0,0.574585,0.308105,-0.740356,-0.163696,0.160305,-0.160305,-0.083969,6.898999,4.207349,-2.701221,-0.449805,-1.63772,0.101685,0.409131,-0.959424,-1.342236,thankyou
1616136281.6223376,1,21.0,9.0,-8.0,-6.0,0.0,0.57135,0.310547,-0.742004,-0.163086,0.19084,-0.167939,-0.076336,6.833203,5.03877,-2.812476,-0.483301,-0.809888,0.068188,0.23208,-0.305054,-0.863721,thankyou
1616136281.6320448,1,20.0,8.0,-11.0,-7.0,1.0,0.568237,0.312805,-0.743408,-0.163208,0.137405,-0.160305,-0.061069,6.822436,6.014941,-2.989526,-0.455786,0.151929,-0.039478,0.066992,0.413916,-0.235669,thankyou
1616136281.6419387,1,20.0,8.0,-9.0,-6.0,1.0,0.565796,0.31427,-0.744385,-0.16449,0.030534,-0.145038,-0.061069,6.849951,6.847558,-3.215625,-0.391187,0.961816,-0.218921,0.0,0.998901,0.355298,thankyou
1616136281.6514497,1,19.0,8.0,-10.0,-7.0,0.0,0.564026,0.314697,-0.744995,-0.16687,-0.076336,-0.122137,-0.045802,6.854736,7.339233,-3.506323,-0.351709,1.423584,-0.48689,0.118433,1.344629,0.750073,thankyou
1616136281.662064,1,18.0,8.0,-11.0,-7.0,1.0,0.562805,0.314148,-0.745483,-0.1698,-0.152672,-0.10687,-0.038168,6.898999,7.427759,-3.789844,-0.278735,1.481006,-0.762036,0.356494,1.362573,0.929517,thankyou
1616136281.6713712,1,20.0,8.0,-12.0,-7.0,-3.0,0.562134,0.312988,-0.74585,-0.172668,-0.183206,-0.083969,-0.030534,6.995898,7.207642,-4.020728,-0.161499,1.23457,-0.997705,0.635229,1.119727,0.94148,thankyou
1616136281.6820807,1,19.0,10.0,-6.0,-2.0,1.0,0.561646,0.311829,-0.746094,-0.174988,-0.152672,-0.053435,-0.030534,7.074853,6.7698,-4.238452,-0.068188,0.777588,-1.221411,0.959424,0.732129,0.801514,thankyou
1616136281.6920502,1,20.0,8.0,-7.0,-7.0,4.0,0.561096,0.311096,-0.746521,-0.17627,-0.091603,-0.038168,-0.030534,7.12749,6.247022,-4.423877,-0.007178,0.246436,-1.403247,1.264477,0.308643,0.577808,thankyou
1616136281.7013507,1,19.0,7.0,-7.0,-7.0,4.0,0.560242,0.311157,-0.747131,-0.176453,0.0,-0.038168,-0.038168,7.183716,5.770898,-4.530347,0.055029,-0.229687,-1.491772,1.463062,-0.080151,0.361279,thankyou
1616136281.71145,1,18.0,7.0,-8.0,-6.0,3.0,0.559021,0.311951,-0.747925,-0.175659,0.068702,-0.038168,-0.038168,7.239942,5.490967,-4.538721,0.118433,-0.501245,-1.467847,1.501343,-0.324194,0.239258,thankyou
1616136281.721375,1,20.0,9.0,-8.0,-7.0,0.0,0.557678,0.313171,-0.748657,-0.1745,0.10687,-0.038168,-0.045802,7.29856,5.441919,-4.433447,0.185425,-0.540723,-1.325488,1.366162,-0.407935,0.223706,thankyou
1616136281.73129,1,21.0,7.0,-7.0,-4.0,-3.0,0.556396,0.314453,-0.749268,-0.173645,0.091603,-0.045802,-0.045802,7.339233,5.561548,-4.257593,0.238062,-0.417505,-1.116138,1.124512,-0.367261,0.275146,thankyou
1616136281.741301,1,20.0,9.0,-9.0,-7.0,1.0,0.555298,0.315552,-0.749695,-0.173401,0.053435,-0.045802,-0.061069,7.388281,5.736206,-4.048242,0.300269,-0.245239,-0.880469,0.842188,-0.301465,0.351709,thankyou
1616136281.751449,1,18.0,10.0,-8.0,-7.0,1.0,0.554565,0.316406,-0.749756,-0.17395,0.0,-0.038168,-0.076336,7.449292,5.890527,-3.819751,0.378027,-0.104077,-0.640015,0.56106,-0.271558,0.416309,thankyou
1616136281.7614102,1,20.0,9.0,-7.0,-7.0,-1.0,0.55426,0.316956,-0.749451,-0.175171,-0.045802,-0.030534,-0.091603,7.512695,6.012549,-3.592456,0.458179,-0.003589,-0.413916,0.305054,-0.271558,0.461768,thankyou
1616136281.771207,1,19.0,7.0,-11.0,-6.0,-2.0,0.554382,0.317444,-0.748718,-0.176941,-0.083969,-0.007634,-0.10687,7.566528,6.126196,-3.396265,0.531152,0.080151,-0.233276,0.099292,-0.276343,0.504834,thankyou
1616136281.781423,1,19.0,8.0,-8.0,-7.0,0.0,0.554871,0.31781,-0.747742,-0.179077,-0.114504,0.007634,-0.114504,7.570117,6.215918,-3.24314,0.552686,0.133984,-0.105273,-0.038281,-0.26438,0.512012,thankyou
1616136281.791214,1,17.0,7.0,-11.0,-6.0,-1.0,0.555359,0.318115,-0.746643,-0.181458,-0.122137,0.007634,-0.114504,7.531836,6.215918,-3.17854,0.535937,0.096899,-0.068188,-0.058618,-0.285913,0.46416,thankyou
1616136281.8014274,1,19.0,6.0,-12.0,-9.0,3.0,0.555603,0.31842,-0.745789,-0.183533,-0.099237,-0.007634,-0.10687,7.495947,6.144141,-3.171362,0.519189,-0.005981,-0.081348,-0.014355,-0.349316,0.391187,thankyou
1616136281.8113778,1,20.0,5.0,-12.0,-7.0,-1.0,0.555542,0.318909,-0.7453,-0.184937,-0.045802,-0.015267,-0.099237,7.469629,6.048438,-3.184521,0.509619,-0.124414,-0.102881,0.039478,-0.429468,0.31582,thankyou
1616136281.8213778,1,20.0,5.0,-11.0,-7.0,3.0,0.554993,0.319641,-0.745239,-0.185608,0.015267,-0.030534,-0.076336,7.412207,6.038867,-3.231177,0.467749,-0.14834,-0.142358,0.089722,-0.415112,0.282324,thankyou
1616136281.8312588,1,19.0,8.0,-10.0,-7.0,-3.0,0.553955,0.320618,-0.745605,-0.185547,0.068702,-0.053435,-0.053435,7.373926,6.139356,-3.292187,0.443823,-0.052637,-0.18064,0.104077,-0.326587,0.337354,thankyou
1616136281.8412523,1,17.0,7.0,-11.0,-6.0,-3.0,0.552612,0.321655,-0.746277,-0.184998,0.099237,-0.068702,-0.030534,7.390674,6.35708,-3.301758,0.47373,0.166284,-0.15791,0.016748,-0.19021,0.489282,thankyou
1616136281.8514526,1,19.0,10.0,-8.0,-7.0,1.0,0.551392,0.322632,-0.746948,-0.184265,0.099237,-0.061069,-0.015267,7.450488,6.613086,-3.271851,0.543115,0.428271,-0.095703,-0.128003,-0.053833,0.683081,thankyou
1616136281.8613684,1,19.0,7.0,-8.0,-7.0,0.0,0.550354,0.323364,-0.747559,-0.183716,0.076336,-0.053435,-0.007634,7.481592,6.832007,-3.244336,0.581396,0.651978,-0.04187,-0.251221,0.075366,0.833813,thankyou
1616136281.8712945,1,19.0,8.0,-10.0,-7.0,0.0,0.549561,0.323792,-0.747986,-0.183472,0.045802,-0.053435,0.0,7.491162,6.951636,-3.238354,0.598145,0.773999,-0.016748,-0.313428,0.149536,0.913965,thankyou
1616136281.8812263,1,17.0,9.0,-11.0,-8.0,-1.0,0.54895,0.323914,-0.748352,-0.183533,0.015267,-0.045802,0.0,7.483984,6.973169,-3.245532,0.596948,0.795532,-0.011963,-0.325391,0.165088,0.924731,thankyou
1616136281.8912172,1,19.0,6.0,-9.0,-8.0,0.0,0.548584,0.32373,-0.748596,-0.183899,-0.015267,-0.045802,-0.007634,7.461255,6.926514,-3.249121,0.579004,0.746484,-0.010767,-0.309839,0.142358,0.880469,thankyou
1616136281.9014068,1,17.0,1.0,-11.0,-3.0,0.0,0.548401,0.323425,-0.748779,-0.18457,-0.045802,-0.038168,-0.007634,7.408618,6.827222,-3.287402,0.529956,0.641211,-0.047852,-0.235669,0.102881,0.791943,thankyou
1616136281.9111938,1,19.0,7.0,-11.0,-8.0,-1.0,0.548157,0.322937,-0.748901,-0.185364,-0.053435,-0.038168,-0.015267,7.328467,6.690845,-3.366357,0.45459,0.500049,-0.129199,-0.105273,0.058618,0.6771,thankyou
1616136281.9213328,1,22.0,4.0,-11.0,-7.0,0.0,0.547913,0.322571,-0.749084,-0.186218,-0.053435,-0.038168,-0.015267,7.238745,6.536523,-3.477612,0.37085,0.337354,-0.240454,0.061011,0.005981,0.551489,thankyou
1616136281.9314249,1,19.0,7.0,-11.0,-7.0,0.0,0.547546,0.322266,-0.749329,-0.186768,-0.038168,-0.030534,-0.015267,7.164575,6.404932,-3.609204,0.301465,0.203369,-0.368457,0.230884,-0.0323,0.460571,thankyou
1616136281.941283,1,21.0,6.0,-32.0,-7.0,-1.0,0.547119,0.322144,-0.749634,-0.187073,-0.015267,-0.030534,-0.007634,7.110742,6.327173,-3.704907,0.252417,0.123218,-0.456982,0.345728,-0.05144,0.405542,thankyou
1616136281.9514282,1,17.0,7.0,-10.0,-7.0,3.0,0.546631,0.322266,-0.749878,-0.187073,0.007634,-0.022901,-0.015267,7.047339,6.316406,-3.777881,0.193799,0.113647,-0.520386,0.419897,-0.013159,0.379224,thankyou
1616136281.9613442,1,16.0,8.0,-11.0,-7.0,-1.0,0.546143,0.322571,-0.750183,-0.186951,0.015267,-0.022901,-0.007634,6.970777,6.360669,-3.82334,0.122021,0.15791,-0.553882,0.452197,0.069385,0.369653,thankyou
1616136281.9713645,1,17.0,9.0,-10.0,-7.0,-1.0,0.545593,0.322815,-0.750427,-0.186951,0.007634,-0.022901,-0.007634,6.883447,6.415698,-3.824536,0.040674,0.212939,-0.543115,0.441431,0.163892,0.344531,thankyou
1616136281.981208,1,18.0,5.0,-12.0,-7.0,-3.0,0.545166,0.322815,-0.750732,-0.187134,-0.007634,-0.030534,0.0,6.818848,6.471924,-3.801807,-0.017944,0.267969,-0.512012,0.409131,0.24165,0.327783,thankyou
1616136281.991341,1,18.0,6.0,-10.0,-7.0,-2.0,0.544678,0.322632,-0.751038,-0.187622,-0.030534,-0.038168,0.0,6.785352,6.506616,-3.74917,-0.045459,0.300269,-0.453394,0.350513,0.278735,0.309839,thankyou
1616136282.001318,1,21.0,7.0,-9.0,-7.0,-3.0,0.544373,0.322266,-0.751221,-0.188416,-0.045802,-0.038168,-0.007634,6.774585,6.513794,-3.690552,-0.050244,0.300269,-0.393579,0.295483,0.277539,0.287109,thankyou
1616136282.0114431,1,21.0,7.0,-12.0,-8.0,0.0,0.544128,0.321838,-0.751343,-0.189331,-0.061069,-0.038168,-0.015267,6.775781,6.453979,-3.685767,-0.04187,0.233276,-0.391187,0.311035,0.22251,0.250024,thankyou
1616136282.02134,1,17.0,8.0,-7.0,-7.0,-1.0,0.543884,0.321472,-0.751465,-0.190247,-0.061069,-0.030534,-0.015267,6.799707,6.333154,-3.721655,-0.011963,0.104077,-0.428271,0.375635,0.110059,0.200977,thankyou
1616136282.031434,1,17.0,9.0,-10.0,-7.0,1.0,0.54364,0.321289,-0.751587,-0.190796,-0.038168,-0.022901,-0.022901,6.836792,6.20874,-3.761133,0.028711,-0.025122,-0.466553,0.439038,-0.008374,0.160303,thankyou
1616136282.041269,1,20.0,8.0,-11.0,-6.0,0.0,0.543335,0.32135,-0.751709,-0.190979,-0.007634,-0.015267,-0.022901,6.872681,6.146533,-3.783862,0.069385,-0.088525,-0.484497,0.465356,-0.081348,0.154321,thankyou
1616136282.0512643,1,17.0,7.0,-10.0,-6.0,-1.0,0.54303,0.321716,-0.75177,-0.190857,0.015267,-0.007634,-0.022901,6.896606,6.153711,-3.787451,0.098096,-0.082544,-0.480908,0.453394,-0.096899,0.177051,thankyou
1616136282.0612884,1,19.0,7.0,-6.0,7.0,-3.0,0.542664,0.322144,-0.751892,-0.190735,0.022901,-0.007634,-0.022901,6.934888,6.230273,-3.771899,0.141162,-0.005981,-0.456982,0.401953,-0.072974,0.247632,thankyou
1616136282.0712066,1,19.0,8.0,-10.0,-6.0,-1.0,0.542419,0.322571,-0.751892,-0.190613,0.015267,-0.007634,-0.022901,6.985132,6.310425,-3.722852,0.196191,0.071777,-0.401953,0.317017,-0.058618,0.317017,thankyou
1616136282.0812626,1,21.0,8.0,-10.0,-6.0,3.0,0.542236,0.322937,-0.751892,-0.190613,0.007634,-0.007634,-0.022901,7.013843,6.370239,-3.685767,0.228491,0.128003,-0.360083,0.25481,-0.043066,0.361279,thankyou
1616136282.0911477,1,16.0,5.0,-10.0,-3.0,2.0,0.542114,0.323242,-0.751831,-0.190674,0.0,-0.007634,-0.022901,7.02461,6.412109,-3.643897,0.244043,0.16748,-0.31582,0.19978,-0.027515,0.381616,thankyou
1616136282.1013172,1,18.0,9.0,-11.0,-7.0,1.0,0.542053,0.323425,-0.75177,-0.190857,-0.007634,-0.007634,-0.022901,7.030591,6.453979,-3.599634,0.252417,0.204565,-0.271558,0.145947,-0.010767,0.397168,thankyou
1616136282.111293,1,19.0,5.0,-11.0,-7.0,-1.0,0.541992,0.323547,-0.751648,-0.191223,-0.022901,-0.007634,-0.022901,7.036572,6.470727,-3.561352,0.26438,0.215332,-0.235669,0.10647,-0.013159,0.399561,thankyou
1616136282.1213064,1,18.0,9.0,-10.0,-7.0,1.0,0.542053,0.323547,-0.751526,-0.191711,-0.030534,-0.007634,-0.022901,7.030591,6.477905,-3.530249,0.260791,0.216528,-0.208154,0.081348,-0.011963,0.388794,thankyou
1616136282.1311293,1,18.0,8.0,-11.0,-7.0,-1.0,0.542114,0.323486,-0.751343,-0.192322,-0.038168,-0.007634,-0.022901,7.023413,6.488672,-3.501538,0.258398,0.218921,-0.185425,0.059814,-0.010767,0.38042,thankyou
1616136282.14122,1,20.0,7.0,-8.0,-7.0,-1.0,0.542175,0.323303,-0.75116,-0.193054,-0.045802,-0.015267,-0.022901,7.019824,6.481494,-3.490772,0.260791,0.203369,-0.181836,0.061011,-0.023926,0.37085,thankyou
1616136282.1510737,1,19.0,5.0,-13.0,-10.0,-1.0,0.542175,0.32312,-0.751038,-0.193726,-0.045802,-0.015267,-0.022901,7.013843,6.443213,-3.519482,0.259595,0.156714,-0.216528,0.10647,-0.055029,0.351709,thankyou
1616136282.1613228,1,17.0,7.0,-9.0,-7.0,3.0,0.542053,0.323059,-0.751038,-0.194214,-0.030534,-0.015267,-0.022901,7.006665,6.384595,-3.582886,0.257202,0.093311,-0.281128,0.185425,-0.095703,0.331372,thankyou
1616136282.1713836,1,20.0,7.0,-10.0,21.0,4.0,0.541748,0.32312,-0.751221,-0.194397,-0.007634,-0.022901,-0.015267,7.009058,6.35708,-3.629541,0.263184,0.063403,-0.321802,0.230884,-0.118433,0.330176,thankyou
1616136282.1811898,1,19.0,8.0,-12.0,-9.0,0.0,0.541321,0.323364,-0.751404,-0.194336,0.015267,-0.022901,-0.015267,7.019824,6.38938,-3.654663,0.278735,0.095703,-0.33855,0.234473,-0.105273,0.367261,thankyou
1616136282.1912858,1,19.0,9.0,-11.0,-7.0,1.0,0.540894,0.323669,-0.751648,-0.194153,0.022901,-0.022901,-0.015267,7.032983,6.464746,-3.654663,0.295483,0.172266,-0.327783,0.198584,-0.063403,0.424683,thankyou
1616136282.201156,1,15.0,5.0,-12.0,-7.0,-1.0,0.540527,0.323853,-0.751892,-0.194031,0.022901,-0.022901,-0.007634,7.048535,6.541308,-3.634326,0.313428,0.250024,-0.297876,0.144751,-0.021533,0.476123,thankyou
1616136282.2111328,1,18.0,8.0,-11.0,-9.0,-1.0,0.540222,0.324036,-0.752014,-0.193909,0.015267,-0.015267,-0.007634,7.058105,6.58916,-3.618774,0.326587,0.299072,-0.275146,0.107666,0.001196,0.509619,thankyou
1616136282.2211084,1,19.0,6.0,-11.0,-7.0,0.0,0.540039,0.324097,-0.752136,-0.193909,0.007634,-0.015267,-0.007634,7.058105,6.605908,-3.608008,0.327783,0.31582,-0.260791,0.088525,0.011963,0.516797,thankyou
1616136282.2311783,1,17.0,7.0,-8.0,-7.0,-2.0,0.539917,0.324158,-0.752197,-0.193848,0.0,-0.007634,-0.007634,7.049731,6.591553,-3.586475,0.320605,0.302661,-0.236865,0.070581,0.005981,0.495264,thankyou
1616136282.2411664,1,21.0,6.0,-12.0,-7.0,3.0,0.539856,0.324219,-0.752258,-0.193848,-0.007634,-0.007634,-0.007634,7.028198,6.57959,-3.575708,0.299072,0.290698,-0.223706,0.065796,0.011963,0.467749,thankyou
1616136282.2511263,1,17.0,9.0,-13.0,-7.0,-1.0,0.539795,0.324158,-0.752258,-0.193909,-0.007634,-0.007634,-0.007634,6.989917,6.555664,-3.586475,0.261987,0.266772,-0.234473,0.090918,0.021533,0.430664,thankyou
1616136282.2613187,1,18.0,7.0,-9.0,-7.0,1.0,0.539673,0.324097,-0.75238,-0.194031,-0.007634,-0.015267,0.0,6.952832,6.513794,-3.613989,0.226099,0.223706,-0.259595,0.133984,0.016748,0.386401,thankyou
1616136282.2711985,1,7.0,7.0,-11.0,-6.0,3.0,0.53949,0.324036,-0.752563,-0.19397,0.0,-0.015267,0.0,6.913354,6.471924,-3.657056,0.186621,0.184229,-0.297876,0.189014,0.017944,0.34812,thankyou
1616136282.281086,1,19.0,9.0,-7.0,-4.0,3.0,0.539062,0.324036,-0.75293,-0.193787,0.015267,-0.030534,0.007634,6.882251,6.443213,-3.7073,0.156714,0.159106,-0.337354,0.238062,0.023926,0.325391,thankyou
1616136282.2912042,1,21.0,9.0,-10.0,-6.0,3.0,0.538513,0.324036,-0.753357,-0.19342,0.030534,-0.030534,0.015267,6.875073,6.446802,-3.743188,0.151929,0.169873,-0.360083,0.257202,0.035889,0.336157,thankyou
1616136282.3011956,1,22.0,7.0,-11.0,-7.0,-1.0,0.537964,0.324158,-0.753845,-0.192932,0.038168,-0.022901,0.015267,6.897803,6.485083,-3.750366,0.174658,0.215332,-0.351709,0.230884,0.052637,0.379224,thankyou
1616136282.3111036,1,21.0,8.0,-10.0,-5.0,1.0,0.537598,0.324219,-0.754211,-0.192383,0.030534,-0.015267,0.015267,6.928906,6.54729,-3.741992,0.203369,0.287109,-0.331372,0.185425,0.082544,0.437842,thankyou
1616136282.321152,1,21.0,6.0,-10.0,-3.0,0.0,0.537415,0.32428,-0.754456,-0.191956,0.022901,-0.007634,0.015267,6.946851,6.592749,-3.738403,0.218921,0.337354,-0.320605,0.15791,0.107666,0.477319,thankyou
1616136282.3312335,1,20.0,10.0,-10.0,-5.0,5.0,0.537354,0.324341,-0.754578,-0.19165,0.015267,0.0,0.007634,6.948047,6.599927,-3.731225,0.218921,0.349316,-0.309839,0.143555,0.11604,0.480908,thankyou
1616136282.3410792,1,21.0,8.0,-10.0,-7.0,1.0,0.537354,0.324341,-0.754578,-0.191406,0.0,0.007634,0.007634,6.934888,6.572412,-3.720459,0.203369,0.325391,-0.297876,0.142358,0.108862,0.451001,thankyou
1616136282.350543,1,20.0,9.0,-7.0,-6.0,2.0,0.537476,0.32428,-0.754578,-0.191284,-0.007634,0.007634,0.0,6.934888,6.534131,-3.704907,0.200977,0.288306,-0.283521,0.139966,0.08374,0.419897,thankyou
1616136282.36059,1,21.0,8.0,-10.0,-7.0,-1.0,0.537537,0.324158,-0.754578,-0.191284,-0.015267,0.007634,0.0,6.920532,6.500635,-3.692944,0.185425,0.256006,-0.272754,0.142358,0.070581,0.385205,thankyou
1616136282.370243,1,19.0,7.0,-10.0,-6.0,1.0,0.537659,0.324036,-0.754517,-0.191406,-0.015267,0.0,0.0,6.901392,6.462354,-3.688159,0.165088,0.216528,-0.271558,0.156714,0.056226,0.345728,thankyou
1616136282.380721,1,20.0,6.0,-6.0,-7.0,1.0,0.53772,0.323914,-0.754517,-0.191467,-0.015267,0.0,0.0,6.900195,6.425269,-3.694141,0.162695,0.179443,-0.278735,0.174658,0.031104,0.322998,thankyou
1616136283.769216,1,19.0,9.0,-10.0,-7.0,-2.0,0.721313,0.2724,-0.636292,0.023438,-0.015267,-0.007634,-0.007634,9.112134,3.584082,0.410327,-0.008374,0.025122,0.0,-0.010767,0.023926,0.001196,thankyou
1616136283.7792742,1,21.0,3.0,-8.0,-7.0,1.0,0.721375,0.272278,-0.636353,0.023254,-0.015267,-0.007634,0.0,9.139648,3.608008,0.424683,0.017944,0.047852,0.014355,-0.027515,0.028711,0.033496,thankyou
1616136283.7891543,1,18.0,9.0,-13.0,-7.0,0.0,0.721436,0.272034,-0.636353,0.023071,-0.022901,-0.007634,0.0,9.152807,3.627148,0.435449,0.031104,0.068188,0.022729,-0.039478,0.038281,0.053833,thankyou
1616136283.7991009,1,20.0,5.0,-8.0,-7.0,1.0,0.721558,0.271851,-0.636353,0.022949,-0.015267,0.0,0.0,9.156397,3.631934,0.462964,0.033496,0.072974,0.047852,-0.0646,0.031104,0.058618,thankyou
1616136283.8091185,1,19.0,10.0,-7.0,-7.0,1.0,0.72168,0.271667,-0.636292,0.022888,-0.022901,0.0,0.0,9.142041,3.63313,0.479712,0.019141,0.075366,0.061011,-0.080151,0.0323,0.046655,thankyou
1616136283.8189895,1,21.0,10.0,-10.0,-7.0,4.0,0.721863,0.271362,-0.63623,0.022705,-0.022901,0.0,0.0,9.118115,3.623559,0.500049,-0.003589,0.066992,0.076563,-0.094507,0.025122,0.023926,thankyou
1616136283.8293982,1,21.0,9.0,-9.0,-6.0,4.0,0.721985,0.271057,-0.636169,0.022522,-0.030534,0.0,0.0,9.098974,3.603223,0.535937,-0.022729,0.047852,0.107666,-0.119629,0.002393,0.0,thankyou
1616136283.8391137,1,21.0,10.0,-10.0,-7.0,4.0,0.722107,0.270752,-0.636169,0.022339,-0.030534,-0.007634,0.0,9.083423,3.567334,0.525171,-0.038281,0.013159,0.094507,-0.096899,-0.015552,-0.026318,thankyou
1616136283.849232,1,21.0,9.0,-8.0,-5.0,1.0,0.722229,0.270447,-0.636169,0.022156,-0.022901,-0.007634,0.0,9.07146,3.525464,0.507227,-0.050244,-0.026318,0.072974,-0.065796,-0.037085,-0.052637,thankyou
1616136283.8592584,1,21.0,8.0,-10.0,-7.0,-1.0,0.72229,0.270203,-0.63623,0.022034,-0.022901,-0.007634,0.0,9.066675,3.474023,0.483301,-0.056226,-0.075366,0.047852,-0.025122,-0.065796,-0.076563,thankyou
1616136283.8692436,1,19.0,7.0,-8.0,-7.0,-2.0,0.722229,0.27002,-0.636353,0.021973,-0.015267,-0.007634,0.0,9.070264,3.434546,0.458179,-0.053833,-0.113647,0.023926,0.010767,-0.089722,-0.089722,thankyou
1616136283.879178,1,20.0,7.0,-7.0,-4.0,3.0,0.722168,0.269836,-0.636475,0.021973,-0.007634,-0.015267,0.0,9.079834,3.416602,0.436646,-0.044263,-0.128003,0.003589,0.035889,-0.096899,-0.087329,thankyou
1616136283.889246,1,20.0,9.0,-10.0,-5.0,-1.0,0.722107,0.269714,-0.636597,0.021912,-0.007634,-0.007634,-0.007634,9.092993,3.411816,0.433057,-0.0323,-0.131592,0.002393,0.040674,-0.102881,-0.076563,thankyou
1616136283.89927,1,19.0,7.0,-10.0,-7.0,4.0,0.722107,0.269592,-0.636658,0.02179,-0.015267,-0.007634,-0.007634,9.098974,3.408227,0.437842,-0.026318,-0.135181,0.007178,0.038281,-0.110059,-0.072974,thankyou
1616136283.909187,1,18.0,8.0,-8.0,-7.0,-1.0,0.722168,0.269409,-0.636719,0.021606,-0.022901,-0.007634,-0.007634,9.091797,3.416602,0.430664,-0.034692,-0.126807,0.0,0.040674,-0.096899,-0.077759,thankyou
1616136283.9191487,1,17.0,8.0,-11.0,-5.0,1.0,0.722168,0.269226,-0.63678,0.021301,-0.022901,-0.007634,-0.007634,9.073853,3.423779,0.411523,-0.05144,-0.120825,-0.019141,0.052637,-0.078955,-0.092114,thankyou
1616136283.9291952,1,19.0,7.0,-10.0,-7.0,5.0,0.722168,0.269043,-0.636902,0.020996,-0.022901,-0.015267,-0.015267,9.066675,3.422583,0.409131,-0.058618,-0.123218,-0.020337,0.052637,-0.077759,-0.099292,thankyou
1616136283.939264,1,19.0,6.0,-11.0,-8.0,-1.0,0.722168,0.26886,-0.636963,0.020691,-0.022901,-0.007634,-0.015267,9.077441,3.391479,0.387598,-0.046655,-0.155518,-0.043066,0.087329,-0.099292,-0.100488,thankyou
1616136283.949158,1,17.0,8.0,-10.0,-6.0,2.0,0.722107,0.26886,-0.637085,0.020569,-0.007634,-0.007634,-0.015267,9.096582,3.365161,0.362476,-0.027515,-0.183032,-0.0646,0.120825,-0.120825,-0.094507,thankyou
1616136283.959299,1,17.0,9.0,-11.0,-5.0,-1.0,0.721985,0.269043,-0.637085,0.020569,0.007634,-0.007634,-0.015267,9.124097,3.35918,0.351709,0.0,-0.19021,-0.072974,0.136377,-0.131592,-0.071777,thankyou
1616136283.9690344,1,19.0,8.0,-11.0,-13.0,-1.0,0.721863,0.269348,-0.637085,0.020691,0.022901,-0.007634,-0.015267,9.138453,3.385498,0.351709,0.014355,-0.166284,-0.069385,0.126807,-0.117236,-0.049048,thankyou
1616136283.9791536,1,19.0,8.0,-10.0,-7.0,0.0,0.721741,0.269775,-0.637085,0.020813,0.022901,-0.007634,-0.015267,9.143237,3.434546,0.360083,0.020337,-0.120825,-0.057422,0.100488,-0.084937,-0.026318,thankyou
1616136283.9891217,1,21.0,8.0,-10.0,-7.0,1.0,0.721558,0.270203,-0.637085,0.020935,0.022901,-0.007634,-0.015267,9.150415,3.495557,0.395972,0.028711,-0.063403,-0.016748,0.044263,-0.055029,0.002393,thankyou
1616136283.998524,1,19.0,8.0,-8.0,-6.0,0.0,0.721497,0.270508,-0.637085,0.020935,0.007634,-0.007634,-0.015267,9.16477,3.562549,0.435449,0.044263,-0.001196,0.023926,-0.011963,-0.023926,0.040674,thankyou
1616136284.0089068,1,19.0,7.0,-9.0,-8.0,-1.0,0.721436,0.27063,-0.637024,0.020752,-0.007634,-0.007634,-0.015267,9.176733,3.637915,0.467749,0.058618,0.069385,0.057422,-0.066992,0.016748,0.081348,thankyou
1616136284.018332,1,20.0,7.0,-8.0,-7.0,1.0,0.721558,0.27063,-0.636963,0.020447,-0.022901,-0.007634,-0.015267,9.180323,3.700122,0.477319,0.063403,0.126807,0.0646,-0.093311,0.061011,0.107666,thankyou
1616136284.028558,1,21.0,7.0,-11.0,-7.0,1.0,0.72168,0.270508,-0.636902,0.02002,-0.030534,-0.007634,-0.015267,9.16836,3.718066,0.453394,0.052637,0.141162,0.037085,-0.075366,0.087329,0.101685,thankyou
1616136284.0387084,1,21.0,7.0,-12.0,-6.0,-2.0,0.721802,0.270325,-0.636841,0.019592,-0.030534,0.0,-0.015267,9.162378,3.690552,0.42229,0.047852,0.110059,0.002393,-0.033496,0.077759,0.08374,thankyou
1616136284.0483286,1,20.0,10.0,-6.0,-7.0,1.0,0.721924,0.270142,-0.63678,0.019287,-0.022901,0.0,-0.007634,9.154004,3.673804,0.384009,0.040674,0.090918,-0.037085,0.007178,0.078955,0.069385,thankyou
1616136284.058269,1,17.0,9.0,-8.0,-7.0,1.0,0.721985,0.270081,-0.636719,0.019104,-0.015267,0.007634,-0.007634,9.143237,3.659448,0.340942,0.031104,0.075366,-0.082544,0.052637,0.088525,0.052637,thankyou
1616136284.068334,1,17.0,7.0,-10.0,-7.0,-1.0,0.722046,0.270142,-0.636658,0.019104,0.0,0.007634,-0.007634,9.132471,3.636719,0.305054,0.020337,0.05144,-0.119629,0.093311,0.086133,0.0323,thankyou
1616136284.0783165,1,18.0,6.0,-11.0,-7.0,-4.0,0.721985,0.270264,-0.636597,0.019287,0.007634,0.007634,0.0,9.121704,3.619971,0.266772,0.010767,0.035889,-0.15791,0.131592,0.092114,0.015552,thankyou
1616136284.0884285,1,21.0,9.0,-10.0,-7.0,-1.0,0.721924,0.270508,-0.636597,0.019531,0.015267,0.0,0.0,9.114527,3.613989,0.253613,0.002393,0.029907,-0.168677,0.142358,0.094507,0.004785,thankyou
1616136284.0983171,1,19.0,7.0,-10.0,-7.0,-1.0,0.721802,0.270752,-0.636597,0.019897,0.022901,0.0,0.0,9.11333,3.617578,0.246436,0.001196,0.034692,-0.172266,0.143555,0.100488,0.005981,thankyou
1616136284.108281,1,19.0,9.0,-8.0,-7.0,-3.0,0.721619,0.271057,-0.636719,0.020264,0.022901,-0.007634,0.007634,9.119311,3.635522,0.252417,0.005981,0.053833,-0.161499,0.126807,0.111255,0.017944,thankyou
1616136284.1182594,1,20.0,8.0,-10.0,-6.0,1.0,0.721436,0.271362,-0.63678,0.02063,0.022901,-0.007634,0.007634,9.137256,3.677392,0.275146,0.022729,0.096899,-0.133984,0.088525,0.130396,0.050244,thankyou
1616136284.1285431,1,19.0,7.0,-12.0,-7.0,-3.0,0.721375,0.271484,-0.63678,0.020813,0.007634,0.0,0.007634,9.149219,3.719263,0.311035,0.034692,0.139966,-0.095703,0.040674,0.147144,0.078955,thankyou
1616136284.1383846,1,20.0,9.0,-8.0,-6.0,2.0,0.721375,0.271423,-0.63678,0.020935,-0.007634,0.0,0.007634,9.158789,3.708496,0.346924,0.043066,0.131592,-0.061011,0.013159,0.123218,0.084937,thankyou
1616136284.148322,1,20.0,9.0,-8.0,-7.0,1.0,0.721558,0.271179,-0.636719,0.021057,-0.015267,0.007634,0.007634,9.171948,3.645093,0.364868,0.055029,0.071777,-0.047852,0.026318,0.063403,0.07417,thankyou
1616136284.1582685,1,17.0,5.0,-11.0,-7.0,0.0,0.721802,0.270874,-0.636536,0.021179,-0.015267,0.015267,0.007634,9.154004,3.575708,0.374438,0.035889,0.007178,-0.045459,0.044263,0.013159,0.033496,thankyou
1616136284.168322,1,20.0,8.0,-11.0,-7.0,1.0,0.722046,0.270691,-0.636353,0.021362,-0.007634,0.022901,0.0,9.121704,3.514697,0.395972,0.002393,-0.049048,-0.031104,0.046655,-0.028711,-0.016748,thankyou
1616136284.1784022,1,21.0,9.0,-11.0,-4.0,1.0,0.72229,0.270569,-0.636108,0.021606,0.0,0.022901,0.0,9.092993,3.489575,0.424683,-0.026318,-0.070581,-0.00957,0.029907,-0.047852,-0.050244,thankyou
1616136284.1884928,1,19.0,9.0,-8.0,-6.0,-3.0,0.722534,0.270508,-0.635803,0.021729,-0.007634,0.015267,0.0,9.058301,3.489575,0.462964,-0.059814,-0.069385,0.020337,-0.003589,-0.047852,-0.078955,thankyou
1616136284.1982508,1,21.0,6.0,-11.0,-7.0,-1.0,0.722717,0.270386,-0.63562,0.021729,-0.007634,0.007634,0.0,9.018824,3.481201,0.482104,-0.099292,-0.077759,0.033496,-0.019141,-0.049048,-0.118433,thankyou
1616136284.208346,1,19.0,9.0,-10.0,-7.0,0.0,0.722839,0.270325,-0.635559,0.021667,-0.007634,0.0,-0.007634,9.006861,3.456079,0.509619,-0.111255,-0.102881,0.058618,-0.034692,-0.076563,-0.137573,thankyou
1616136284.2184887,1,20.0,6.0,-15.0,-5.0,-1.0,0.7229,0.270264,-0.635498,0.021667,-0.007634,-0.007634,-0.007634,9.000879,3.427368,0.523975,-0.117236,-0.131592,0.070581,-0.037085,-0.104077,-0.153125,thankyou
1616136284.2283702,1,19.0,8.0,-10.0,-39.0,1.0,0.722839,0.270264,-0.635559,0.021729,0.007634,-0.007634,-0.007634,9.016431,3.40105,0.519189,-0.102881,-0.156714,0.068188,-0.022729,-0.129199,-0.14834,thankyou
1616136284.2384567,1,20.0,8.0,-12.0,-7.0,1.0,0.722778,0.270386,-0.63562,0.021912,0.007634,-0.007634,0.0,9.047534,3.392676,0.532349,-0.072974,-0.163892,0.08374,-0.027515,-0.151929,-0.123218,thankyou
1616136284.248558,1,19.0,9.0,-10.0,-6.0,-2.0,0.722717,0.270508,-0.635559,0.022156,0.015267,0.0,0.0,9.060694,3.397461,0.545508,-0.058618,-0.15791,0.096899,-0.039478,-0.156714,-0.10647,thankyou
1616136284.2583222,1,19.0,8.0,-7.0,-6.0,0.0,0.722717,0.27063,-0.635559,0.022339,0.015267,0.0,-0.007634,9.063086,3.418994,0.537134,-0.057422,-0.135181,0.089722,-0.040674,-0.133984,-0.098096,thankyou
1616136284.2682476,1,17.0,8.0,-11.0,-6.0,1.0,0.722656,0.270874,-0.635498,0.022461,0.007634,0.0,-0.007634,9.057104,3.453686,0.522778,-0.062207,-0.102881,0.076563,-0.04187,-0.099292,-0.090918,thankyou
1616136284.278358,1,21.0,8.0,-11.0,-7.0,-3.0,0.722656,0.270996,-0.635437,0.022461,0.0,0.0,-0.007634,9.045141,3.496753,0.504834,-0.07417,-0.061011,0.058618,-0.044263,-0.052637,-0.087329,thankyou
1616136284.2887485,1,20.0,15.0,-10.0,-7.0,-1.0,0.722656,0.271118,-0.635376,0.022339,-0.007634,-0.007634,-0.015267,9.051123,3.529053,0.497656,-0.066992,-0.0323,0.05144,-0.046655,-0.027515,-0.070581,thankyou
1616136284.2982926,1,21.0,10.0,-11.0,-7.0,4.0,0.722717,0.271118,-0.635376,0.022156,-0.015267,-0.007634,-0.015267,9.064282,3.550586,0.478516,-0.052637,-0.013159,0.031104,-0.0323,-0.007178,-0.05144,thankyou
1616136284.3084643,1,22.0,9.0,-8.0,-7.0,-1.0,0.722656,0.271179,-0.635376,0.021973,-0.007634,-0.007634,-0.015267,9.076245,3.538623,0.434253,-0.039478,-0.028711,-0.010767,0.011963,-0.007178,-0.046655,thankyou
1616136284.3184936,1,22.0,7.0,-12.0,-7.0,-1.0,0.722595,0.271301,-0.635376,0.021912,0.0,-0.007634,-0.015267,9.109741,3.514697,0.384009,-0.004785,-0.053833,-0.059814,0.072974,-0.019141,-0.026318,thankyou
1616136284.3282638,1,19.0,5.0,-10.0,-9.0,1.0,0.722473,0.271545,-0.635437,0.022034,0.015267,-0.007634,-0.007634,9.14563,3.513501,0.332568,0.029907,-0.056226,-0.107666,0.124414,-0.011963,0.002393,thankyou
1616136284.3384652,1,20.0,9.0,-12.0,-7.0,-1.0,0.72229,0.271912,-0.635498,0.022278,0.030534,0.0,-0.007634,9.176733,3.551782,0.299072,0.061011,-0.019141,-0.135181,0.141162,0.020337,0.043066,thankyou
1616136284.3482914,1,19.0,9.0,-11.0,-5.0,-1.0,0.722107,0.272339,-0.635498,0.022644,0.030534,0.0,0.0,9.198267,3.616382,0.312231,0.082544,0.043066,-0.117236,0.105273,0.059814,0.086133,thankyou
1616136284.358156,1,20.0,6.0,-11.0,-7.0,1.0,0.721985,0.272705,-0.635437,0.022888,0.022901,0.0,0.0,9.211426,3.7073,0.328979,0.096899,0.132788,-0.098096,0.056226,0.123218,0.133984,thankyou
1616136284.368427,1,20.0,8.0,-7.0,-7.0,1.0,0.721924,0.272888,-0.635437,0.02301,0.007634,0.0,0.0,9.215014,3.765918,0.34812,0.100488,0.19021,-0.076563,0.015552,0.161499,0.159106,thankyou
1616136284.3780875,1,22.0,8.0,-10.0,-6.0,4.0,0.721985,0.272888,-0.635437,0.02301,-0.007634,0.0,0.0,9.211426,3.774292,0.366064,0.095703,0.198584,-0.059814,-0.002393,0.163892,0.15791,thankyou
1616136284.3882904,1,19.0,7.0,-10.0,-6.0,2.0,0.722107,0.272705,-0.635376,0.022949,-0.015267,0.007634,0.0,9.204248,3.746777,0.392383,0.088525,0.172266,-0.037085,-0.014355,0.133984,0.142358,thankyou
1616136284.3982806,1,22.0,7.0,-7.0,-7.0,-3.0,0.72229,0.272461,-0.635254,0.022888,-0.022901,0.007634,0.0,9.185107,3.696533,0.439038,0.069385,0.123218,0.002393,-0.034692,0.081348,0.108862,thankyou
1616136284.4081745,1,21.0,7.0,-8.0,-6.0,0.0,0.722534,0.272217,-0.635071,0.022766,-0.022901,0.007634,-0.007634,9.142041,3.615185,0.488086,0.026318,0.043066,0.045459,-0.05144,0.008374,0.04187,thankyou
1616136284.4183793,1,19.0,8.0,-12.0,-8.0,-3.0,0.722778,0.272034,-0.634888,0.022644,-0.015267,0.007634,-0.015267,9.09419,3.521875,0.574219,-0.020337,-0.049048,0.124414,-0.096899,-0.087329,-0.029907,thankyou
1616136284.4284835,1,20.0,8.0,-12.0,-7.0,0.0,0.723022,0.271912,-0.634644,0.022461,-0.015267,0.007634,-0.015267,9.059497,3.460864,0.709399,-0.053833,-0.112451,0.252417,-0.196191,-0.184229,-0.078955,thankyou
1616136284.4383464,1,20.0,7.0,-8.0,-7.0,0.0,0.72345,0.271851,-0.634216,0.022339,-0.015267,0.015267,-0.015267,9.03916,3.43335,0.939087,-0.071777,-0.143555,0.470142,-0.385205,-0.297876,-0.095703,thankyou
1616136284.4480894,1,17.0,7.0,-13.0,-7.0,0.0,0.72406,0.271667,-0.633545,0.022278,-0.007634,0.022901,-0.015267,9.016431,3.366357,1.256104,-0.092114,-0.211743,0.769214,-0.634033,-0.474927,-0.124414,thankyou
1616136284.458296,1,19.0,7.0,-8.0,-25.0,-4.0,0.724976,0.271606,-0.632507,0.022522,0.015267,0.038168,-0.022901,8.972168,3.162988,1.752563,-0.135181,-0.416309,1.239355,-0.990527,-0.83501,-0.212939,thankyou
1616136284.468429,1,19.0,5.0,-12.0,-7.0,-4.0,0.726379,0.271606,-0.63092,0.023254,0.045802,0.068702,-0.030534,8.892016,2.842383,2.552881,-0.214136,-0.736914,2.000195,-1.57312,-1.408032,-0.355298,thankyou
1616136284.4781651,1,19.0,8.0,-8.0,-7.0,4.0,0.728333,0.271667,-0.62854,0.024536,0.076336,0.091603,-0.030534,8.69104,2.457178,3.692944,-0.411523,-1.11853,3.082837,-2.445215,-2.140161,-0.598145,thankyou
1616136284.488152,1,19.0,7.0,-10.0,-7.0,-3.0,0.73114,0.271484,-0.625366,0.02594,0.061069,0.091603,-0.022901,8.466138,2.274146,5.345019,-0.632837,-1.297974,4.653564,-3.836499,-2.911767,-0.732129,thankyou
1616136284.4982655,1,19.0,7.0,-10.0,-7.0,1.0,0.734924,0.269836,-0.621521,0.026306,-0.053435,0.068702,-0.015267,8.104858,2.203564,7.438525,-0.986938,-1.362573,6.637012,-5.681177,-3.718066,-0.868506,thankyou
1616136284.508684,1,22.0,11.0,-8.0,-7.0,1.0,0.739685,0.265869,-0.617676,0.024292,-0.267176,-0.022901,-0.038168,7.446899,2.106665,9.679174,-1.634131,-1.453491,8.74248,-7.73042,-4.46814,-1.207056,thankyou
1616136284.518177,1,20.0,9.0,-10.0,-6.0,0.0,0.744446,0.259521,-0.614929,0.01825,-0.526718,-0.206107,-0.122137,6.26018,1.800415,11.544189,-2.804101,-1.765723,10.474707,-9.560742,-4.989722,-2.093506,thankyou
1616136284.52844,1,20.0,8.0,-12.0,-7.0,-1.0,0.747437,0.251953,-0.614624,0.007141,-0.725191,-0.496183,-0.29771,4.722949,0.985742,12.701001,-4.316211,-2.618677,11.548975,-10.784546,-5.445508,-3.587671,thankyou
1616136284.5385213,1,20.0,6.0,-10.0,-7.0,-1.0,0.747314,0.244629,-0.617737,-0.00824,-0.793893,-0.824427,-0.503817,3.29458,-0.305054,13.128077,-5.713477,-3.987231,11.979639,-11.304932,-5.969482,-5.347412,thankyou
1616136284.5483797,1,21.0,9.0,-9.0,-5.0,0.0,0.742981,0.239319,-0.624512,-0.026001,-0.694656,-1.145038,-0.671756,2.252612,-1.823145,12.834986,-6.719556,-5.626147,11.801392,-11.102758,-6.518579,-7.091601,thankyou
1616136284.5584636,1,20.0,8.0,-6.0,-7.0,1.0,0.733887,0.237427,-0.634888,-0.04364,-0.435115,-1.419847,-0.778626,1.618579,-3.048145,11.832495,-7.310523,-7.005469,11.038159,-10.240234,-6.750659,-8.595337,thankyou
1616136284.5683365,1,22.0,10.0,-8.0,-5.0,0.0,0.720032,0.240479,-0.648193,-0.059998,-0.091603,-1.603053,-0.870229,1.412817,-3.407031,10.187597,-7.451684,-7.56294,9.755737,-8.819043,-6.286499,-9.517675,thankyou
1616136284.5784,1,22.0,8.0,-10.0,-5.0,0.0,0.701965,0.249023,-0.663147,-0.074341,0.259542,-1.70229,-0.931298,1.613794,-2.786157,8.131177,-7.146631,-7.177734,8.164673,-7.064087,-5.151221,-9.633716,thankyou
1616136284.588158,1,19.0,6.0,-11.0,-7.0,0.0,0.68103,0.261658,-0.678345,-0.086792,0.48855,-1.694656,-0.938931,2.057617,-0.95105,5.915649,-6.550879,-5.597436,6.476709,-5.374927,-3.191699,-8.779566,thankyou
1616136284.5982306,1,19.0,9.0,-10.0,-6.0,1.0,0.659363,0.275513,-0.692444,-0.099182,0.458015,-1.603053,-0.877863,2.641406,2.125806,3.574512,-5.770898,-2.780176,4.659546,-3.934595,-0.399561,-6.861914,thankyou
1616136284.6081538,1,20.0,5.0,-10.0,-8.0,1.0,0.638794,0.287109,-0.70459,-0.114197,0.145038,-1.458015,-0.793893,3.332861,5.806787,0.906787,-4.846167,0.634033,2.452393,-2.439233,2.674902,-4.096094,thankyou
1616136284.6181328,1,19.0,6.0,-12.0,-5.0,0.0,0.620972,0.294128,-0.714233,-0.13324,-0.343511,-1.274809,-0.717557,4.021924,9.352588,-2.080347,-3.902295,3.90708,-0.185425,-0.598145,5.409619,-0.948657,thankyou
1616136284.6283226,1,19.0,6.0,-8.0,-6.0,-1.0,0.606262,0.295837,-0.721375,-0.156616,-0.847328,-1.091603,-0.656489,4.726538,11.94375,-5.293579,-2.93689,6.213525,-3.17854,1.866211,7.05332,2.021729,thankyou
1616136284.6382787,1,19.0,7.0,-11.0,-5.0,0.0,0.594604,0.292969,-0.72644,-0.181458,-1.160305,-0.900763,-0.580153,5.475415,12.942652,-8.280713,-1.947559,6.944458,-6.054419,4.652368,7.056909,4.14873,thankyou
1616136284.6481605,1,20.0,8.0,-7.0,-5.0,1.0,0.584839,0.288086,-0.730286,-0.204041,-1.160305,-0.732824,-0.496183,5.889331,12.587354,-11.019018,-1.329077,6.364258,-8.738892,7.531836,5.994605,5.094995,thankyou
1616136284.6581657,1,20.0,7.0,-8.0,-7.0,0.0,0.575256,0.283997,-0.734558,-0.221069,-0.862595,-0.618321,-0.396947,6.11543,11.25708,-13.154394,-0.935498,4.871289,-10.797705,9.852636,4.258789,5.096191,thankyou
1616136284.6681645,1,18.0,7.0,-8.0,-7.0,1.0,0.56543,0.282532,-0.739807,-0.230652,-0.389313,-0.519084,-0.29771,6.269751,9.844263,-14.388965,-0.650781,3.367554,-11.897095,11.105151,2.653369,4.789941,thankyou
1616136284.6783087,1,16.0,7.0,-10.0,-5.0,-2.0,0.555054,0.284546,-0.745911,-0.233521,0.076336,-0.450382,-0.229008,6.334351,9.082227,-14.849536,-0.477319,2.572021,-12.15669,11.362353,1.8052,4.715772,thankyou
1616136284.688174,1,19.0,7.0,-10.0,-9.0,-6.0,0.544373,0.28949,-0.75238,-0.231934,0.40458,-0.396947,-0.175573,6.314013,9.079834,-14.801684,-0.397168,2.569629,-11.863599,10.935278,1.733423,4.989722,thankyou
1616136284.698263,1,19.0,8.0,-8.0,-7.0,1.0,0.533752,0.295776,-0.758667,-0.228149,0.541985,-0.358779,-0.129771,6.334351,9.63252,-14.343506,-0.278735,3.145044,-11.147021,9.956714,2.121021,5.528052,thankyou
1616136284.708159,1,21.0,9.0,-7.0,-7.0,0.0,0.524536,0.301453,-0.763977,-0.224243,0.496183,-0.29771,-0.068702,6.489868,10.495044,-13.514478,-0.039478,4.037476,-10.093091,8.553467,2.658154,6.1573,thankyou
1616136284.7183056,1,20.0,7.0,-10.0,-6.0,0.0,0.517761,0.305359,-0.767822,-0.221741,0.320611,-0.221374,-0.007634,6.639404,11.332446,-12.559839,0.173462,4.896411,-8.976954,7.132276,3.161792,6.610693,thankyou
1616136284.728078,1,20.0,7.0,-10.0,-4.0,0.0,0.513672,0.306885,-0.770081,-0.221313,0.083969,-0.129771,0.038168,6.749463,11.773877,-11.598022,0.326587,5.342627,-7.929004,5.946753,3.380713,6.687256,thankyou
1616136284.7380376,1,18.0,7.0,-10.0,-7.0,-2.0,0.512268,0.306396,-0.770813,-0.222656,-0.122137,-0.030534,0.053435,6.81167,11.638697,-10.638598,0.409131,5.197876,-6.952832,5.051929,3.215625,6.297266,thankyou
1616136284.7482462,1,19.0,5.0,-11.0,-7.0,-1.0,0.513,0.304688,-0.770264,-0.225159,-0.259542,0.053435,0.053435,6.7698,11.028589,-9.711474,0.368457,4.565039,-6.062793,4.428662,2.78855,5.507715,thankyou
1616136284.7582018,1,19.0,5.0,-13.0,-7.0,-1.0,0.515015,0.302307,-0.768921,-0.22821,-0.335878,0.10687,0.045802,6.602319,10.072754,-8.864502,0.192603,3.581689,-5.284009,4.035083,2.209546,4.427466,thankyou
1616136284.768297,1,19.0,8.0,-8.0,-8.0,-11.0,0.517517,0.299866,-0.767334,-0.231201,-0.335878,0.122137,0.030534,6.390576,8.931494,-8.06897,-0.033496,2.411719,-4.565039,3.734814,1.539624,3.213233,thankyou
1616136284.7774596,1,19.0,6.0,-34.0,-7.0,-2.0,0.519836,0.297791,-0.76593,-0.233459,-0.267176,0.114504,0.015267,6.220703,7.785449,-7.279419,-0.220117,1.246533,-3.84248,3.389087,0.858936,2.033691,thankyou
1616136284.788143,1,19.0,7.0,-8.0,-7.0,-3.0,0.521729,0.296509,-0.764771,-0.234619,-0.167939,0.10687,0.0,6.119019,6.81167,-6.479102,-0.337354,0.261987,-3.092407,2.93689,0.269165,1.020435,thankyou
1616136284.7973847,1,22.0,10.0,-8.0,-7.0,-3.0,0.523071,0.295959,-0.763977,-0.234924,-0.076336,0.083969,-0.007634,6.006567,6.21831,-5.711084,-0.462964,-0.332568,-2.354297,2.405737,-0.029907,0.277539,thankyou
1616136284.8082097,1,19.0,7.0,-10.0,-7.0,1.0,0.523804,0.295837,-0.763489,-0.234863,-0.030534,0.045802,-0.007634,5.894116,5.987427,-5.037573,-0.581396,-0.563452,-1.696338,1.868603,-0.078955,-0.181836,thankyou
1616136284.8180425,1,17.0,7.0,-11.0,-7.0,-1.0,0.524109,0.295776,-0.763367,-0.234924,-0.015267,0.0,0.0,5.834302,5.935987,-4.446607,-0.6448,-0.617285,-1.110156,1.347021,-0.044263,-0.460571,thankyou
1616136284.828134,1,19.0,8.0,-9.0,-8.0,-4.0,0.523865,0.295593,-0.763489,-0.235046,0.0,-0.030534,0.0,5.822339,5.945557,-3.98125,-0.65437,-0.606519,-0.642407,0.907983,-0.008374,-0.618481,thankyou
1616136284.838243,1,17.0,8.0,-10.0,-7.0,1.0,0.523376,0.295593,-0.763855,-0.235046,0.022901,-0.053435,-0.007634,5.878564,5.994605,-3.645093,-0.594556,-0.556274,-0.295483,0.556274,0.002393,-0.662744,thankyou
1616136284.848123,1,21.0,9.0,-10.0,-21.0,3.0,0.522644,0.295715,-0.764343,-0.234985,0.038168,-0.061069,-0.007634,5.961108,6.0927,-3.422583,-0.50603,-0.455786,-0.057422,0.288306,0.023926,-0.618481,thankyou
1616136284.858067,1,19.0,8.0,-10.0,-7.0,-3.0,0.52179,0.296082,-0.764832,-0.234802,0.045802,-0.053435,-0.015267,6.047241,6.262573,-3.302954,-0.411523,-0.284717,0.080151,0.099292,0.087329,-0.488086,thankyou
1616136284.867422,1,20.0,6.0,-12.0,-6.0,-3.0,0.521057,0.296509,-0.765198,-0.234802,0.038168,-0.045802,-0.022901,6.11543,6.474317,-3.283813,-0.333765,-0.075366,0.114844,0.001196,0.184229,-0.309839,thankyou
1616136284.8774958,1,19.0,7.0,-10.0,-7.0,0.0,0.520264,0.296936,-0.765503,-0.234924,0.022901,-0.045802,-0.022901,6.169263,6.625049,-3.356787,-0.269165,0.071777,0.056226,0.007178,0.24165,-0.14834,thankyou
1616136284.888123,1,19.0,7.0,-10.0,-4.0,0.0,0.519409,0.297424,-0.765869,-0.235046,0.030534,-0.045802,-0.030534,6.223096,6.688452,-3.501538,-0.203369,0.131592,-0.070581,0.095703,0.23208,-0.020337,thankyou
1616136284.897378,1,19.0,9.0,-10.0,-7.0,0.0,0.518433,0.297913,-0.766357,-0.234863,0.038168,-0.045802,-0.022901,6.280518,6.706397,-3.678589,-0.135181,0.150732,-0.227295,0.217725,0.19021,0.092114,thankyou
1616136284.907425,1,19.0,6.0,-8.0,-9.0,1.0,0.517395,0.298584,-0.766968,-0.234497,0.061069,-0.045802,-0.022901,6.370239,6.72793,-3.847266,-0.034692,0.174658,-0.37085,0.318213,0.129199,0.224902,thankyou
1616136284.9174063,1,19.0,-6.0,-8.0,-7.0,1.0,0.516235,0.299377,-0.767578,-0.233887,0.076336,-0.038168,-0.030534,6.49585,6.809278,-3.956128,0.101685,0.260791,-0.451001,0.333765,0.090918,0.400757,thankyou
1616136284.9274435,1,17.0,7.0,-10.0,-7.0,-3.0,0.51532,0.300232,-0.768066,-0.233276,0.076336,-0.030534,-0.030534,6.637012,6.958814,-4.00398,0.251221,0.413916,-0.474927,0.277539,0.094507,0.610107,thankyou
1616136284.9373736,1,17.0,5.0,-11.0,-6.0,-3.0,0.514587,0.301086,-0.768311,-0.232849,0.053435,-0.022901,-0.030534,6.755445,7.147827,-4.01355,0.38042,0.604126,-0.466553,0.189014,0.13877,0.819458,thankyou
1616136284.9474375,1,19.0,7.0,-8.0,-7.0,-12.0,0.514221,0.301697,-0.768372,-0.232788,0.022901,-0.015267,-0.030534,6.871484,7.318896,-3.99082,0.503638,0.771606,-0.434253,0.084937,0.172266,1.000098,thankyou
1616136284.9573572,1,20.0,9.0,-10.0,-6.0,1.0,0.514221,0.301941,-0.768127,-0.233154,-0.022901,0.0,-0.030534,6.971972,7.452881,-3.953735,0.608911,0.898413,-0.401953,-0.002393,0.189014,1.14126,thankyou
1616136284.967485,1,21.0,8.0,-11.0,-7.0,-2.0,0.514526,0.301941,-0.7677,-0.234009,-0.061069,0.007634,-0.030534,7.048535,7.54978,-3.915454,0.690259,0.98335,-0.376831,-0.066992,0.191406,1.241748,thankyou
1616136284.9773605,1,19.0,7.0,-9.0,-7.0,-1.0,0.515137,0.301514,-0.767029,-0.235291,-0.099237,0.015267,-0.022901,7.113135,7.565332,-3.862817,0.758447,0.98335,-0.349316,-0.107666,0.142358,1.27644,thankyou
1616136284.987462,1,20.0,9.0,-8.0,-6.0,-3.0,0.515991,0.300903,-0.766235,-0.236755,-0.122137,0.022901,-0.022901,7.135864,7.445703,-3.834106,0.782373,0.845776,-0.350513,-0.080151,0.026318,1.201074,thankyou
1616136284.9973412,1,20.0,10.0,-8.0,-6.0,2.0,0.516846,0.300171,-0.765503,-0.238159,-0.122137,0.022901,-0.022901,7.116724,7.271045,-3.822144,0.762036,0.656763,-0.369653,-0.011963,-0.093311,1.06709,thankyou
1616136285.007479,1,19.0,6.0,-11.0,-6.0,0.0,0.517578,0.299561,-0.764893,-0.239319,-0.099237,0.022901,-0.022901,7.079638,7.093994,-3.820947,0.724951,0.466553,-0.393579,0.063403,-0.203369,0.922339,thankyou
1616136285.017365,1,21.0,7.0,-10.0,-6.0,-1.0,0.518188,0.299133,-0.764404,-0.240112,-0.076336,0.015267,-0.022901,7.04375,6.944458,-3.795825,0.68667,0.308643,-0.388794,0.104077,-0.288306,0.788355,thankyou
1616136285.0277965,1,17.0,7.0,-6.0,-6.0,-1.0,0.518616,0.29895,-0.764038,-0.240662,-0.045802,0.015267,-0.022901,6.993506,6.845166,-3.756348,0.636426,0.202173,-0.362476,0.11604,-0.327783,0.674707,thankyou
1616136285.0372827,1,20.0,9.0,-10.0,-4.0,1.0,0.518982,0.298889,-0.763733,-0.240906,-0.022901,0.015267,-0.022901,6.944458,6.745874,-3.720459,0.586182,0.099292,-0.336157,0.128003,-0.362476,0.563452,thankyou
1616136285.047555,1,21.0,5.0,-22.0,-7.0,0.0,0.519165,0.299072,-0.763611,-0.240723,0.007634,0.015267,-0.015267,6.889429,6.645386,-3.698926,0.529956,0.0,-0.317017,0.147144,-0.392383,0.452197,thankyou
1616136285.057293,1,17.0,8.0,-9.0,-7.0,1.0,0.519287,0.299438,-0.76355,-0.240173,0.030534,0.015267,-0.007634,6.832007,6.639404,-3.661841,0.470142,-0.002393,-0.277539,0.128003,-0.349316,0.398364,thankyou
1616136285.067676,1,18.0,6.0,-12.0,-36.0,1.0,0.519287,0.299927,-0.76355,-0.239563,0.038168,0.015267,-0.007634,6.768603,6.733911,-3.608008,0.404346,0.095703,-0.217725,0.069385,-0.229687,0.401953,thankyou
1616136285.0773177,1,19.0,8.0,-11.0,-7.0,-1.0,0.519348,0.300232,-0.76355,-0.239136,0.030534,0.007634,0.0,6.701612,6.877466,-3.560156,0.336157,0.24165,-0.166284,0.00957,-0.075366,0.439038,thankyou
1616136285.0878656,1,20.0,8.0,-10.0,-7.0,1.0,0.519348,0.300415,-0.76355,-0.238953,0.007634,0.0,0.007634,6.640601,6.993506,-3.533838,0.275146,0.358887,-0.137573,-0.022729,0.050244,0.468945,thankyou
1616136285.0971456,1,19.0,7.0,-8.0,-7.0,4.0,0.519348,0.300232,-0.76355,-0.239014,-0.015267,-0.007634,0.007634,6.610693,7.046143,-3.536231,0.244043,0.41272,-0.142358,-0.021533,0.110059,0.48689,thankyou
1616136285.107292,1,19.0,8.0,-8.0,-7.0,-2.0,0.519348,0.299927,-0.763611,-0.239258,-0.030534,-0.015267,0.007634,6.601123,7.042554,-3.555371,0.234473,0.407935,-0.162695,0.0,0.112451,0.484497,thankyou
1616136285.1173956,1,19.0,9.0,-8.0,-7.0,1.0,0.519409,0.2995,-0.763672,-0.239563,-0.038168,-0.015267,0.007634,6.617871,6.948047,-3.599634,0.248828,0.312231,-0.210547,0.061011,0.0323,0.44502,thankyou
1616136285.1272657,1,17.0,5.0,-10.0,-6.0,-1.0,0.519531,0.299072,-0.763672,-0.239685,-0.030534,0.0,0.007634,6.664526,6.824829,-3.658252,0.293091,0.191406,-0.27395,0.133984,-0.086133,0.413916,thankyou
1616136285.137352,1,21.0,8.0,-9.0,-7.0,-2.0,0.519836,0.298889,-0.76355,-0.239563,-0.022901,0.022901,0.0,6.725537,6.659741,-3.715674,0.34812,0.028711,-0.337354,0.211743,-0.242847,0.361279,thankyou
1616136285.1473176,1,20.0,9.0,-9.0,-7.0,-1.0,0.520325,0.299011,-0.763306,-0.239197,0.0,0.045802,-0.015267,6.7375,6.538916,-3.795825,0.354102,-0.088525,-0.423486,0.31582,-0.334961,0.31582,thankyou
1616136285.1572244,1,20.0,8.0,-10.0,-6.0,0.0,0.520752,0.299622,-0.762939,-0.238647,0.022901,0.061069,-0.030534,6.693237,6.529346,-3.898706,0.307446,-0.096899,-0.529956,0.430664,-0.312231,0.31582,thankyou
1616136285.1675863,1,20.0,7.0,-10.0,-7.0,0.0,0.521057,0.300537,-0.762573,-0.238098,0.030534,0.061069,-0.030534,6.647779,6.641797,-3.962109,0.261987,0.013159,-0.593359,0.480908,-0.204565,0.382812,thankyou
1616136285.1773374,1,19.0,7.0,-7.0,-6.0,0.0,0.521423,0.30127,-0.762146,-0.237671,0.015267,0.053435,-0.022901,6.659741,6.833203,-3.962109,0.27395,0.203369,-0.598145,0.442627,-0.078955,0.520386,thankyou
1616136285.18749,1,20.0,9.0,-10.0,-6.0,-3.0,0.521851,0.301697,-0.761719,-0.237549,-0.007634,0.045802,-0.007634,6.702807,7.005469,-3.920239,0.31582,0.372046,-0.563452,0.362476,0.011963,0.649585,thankyou
1616136285.1972153,1,17.0,7.0,-12.0,-7.0,0.0,0.522461,0.301758,-0.761292,-0.23761,-0.030534,0.038168,0.0,6.74707,7.146631,-3.850854,0.356494,0.510815,-0.50603,0.269165,0.08374,0.750073,thankyou
1616136285.2073152,1,20.0,8.0,-8.0,-3.0,3.0,0.523132,0.301575,-0.760803,-0.237976,-0.053435,0.038168,0.0,6.776978,7.219604,-3.771899,0.381616,0.577808,-0.44502,0.192603,0.11604,0.790747,thankyou
1616136285.217236,1,18.0,7.0,-7.0,-7.0,0.0,0.523987,0.301086,-0.760193,-0.238586,-0.076336,0.038168,0.007634,6.797315,7.237549,-3.677392,0.397168,0.58977,-0.373242,0.120825,0.11604,0.784766,thankyou
1616136285.227285,1,20.0,5.0,-8.0,-6.0,-2.0,0.524902,0.300415,-0.759583,-0.239319,-0.091603,0.038168,0.007634,6.810473,7.193286,-3.587671,0.404346,0.539526,-0.309839,0.071777,0.078955,0.733325,thankyou
1616136285.2373002,1,17.0,8.0,-11.0,-7.0,-3.0,0.526001,0.299561,-0.758911,-0.240051,-0.091603,0.045802,0.015267,6.814063,7.103564,-3.483594,0.398364,0.443823,-0.235669,0.025122,0.019141,0.640015,thankyou
1616136285.2473123,1,18.0,7.0,-9.0,-7.0,2.0,0.527222,0.298767,-0.758179,-0.240784,-0.099237,0.045802,0.007634,6.775781,7.003076,-3.393872,0.350513,0.337354,-0.177051,0.005981,-0.017944,0.516797,thankyou
