"Alphabet","timestamp","user_id","flex_1","flex_2","flex_3","flex_4","flex_5","Qw","Qx","Qy","Qz","GYRx","GYRy","GYRz","ACCx","ACCy","ACCz","ACCx_body","ACCy_body","ACCz_body","ACCx_world","ACCy_world","ACCz_world"
"U","1617446670.348203","7","1","-5","-52","40","14","0.726807","-0.104919","-0.669495","-0.112183","0.007634","0.015267","-0.015267","9.627734","-0.089722","0.740503","-0.139966","-0.066992","-0.058618","0.023926","-0.077759","-0.143555"
"U","1617446670.338143","7","5","-3","-33","39","13","0.726624","-0.105164","-0.669617","-0.112183","0","0","-0.015267","9.606201","-0.114844","0.746484","-0.161499","-0.088525","-0.047852","0.004785","-0.094507","-0.163892"
"U","1617446670.3284154","7","1","-1","-35","38","13","0.726624","-0.105225","-0.669617","-0.112122","-0.015267","-0.007634","-0.015267","9.561938","-0.105273","0.741699","-0.205762","-0.077759","-0.052637","0.00957","-0.084937","-0.208154"
"U","1617446670.318113","7","8","-2","-33","36","14","0.726746","-0.105103","-0.669556","-0.111877","-0.022901","-0.015267","-0.015267","9.514087","-0.07417","0.741699","-0.253613","-0.044263","-0.055029","0.017944","-0.052637","-0.256006"
"U","1617446670.3084176","7","4","-4","-35","38","12","0.726929","-0.10498","-0.669434","-0.111633","-0.022901","-0.015267","-0.015267","9.479395","-0.062207","0.745288","-0.287109","-0.031104","-0.055029","0.019141","-0.039478","-0.289502"
"U","1617446670.298197","7","5","-4","-34","36","13","0.727051","-0.104858","-0.669312","-0.111328","-0.015267","-0.007634","-0.015267","9.484179","-0.081348","0.746484","-0.282324","-0.046655","-0.056226","0.016748","-0.055029","-0.284717"
"U","1617446670.288304","7","1","-4","-35","36","11","0.727173","-0.104858","-0.669312","-0.111084","-0.007634","0","-0.015267","9.524854","-0.100488","0.764429","-0.242847","-0.062207","-0.039478","0","-0.065796","-0.244043"
"U","1617446670.2781951","7","3","-3","-33","36","14","0.727112","-0.104919","-0.669312","-0.110901","0","0.007634","-0.015267","9.554761","-0.12561","0.788355","-0.211743","-0.084937","-0.014355","-0.028711","-0.080151","-0.211743"
"U","1617446670.2683558","7","2","-4","-33","35","13","0.72699","-0.105103","-0.669434","-0.11084","0.007634","0.007634","-0.007634","9.578687","-0.14834","0.806299","-0.187817","-0.104077","0.005981","-0.05144","-0.093311","-0.185425"
"U","1617446670.258247","7","1","-1","-33","37","15","0.726807","-0.105286","-0.669617","-0.11084","0.015267","0.007634","-0.007634","9.594238","-0.184229","0.819458","-0.172266","-0.13877","0.023926","-0.077759","-0.120825","-0.168677"
"U","1617446670.2483644","7","3","-3","-34","38","12","0.726624","-0.105469","-0.669739","-0.110962","0.007634","0.007634","-0.007634","9.587061","-0.208154","0.809888","-0.179443","-0.161499","0.019141","-0.080151","-0.143555","-0.175854"
"U","1617446670.2381265","7","0","-4","-35","35","11","0.726501","-0.10553","-0.669861","-0.111145","-0.007634","0.007634","0","9.576294","-0.186621","0.819458","-0.191406","-0.142358","0.0323","-0.088525","-0.122021","-0.186621"
"U","1617446670.2284577","7","3","-4","-34","39","16","0.72644","-0.105347","-0.669983","-0.111145","-0.022901","-0.007634","0","9.523657","-0.117236","0.823047","-0.244043","-0.076563","0.037085","-0.076563","-0.056226","-0.239258"
"U","1617446670.2184525","7","2","-4","-34","36","13","0.726501","-0.104919","-0.669983","-0.111023","-0.045802","-0.022901","0","9.41958","-0.010767","0.811084","-0.34812","0.025122","0.023926","-0.04187","0.038281","-0.344531"
"U","1617446670.2081692","7","5","-4","-34","38","12","0.726746","-0.104431","-0.669861","-0.110596","-0.045802","-0.022901","-0.007634","9.308325","0.102881","0.801514","-0.459375","0.137573","0.00957","-0.003589","0.143555","-0.456982"
"U","1617446670.1982048","7","4","-2","-33","31","12","0.726929","-0.104065","-0.6698","-0.110107","-0.022901","-0.007634","-0.007634","9.254492","0.139966","0.782373","-0.513208","0.177051","-0.011963","0.023926","0.175854","-0.512012"
"U","1617446670.1882937","7","0","-6","-33","36","12","0.72699","-0.104126","-0.6698","-0.109741","0.007634","0.015267","-0.007634","9.310718","0.046655","0.759644","-0.456982","0.088525","-0.034692","0.022729","0.082544","-0.458179"
"U","1617446670.1782796","7","2","-4","-33","39","15","0.726685","-0.104553","-0.670044","-0.109741","0.030534","0.038168","-0.015267","9.425562","-0.101685","0.746484","-0.342139","-0.052637","-0.039478","-0.004785","-0.055029","-0.343335"
"U","1617446670.1682086","7","3","-5","-34","38","11","0.726196","-0.105225","-0.67041","-0.109985","0.045802","0.038168","-0.015267","9.479395","-0.203369","0.72854","-0.289502","-0.150732","-0.044263","-0.025122","-0.150732","-0.290698"
"U","1617446670.1585186","7","4","-3","-33","34","11","0.725708","-0.105896","-0.670837","-0.110291","0.038168","0.038168","-0.015267","9.463842","-0.214136","0.721362","-0.30625","-0.15791","-0.038281","-0.033496","-0.155518","-0.30625"
"U","1617446670.148365","7","1","-3","-34","38","11","0.72522","-0.106506","-0.671204","-0.110535","0.022901","0.038168","-0.015267","9.447095","-0.193799","0.71897","-0.324194","-0.133984","-0.028711","-0.037085","-0.130396","-0.324194"
"U","1617446670.1383069","7","5","-1","-33","34","13","0.724792","-0.106934","-0.67157","-0.110657","0.015267","0.030534","-0.007634","9.449488","-0.166284","0.716577","-0.321802","-0.102881","-0.019141","-0.035889","-0.098096","-0.320605"
"U","1617446670.1283104","7","0","-4","-34","36","11","0.724426","-0.107117","-0.671936","-0.110718","0","0.015267","-0.007634","9.423169","-0.122021","0.697437","-0.349316","-0.058618","-0.027515","-0.016748","-0.057422","-0.349316"
"U","1617446670.1184108","7","1","-4","-33","39","12","0.724304","-0.107056","-0.672058","-0.110718","-0.015267","0","0","9.359766","-0.065796","0.65437","-0.41272","-0.003589","-0.068188","0.033496","-0.016748","-0.416309"
"U","1617446670.1082242","7","1","-3","-35","34","12","0.724304","-0.106873","-0.672119","-0.110596","-0.015267","-0.015267","-0.007634","9.282007","-0.002393","0.610107","-0.490479","0.057422","-0.111255","0.087329","0.028711","-0.497656"
"U","1617446670.098834","7","3","-3","-34","36","13","0.724365","-0.106812","-0.672058","-0.110413","0","-0.007634","-0.007634","9.225781","0.015552","0.544312","-0.546704","0.076563","-0.178247","0.151929","0.027515","-0.558667"
"U","1617446670.0881944","7","1","-4","-34","38","12","0.724365","-0.106995","-0.672058","-0.110352","0.015267","0.015267","-0.007634","9.272436","-0.049048","0.491675","-0.500049","0.015552","-0.230884","0.187817","-0.046655","-0.515601"
"U","1617446670.0783706","7","3","-4","-34","36","12","0.72406","-0.107361","-0.672241","-0.110596","0.030534","0.030534","-0.007634","9.382495","-0.12561","0.476123","-0.38999","-0.058618","-0.239258","0.18064","-0.122021","-0.405542"
"U","1617446670.0683942","7","3","-3","-33","36","12","0.723694","-0.107849","-0.672546","-0.110901","0.030534","0.030534","-0.007634","9.427954","-0.153125","0.470142","-0.345728","-0.084937","-0.235669","0.172266","-0.147144","-0.360083"
"U","1617446670.0584786","7","3","-3","-34","37","12","0.723328","-0.108276","-0.672791","-0.111206","0.022901","0.022901","-0.007634","9.424365","-0.160303","0.484497","-0.349316","-0.090918","-0.212939","0.149536","-0.145947","-0.362476"
"U","1617446670.0481887","7","3","-3","-34","38","13","0.723083","-0.108582","-0.672974","-0.111572","0.015267","0.015267","0","9.441113","-0.12561","0.519189","-0.333765","-0.057422","-0.172266","0.122021","-0.101685","-0.344531"
"U","1617446670.0381968","7","4","-4","-34","32","13","0.7229","-0.108704","-0.673096","-0.111755","0.007634","0.007634","0","9.461451","-0.065796","0.579004","-0.313428","0","-0.108862","0.081348","-0.027515","-0.319409"
"U","1617446670.0283682","7","1","-1","-33","39","15","0.722839","-0.108765","-0.673157","-0.111877","0","-0.015267","0","9.442309","-0.033496","0.620874","-0.332568","0.031104","-0.0646","0.047852","0.014355","-0.336157"
"U","1617446670.0181715","7","3","-5","-35","37","11","0.722961","-0.108765","-0.672974","-0.112061","0.007634","-0.030534","0.007634","9.38728","-0.027515","0.635229","-0.387598","0.034692","-0.055029","0.035889","0.021533","-0.38999"
"U","1617446670.008272","7","4","-5","-35","36","12","0.723267","-0.108765","-0.672668","-0.112366","0.007634","-0.030534","0.007634","9.358569","-0.029907","0.635229","-0.416309","0.029907","-0.0646","0.040674","0.014355","-0.419897"
"U","1617446669.9982276","7","3","-3","-33","38","12","0.723511","-0.108704","-0.672302","-0.112671","0.007634","-0.030534","0.007634","9.371729","-0.017944","0.653174","-0.401953","0.038281","-0.055029","0.034692","0.025122","-0.404346"
"U","1617446669.9884048","7","3","-1","-34","38","12","0.723755","-0.108643","-0.671997","-0.112976","0.007634","-0.030534","0.007634","9.369336","0.001196","0.669922","-0.403149","0.053833","-0.046655","0.031104","0.043066","-0.405542"
"U","1617446669.9782343","7","3","-5","-35","39","9","0.723999","-0.108643","-0.671692","-0.11322","0.007634","-0.030534","0.007634","9.351392","0.023926","0.681885","-0.421094","0.07417","-0.043066","0.033496","0.0646","-0.423486"
"U","1617446669.9682658","7","2","-5","-34","38","11","0.724243","-0.108582","-0.671448","-0.113464","0","-0.022901","0.007634","9.348999","0.046655","0.697437","-0.423486","0.094507","-0.034692","0.031104","0.086133","-0.424683"
"U","1617446669.9584458","7","4","-1","-35","37","12","0.724426","-0.108459","-0.671204","-0.113708","0","-0.015267","0.015267","9.370532","0.080151","0.708203","-0.400757","0.123218","-0.031104","0.038281","0.114844","-0.401953"
"U","1617446669.948293","7","3","-4","-55","36","12","0.724548","-0.108276","-0.671082","-0.113892","-0.007634","-0.015267","0.015267","9.41958","0.117236","0.721362","-0.351709","0.156714","-0.021533","0.043066","0.14834","-0.352905"
"U","1617446669.9386427","7","1","-5","-34","38","13","0.724609","-0.108032","-0.671021","-0.114014","-0.007634","-0.015267","0.015267","9.45188","0.151929","0.741699","-0.319409","0.186621","-0.003589","0.037085","0.181836","-0.319409"
"U","1617446669.9284358","7","4","-5","-34","38","13","0.724731","-0.107849","-0.670898","-0.114136","-0.007634","-0.015267","0.007634","9.479395","0.156714","0.757251","-0.290698","0.187817","0.007178","0.029907","0.186621","-0.289502"
"U","1617446669.91829","7","4","-3","-33","38","9","0.724792","-0.107788","-0.670837","-0.114258","0","-0.015267","0.007634","9.506909","0.129199","0.762036","-0.263184","0.15791","0.00957","0.020337","0.15791","-0.261987"
"U","1617446669.9083788","7","3","-3","-33","36","14","0.724854","-0.107788","-0.670715","-0.11438","0.007634","-0.015267","0","9.518872","0.093311","0.750073","-0.251221","0.120825","-0.003589","0.021533","0.118433","-0.250024"
"U","1617446669.8991852","7","0","-2","-34","35","15","0.724976","-0.107971","-0.670593","-0.114441","0.007634","-0.015267","-0.007634","9.528442","0.059814","0.740503","-0.24165","0.089722","-0.016748","0.025122","0.084937","-0.24165"
"U","1617446669.8881483","7","2","-3","-33","36","11","0.725037","-0.108154","-0.670471","-0.114563","0.007634","-0.007634","-0.007634","9.559546","0.0323","0.744092","-0.210547","0.063403","-0.015552","0.017944","0.059814","-0.210547"
"U","1617446669.8784523","7","4","-3","-33","39","13","0.725037","-0.108398","-0.67041","-0.114563","0","0","-0.015267","9.607397","0.015552","0.762036","-0.162695","0.050244","0.001196","0.001196","0.05144","-0.161499"
"U","1617446669.8689914","7","3","-3","-34","38","14","0.725037","-0.108582","-0.670349","-0.114441","0","-0.007634","-0.015267","9.646875","-0.011963","0.785962","-0.122021","0.026318","0.025122","-0.023926","0.034692","-0.119629"
"U","1617446669.8591783","7","5","-3","-34","36","13","0.725159","-0.108704","-0.670288","-0.11438","-0.007634","-0.015267","-0.015267","9.66123","-0.028711","0.809888","-0.108862","0.013159","0.046655","-0.047852","0.028711","-0.104077"
"U","1617446669.8491526","7","3","-6","-34","38","12","0.725281","-0.108765","-0.670166","-0.114197","-0.015267","-0.015267","-0.015267","9.654053","-0.031104","0.838599","-0.11604","0.014355","0.072974","-0.072974","0.038281","-0.108862"
"U","1617446669.8392284","7","1","-4","-33","38","14","0.725464","-0.108765","-0.670044","-0.113892","-0.015267","-0.015267","-0.022901","9.64209","-0.046655","0.873291","-0.128003","0.003589","0.104077","-0.10647","0.037085","-0.118433"
"U","1617446669.8291","7","1","-3","-33","38","9","0.725586","-0.108826","-0.669922","-0.113525","-0.015267","-0.015267","-0.022901","9.648071","-0.077759","0.894824","-0.120825","-0.020337","0.123218","-0.131592","0.020337","-0.110059"
"U","1617446669.819196","7","2","-4","-33","39","13","0.725708","-0.108948","-0.669861","-0.113098","-0.007634","-0.007634","-0.030534","9.640894","-0.137573","0.897217","-0.128003","-0.071777","0.123218","-0.14834","-0.027515","-0.117236"
"U","1617446669.8091044","7","3","-5","-33","39","11","0.725769","-0.109253","-0.6698","-0.112732","0","0","-0.030534","9.638501","-0.224902","0.887646","-0.130396","-0.149536","0.113647","-0.163892","-0.104077","-0.119629"
"U","1617446669.7991052","7","1","-3","-34","38","10","0.725708","-0.10968","-0.6698","-0.112488","0.015267","0.007634","-0.030534","9.646875","-0.301465","0.874487","-0.122021","-0.217725","0.102881","-0.173462","-0.172266","-0.111255"
"U","1617446669.7890673","7","3","-4","-34","36","12","0.725525","-0.110168","-0.669922","-0.112366","0.015267","0.015267","-0.022901","9.634912","-0.352905","0.852954","-0.133984","-0.260791","0.087329","-0.173462","-0.217725","-0.123218"
"U","1617446669.7791398","7","1","-5","-33","39","12","0.725281","-0.110413","-0.670166","-0.112427","0","0.022901","-0.015267","9.614575","-0.339746","0.831421","-0.154321","-0.246436","0.072974","-0.156714","-0.208154","-0.144751"
"U","1617446669.7691069","7","2","-2","-33","38","13","0.724976","-0.110474","-0.670471","-0.112427","-0.007634","0.022901","0","9.573901","-0.271558","0.813477","-0.196191","-0.178247","0.063403","-0.129199","-0.145947","-0.189014"
"U","1617446669.7590406","7","3","-5","-33","37","10","0.724609","-0.110352","-0.670898","-0.112549","-0.007634","0.022901","0.007634","9.524854","-0.198584","0.787158","-0.246436","-0.111255","0.046655","-0.096899","-0.087329","-0.240454"
"U","1617446669.7492356","7","3","-4","-34","39","11","0.724243","-0.110107","-0.671326","-0.11261","-0.007634","0.022901","0.007634","9.477002","-0.108862","0.753662","-0.295483","-0.027515","0.023926","-0.052637","-0.013159","-0.291895"
"U","1617446669.738933","7","3","-3","-33","36","12","0.723877","-0.109985","-0.671692","-0.112732","0","0.022901","0.007634","9.402832","-0.047852","0.708203","-0.369653","0.027515","-0.010767","-0.007178","0.027515","-0.368457"
"U","1617446669.7290523","7","0","-3","-33","37","13","0.723511","-0.109924","-0.672119","-0.112915","0.007634","0.030534","0.007634","9.333447","-0.011963","0.653174","-0.440234","0.058618","-0.056226","0.039478","0.044263","-0.442627"
"U","1617446669.719035","7","1","-1","-33","36","13","0.723022","-0.110046","-0.672546","-0.113098","0.022901","0.038168","0.007634","9.31311","-0.001196","0.599341","-0.460571","0.066992","-0.096899","0.080151","0.039478","-0.466553"
"U","1617446669.7091486","7","3","-4","-33","36","13","0.722534","-0.110352","-0.672974","-0.113403","0.030534","0.038168","0","9.309522","-0.019141","0.552686","-0.465356","0.046655","-0.131592","0.10647","0.00957","-0.472534"
"U","1617446669.6990774","7","1","-4","-34","36","13","0.722046","-0.110962","-0.673401","-0.11377","0.045802","0.038168","-0.007634","9.296362","-0.059814","0.497656","-0.480908","0.008374","-0.173462","0.133984","-0.038281","-0.491675"
"U","1617446669.689165","7","4","-1","-33","34","11","0.721558","-0.111633","-0.673706","-0.114136","0.045802","0.030534","-0.015267","9.279614","-0.092114","0.456982","-0.497656","-0.020337","-0.202173","0.151929","-0.075366","-0.509619"
"U","1617446669.6792471","7","3","-4","-33","36","10","0.721252","-0.112366","-0.673889","-0.114441","0.038168","0.022901","-0.015267","9.264063","-0.104077","0.44502","-0.514404","-0.026318","-0.206958","0.153125","-0.082544","-0.526367"
"U","1617446669.6691322","7","1","-3","-33","39","13","0.721008","-0.112976","-0.674011","-0.114685","0.030534","0.015267","-0.015267","9.287989","-0.110059","0.472534","-0.490479","-0.027515","-0.173462","0.123218","-0.07417","-0.500049"
"U","1617446669.6593523","7","4","-2","-33","40","13","0.720825","-0.113464","-0.674072","-0.114807","0.022901","0.015267","-0.015267","9.311914","-0.111255","0.508423","-0.466553","-0.023926","-0.132788","0.087329","-0.058618","-0.47373"
"U","1617446669.6493132","7","-1","-5","-34","36","12","0.720642","-0.113892","-0.674194","-0.114868","0.015267","0.015267","-0.015267","9.34541","-0.11604","0.5479","-0.433057","-0.025122","-0.088525","0.046655","-0.046655","-0.436646"
"U","1617446669.639242","7","0","-1","-33","39","13","0.720459","-0.114197","-0.674316","-0.114929","0.007634","0.015267","-0.007634","9.374121","-0.128003","0.57063","-0.404346","-0.033496","-0.061011","0.020337","-0.045459","-0.406738"
"U","1617446669.6291003","7","3","-2","-35","25","15","0.720276","-0.11438","-0.674438","-0.115051","0.007634","0.015267","-0.007634","9.408813","-0.136377","0.574219","-0.369653","-0.04187","-0.052637","0.011963","-0.05144","-0.37085"
"U","1617446669.6193185","7","-1","-3","-34","39","13","0.720093","-0.114502","-0.674622","-0.115051","0","0.007634","0","9.437525","-0.126807","0.586182","-0.342139","-0.031104","-0.035889","0.001196","-0.037085","-0.343335"
"U","1617446669.6093175","7","3","-5","-34","36","12","0.719971","-0.114563","-0.674744","-0.115173","0","0.007634","0","9.442309","-0.122021","0.565845","-0.337354","-0.027515","-0.052637","0.019141","-0.038281","-0.33855"
"U","1617446669.5991387","7","3","-5","-33","38","14","0.719788","-0.114563","-0.674866","-0.115234","0","0.007634","0","9.460254","-0.107666","0.544312","-0.318213","-0.015552","-0.070581","0.040674","-0.033496","-0.321802"
"U","1617446669.589152","7","8","-5","-35","36","11","0.719666","-0.114502","-0.675049","-0.115356","-0.007634","0.007634","0.007634","9.473413","-0.075366","0.515601","-0.30625","0.013159","-0.095703","0.075366","-0.014355","-0.311035"
"U","1617446669.579271","7","1","-4","-33","38","13","0.719543","-0.11438","-0.675171","-0.115417","-0.007634","0.007634","0.007634","9.468628","-0.04187","0.490479","-0.311035","0.043066","-0.117236","0.105273","0.005981","-0.317017"
"U","1617446669.5691504","7","2","-3","-35","35","12","0.719482","-0.114319","-0.675232","-0.115479","0","0.007634","0","9.459058","-0.034692","0.479712","-0.320605","0.049048","-0.126807","0.114844","0.00957","-0.327783"
"U","1617446669.559298","7","3","-4","-35","38","13","0.71936","-0.114319","-0.675354","-0.11554","0.007634","0.015267","0","9.469824","-0.052637","0.471338","-0.311035","0.028711","-0.132788","0.114844","-0.010767","-0.318213"
"U","1617446669.5492673","7","3","-3","-33","36","11","0.719177","-0.11438","-0.675537","-0.115662","0","0.015267","0","9.496142","-0.068188","0.477319","-0.284717","0.011963","-0.122021","0.101685","-0.023926","-0.290698"
"U","1617446669.5392225","7","0","-3","-34","39","12","0.719055","-0.114441","-0.675659","-0.115723","-0.007634","0.007634","0","9.524854","-0.061011","0.500049","-0.256006","0.019141","-0.095703","0.080151","-0.00957","-0.260791"
"U","1617446669.5292337","7","0","-3","-33","35","10","0.718933","-0.114319","-0.675781","-0.115784","-0.007634","0","0","9.530835","-0.038281","0.52876","-0.250024","0.038281","-0.063403","0.056226","0.017944","-0.253613"
"U","1617446669.5192926","7","-1","-5","-34","39","13","0.718994","-0.114197","-0.67572","-0.115723","-0.007634","-0.015267","0","9.478198","-0.0323","0.52876","-0.302661","0.044263","-0.065796","0.057422","0.023926","-0.30625"
"U","1617446669.5091228","7","4","-3","-34","37","11","0.719177","-0.114075","-0.675598","-0.115723","-0.007634","-0.022901","0","9.429151","-0.046655","0.520386","-0.351709","0.028711","-0.078955","0.062207","0.005981","-0.355298"
"U","1617446669.49914","7","1","-1","-34","35","12","0.71936","-0.113953","-0.675354","-0.115784","-0.007634","-0.022901","0","9.405225","-0.046655","0.515601","-0.374438","0.026318","-0.089722","0.069385","0","-0.379224"
"U","1617446669.4892282","7","3","-5","-35","35","13","0.719604","-0.113892","-0.675171","-0.115784","0","-0.015267","0","9.406421","-0.05144","0.526367","-0.374438","0.021533","-0.084937","0.063403","-0.001196","-0.378027"
"U","1617446669.479137","7","1","-1","-33","38","12","0.719666","-0.113892","-0.675049","-0.115845","0","0","-0.007634","9.438721","-0.065796","0.564648","-0.340942","0.007178","-0.049048","0.027515","-0.003589","-0.343335"
"U","1617446669.469126","7","0","-4","-35","37","11","0.719666","-0.113953","-0.675049","-0.115845","0","0.007634","-0.007634","9.503321","-0.061011","0.605322","-0.276343","0.013159","-0.008374","-0.004785","0.013159","-0.276343"
"U","1617446669.4592557","7","3","-3","-34","36","12","0.719543","-0.114075","-0.675171","-0.115723","-0.007634","0.007634","-0.015267","9.576294","-0.029907","0.669922","-0.203369","0.046655","0.058618","-0.052637","0.0646","-0.198584"
"U","1617446669.4493225","7","-9","-4","-35","-4","5","0.719421","-0.114136","-0.675293","-0.115479","-0.015267","0","-0.015267","9.589453","-0.019141","0.707007","-0.19021","0.061011","0.100488","-0.086133","0.092114","-0.183032"
"U","1617446669.4392428","7","3","-3","-35","39","13","0.719482","-0.114197","-0.675293","-0.115295","-0.007634","-0.022901","-0.015267","9.540405","-0.04187","0.712988","-0.240454","0.04187","0.10647","-0.101685","0.075366","-0.233276"
"U","1617446669.4293678","7","2","-3","-34","36","11","0.719727","-0.114136","-0.675049","-0.115112","-0.015267","-0.038168","-0.015267","9.484179","-0.068188","0.702222","-0.295483","0.017944","0.088525","-0.095703","0.047852","-0.289502"
"U","1617446669.419132","7","3","-6","-34","37","11","0.720154","-0.114136","-0.674683","-0.11499","-0.015267","-0.045802","-0.015267","9.432739","-0.077759","0.692651","-0.346924","0.011963","0.068188","-0.082544","0.037085","-0.340942"
"U","1617446669.4093077","7","3","-15","-35","40","13","0.720581","-0.114075","-0.674255","-0.114868","-0.015267","-0.038168","-0.015267","9.410009","-0.076563","0.673511","-0.368457","0.015552","0.038281","-0.053833","0.031104","-0.364868"
"U","1617446669.3993342","7","2","-5","-33","38","13","0.720947","-0.114075","-0.673828","-0.114685","-0.007634","-0.030534","-0.015267","9.437525","-0.07417","0.6771","-0.339746","0.022729","0.031104","-0.044263","0.034692","-0.336157"
"U","1617446669.3893635","7","3","-2","-34","35","10","0.721191","-0.114258","-0.673584","-0.114502","0.015267","-0.015267","-0.022901","9.475805","-0.131592","0.679492","-0.301465","-0.027515","0.027515","-0.053833","-0.013159","-0.297876"
"U","1617446669.3792264","7","3","-3","-33","37","15","0.721252","-0.114807","-0.673462","-0.114441","0.030534","0","-0.030534","9.514087","-0.253613","0.656763","-0.263184","-0.141162","0.003589","-0.065796","-0.129199","-0.259595"
"U","1617446669.369279","7","1","-3","-35","39","13","0.72113","-0.11554","-0.673462","-0.114502","0.038168","0.022901","-0.030534","9.576294","-0.369653","0.635229","-0.200977","-0.247632","-0.013159","-0.080151","-0.235669","-0.197388"
"U","1617446669.3594306","7","3","-4","-34","37","12","0.720764","-0.116272","-0.673645","-0.114624","0.022901","0.038168","-0.022901","9.658838","-0.428271","0.641211","-0.118433","-0.299072","0","-0.104077","-0.281128","-0.113647"
"U","1617446669.349337","7","2","-3","-34","36","11","0.720337","-0.116638","-0.674072","-0.114685","0","0.030534","-0.015267","9.74497","-0.399561","0.690259","-0.033496","-0.267969","0.062207","-0.147144","-0.233276","-0.025122"
"U","1617446669.339483","7","3","-2","-33","39","9","0.720032","-0.116638","-0.674438","-0.114502","-0.030534","0.007634","-0.007634","9.741382","-0.309839","0.724951","-0.038281","-0.177051","0.10647","-0.159106","-0.132788","-0.028711"
"U","1617446669.3292315","7","2","-4","-34","36","13","0.71991","-0.116272","-0.674683","-0.114258","-0.045802","-0.015267","0","9.616968","-0.227295","0.699829","-0.162695","-0.096899","0.086133","-0.122021","-0.062207","-0.155518"
"U","1617446669.3193324","7","3","-6","-33","39","11","0.720093","-0.115601","-0.674683","-0.113953","-0.053435","-0.022901","0","9.482984","-0.131592","0.656763","-0.29668","-0.005981","0.039478","-0.057422","0.008374","-0.293091"
"U","1617446669.3092787","7","3","-2","-34","38","11","0.720337","-0.11499","-0.674561","-0.113525","-0.038168","-0.022901","0","9.380102","-0.062207","0.594556","-0.399561","0.059814","-0.027515","0.019141","0.050244","-0.400757"
"U","1617446669.2993596","7","2","-5","-34","42","41","0.72052","-0.114685","-0.6745","-0.11322","0","-0.007634","0","9.328662","-0.101685","0.504834","-0.451001","0.020337","-0.120825","0.090918","-0.014355","-0.456982"
"U","1617446669.2893093","7","3","-4","-33","37","13","0.720398","-0.114929","-0.6745","-0.113281","0.038168","0.015267","-0.007634","9.348999","-0.230884","0.42229","-0.429468","-0.105273","-0.200977","0.128003","-0.159106","-0.439038"
"U","1617446669.2794502","7","1","-2","-33","38","12","0.720093","-0.11554","-0.674683","-0.113708","0.045802","0.038168","-0.007634","9.388476","-0.345728","0.35769","-0.391187","-0.217725","-0.258398","0.149536","-0.284717","-0.403149"
"U","1617446669.2692711","7","3","-4","-34","35","13","0.719543","-0.116089","-0.675049","-0.114258","0.038168","0.053435","0","9.448291","-0.342139","0.354102","-0.331372","-0.216528","-0.248828","0.144751","-0.282324","-0.342139"
"U","1617446669.2593992","7","1","-4","-33","36","12","0.718933","-0.116455","-0.675598","-0.114746","0.022901","0.061069","0.007634","9.530835","-0.270361","0.398364","-0.250024","-0.14834","-0.189014","0.114844","-0.198584","-0.258398"
"U","1617446669.2494383","7","4","-1","-50","36","12","0.718262","-0.116455","-0.676208","-0.115112","0","0.045802","0.015267","9.588257","-0.168677","0.468945","-0.193799","-0.053833","-0.101685","0.066992","-0.081348","-0.198584"
"U","1617446669.2392795","7","1","-3","-33","35","13","0.717834","-0.11615","-0.676758","-0.115356","-0.022901","0.015267","0.022901","9.560742","-0.028711","0.514404","-0.22251","0.07417","-0.044263","0.052637","0.057422","-0.224902"
"U","1617446669.2293446","7","3","-4","-33","36","15","0.717651","-0.115662","-0.676941","-0.115417","-0.030534","-0.015267","0.015267","9.453076","0.102881","0.526367","-0.330176","0.197388","-0.028711","0.071777","0.179443","-0.332568"
"U","1617446669.2194662","7","2","-4","-35","38","11","0.717834","-0.115112","-0.67688","-0.115295","-0.030534","-0.038168","0.007634","9.299952","0.179443","0.510815","-0.483301","0.269165","-0.049048","0.105273","0.242847","-0.48689"
"U","1617446669.2095342","7","2","-3","-34","38","13","0.718201","-0.114807","-0.676514","-0.115173","0","-0.038168","0","9.201856","0.160303","0.472534","-0.5802","0.248828","-0.096899","0.137573","0.209351","-0.586182"
"U","1617446669.199232","7","1","-5","-34","35","13","0.718567","-0.11499","-0.676208","-0.115234","0.022901","-0.022901","-0.007634","9.228174","0.065796","0.437842","-0.555078","0.15791","-0.141162","0.150732","0.108862","-0.563452"
"U","1617446669.1896172","7","2","0","-33","38","12","0.718689","-0.11554","-0.675903","-0.115417","0.045802","-0.007634","-0.015267","9.296362","-0.055029","0.435449","-0.485693","0.043066","-0.14834","0.124414","-0.001196","-0.494067"
"U","1617446669.1800663","7","5","-2","-33","35","12","0.718689","-0.116272","-0.67572","-0.115784","0.045802","0","-0.022901","9.341822","-0.131592","0.443823","-0.440234","-0.026318","-0.141162","0.098096","-0.065796","-0.447412"
"U","1617446669.1694076","7","1","-3","-33","36","11","0.718689","-0.117004","-0.675537","-0.11615","0.030534","0","-0.015267","9.404028","-0.155518","0.479712","-0.378027","-0.044263","-0.107666","0.063403","-0.072974","-0.382812"
"U","1617446669.1592984","7","1","-5","-34","39","13","0.718628","-0.117371","-0.675476","-0.116394","0.015267","-0.007634","-0.007634","9.498535","-0.133984","0.549097","-0.282324","-0.021533","-0.037085","0.010767","-0.029907","-0.283521"
"U","1617446669.1494105","7","3","-3","-33","36","10","0.718689","-0.117493","-0.675415","-0.116577","-0.007634","-0.015267","0","9.520068","-0.086133","0.590967","-0.261987","0.025122","0.001196","-0.008374","0.026318","-0.260791"
"U","1617446669.1392264","7","3","-1","-33","40","13","0.718872","-0.117249","-0.675232","-0.116577","-0.030534","-0.030534","0","9.494946","-0.019141","0.616089","-0.285913","0.089722","0.020337","-0.007178","0.093311","-0.284717"
"U","1617446669.1296456","7","4","-4","-33","38","12","0.719238","-0.116821","-0.674927","-0.116455","-0.038168","-0.045802","0.007634","9.453076","0.049048","0.607715","-0.327783","0.154321","0.002393","0.027515","0.149536","-0.327783"
"U","1617446669.1195967","7","1","-3","-34","34","12","0.719666","-0.116333","-0.674561","-0.116211","-0.030534","-0.038168","0","9.418384","0.070581","0.57063","-0.361279","0.174658","-0.044263","0.075366","0.154321","-0.364868"
"U","1617446669.1092792","7","1","-4","-33","35","13","0.720032","-0.116089","-0.674255","-0.115967","-0.007634","-0.022901","0","9.429151","0.016748","0.531152","-0.349316","0.122021","-0.093311","0.104077","0.088525","-0.355298"
"U","1617446669.099975","7","4","-3","-36","36","9","0.720215","-0.11615","-0.674072","-0.115906","0.007634","0","-0.007634","9.517675","-0.087329","0.500049","-0.260791","0.020337","-0.129199","0.111255","-0.019141","-0.267969"
"U","1617446669.0899663","7","0","-4","-33","31","13","0.720154","-0.116394","-0.674072","-0.115967","0.015267","0.015267","-0.007634","9.636108","-0.185425","0.500049","-0.142358","-0.07417","-0.128003","0.087329","-0.110059","-0.14834"
"U","1617446669.080054","7","1","-4","-34","38","12","0.719971","-0.116699","-0.674255","-0.116089","0.007634","0.022901","-0.007634","9.730616","-0.220117","0.529956","-0.049048","-0.10647","-0.092114","0.049048","-0.129199","-0.052637"
"U","1617446669.070141","7","5","-1","-34","38","10","0.719666","-0.116882","-0.6745","-0.116089","0","0.022901","-0.007634","9.771289","-0.215332","0.574219","-0.008374","-0.100488","-0.040674","0.004785","-0.107666","-0.00957"
"U","1617446669.0600371","7","2","-1","-35","37","11","0.719482","-0.116882","-0.674683","-0.116028","-0.015267","0.015267","-0.007634","9.7677","-0.202173","0.623267","-0.011963","-0.087329","0.011963","-0.039478","-0.077759","-0.00957"
"U","1617446669.0500717","7","1","-5","-33","38","13","0.71936","-0.116699","-0.674866","-0.115967","-0.030534","0","0","9.737793","-0.172266","0.667529","-0.04187","-0.059814","0.061011","-0.078955","-0.035889","-0.037085"
"U","1617446669.0401027","7","1","-4","-33","36","12","0.71936","-0.116333","-0.674988","-0.115723","-0.038168","-0.015267","0","9.682764","-0.108862","0.715381","-0.096899","0","0.110059","-0.108862","0.035889","-0.089722"
"U","1617446669.0300765","7","3","-4","-36","40","10","0.719543","-0.115784","-0.674927","-0.115356","-0.045802","-0.030534","0","9.570312","-0.04187","0.709399","-0.209351","0.0646","0.100488","-0.086133","0.094507","-0.203369"
"U","1617446669.0201266","7","3","-4","-35","36","11","0.719849","-0.115234","-0.674744","-0.115051","-0.038168","-0.030534","0","9.480591","-0.00957","0.702222","-0.299072","0.094507","0.086133","-0.069385","0.119629","-0.293091"
"U","1617446669.0100043","7","1","-2","-33","35","12","0.720154","-0.114868","-0.674561","-0.114746","-0.022901","-0.015267","0","9.433935","-0.025122","0.690259","-0.345728","0.078955","0.066992","-0.059814","0.099292","-0.340942"
"U","1617446669.0000255","7","3","0","-33","38","13","0.720215","-0.114746","-0.6745","-0.114563","-0.007634","0","-0.007634","9.433935","-0.066992","0.671118","-0.344531","0.037085","0.046655","-0.053833","0.052637","-0.340942"
"U","1617446668.9899635","7","4","-3","-35","38","13","0.720154","-0.114868","-0.674622","-0.114502","0.007634","0.015267","-0.007634","9.463842","-0.096899","0.667529","-0.31582","0.00957","0.045459","-0.059814","0.026318","-0.312231"
"U","1617446668.9803317","7","3","-3","-33","40","11","0.71991","-0.115173","-0.674805","-0.114502","0.015267","0.022901","-0.015267","9.491358","-0.10647","0.657959","-0.288306","0.003589","0.04187","-0.056226","0.019141","-0.284717"
"U","1617446668.9701493","7","3","-4","-33","36","10","0.719543","-0.115601","-0.67511","-0.114502","0.022901","0.022901","-0.015267","9.485376","-0.137573","0.634033","-0.294287","-0.021533","0.028711","-0.05144","-0.008374","-0.290698"
"U","1617446668.9600506","7","3","-4","-33","37","13","0.719238","-0.116089","-0.675354","-0.114563","0.022901","0.022901","-0.022901","9.472217","-0.16748","0.611304","-0.308643","-0.046655","0.014355","-0.046655","-0.037085","-0.30625"
"U","1617446668.9499774","7","4","-3","-34","36","12","0.718933","-0.116577","-0.675537","-0.114624","0.015267","0.015267","-0.022901","9.454272","-0.172266","0.586182","-0.326587","-0.046655","-0.002393","-0.0323","-0.04187","-0.325391"
"U","1617446668.9400606","7","3","-3","-33","34","12","0.71875","-0.116943","-0.67572","-0.114563","0","0.007634","-0.022901","9.420776","-0.139966","0.582593","-0.360083","-0.00957","0","-0.023926","-0.005981","-0.358887"
"U","1617446668.9301207","7","1","0","-33","39","9","0.718689","-0.117188","-0.675842","-0.11438","-0.007634","0","-0.022901","9.362158","-0.084937","0.565845","-0.419897","0.050244","-0.013159","0.002393","0.045459","-0.419897"
"U","1617446668.920043","7","3","-1","-35","36","12","0.718628","-0.117432","-0.675842","-0.114136","0.007634","0","-0.022901","9.326269","-0.058618","0.544312","-0.45459","0.082544","-0.0323","0.028711","0.069385","-0.455786"
"U","1617446668.9102693","7","1","-2","-33","40","15","0.718567","-0.11792","-0.675842","-0.113953","0.030534","0.007634","-0.030534","9.326269","-0.107666","0.490479","-0.45459","0.043066","-0.08374","0.0646","0.015552","-0.458179"
"U","1617446668.9002793","7","3","-3","-34","38","11","0.718384","-0.118835","-0.675903","-0.113953","0.053435","0.015267","-0.038168","9.356176","-0.215332","0.439038","-0.425879","-0.05144","-0.129199","0.078955","-0.088525","-0.430664"
"U","1617446668.8900635","7","4","-4","-33","38","13","0.718079","-0.120056","-0.675964","-0.114075","0.076336","0.022901","-0.045802","9.368139","-0.340942","0.385205","-0.413916","-0.161499","-0.175854","0.087329","-0.209351","-0.419897"
"U","1617446668.880183","7","2","1","-33","38","13","0.717712","-0.121521","-0.676025","-0.114441","0.076336","0.030534","-0.045802","9.400439","-0.455786","0.363672","-0.381616","-0.261987","-0.189014","0.068188","-0.308643","-0.386401"
"U","1617446668.8700342","7","4","-5","-33","40","14","0.717285","-0.122803","-0.676147","-0.114929","0.061069","0.030534","-0.030534","9.463842","-0.507227","0.386401","-0.318213","-0.303857","-0.156714","0.027515","-0.33855","-0.319409"
"U","1617446668.8599625","7","3","-2","-33","36","12","0.716919","-0.123596","-0.676392","-0.115295","0.030534","0.022901","-0.022901","9.509302","-0.465356","0.452197","-0.27395","-0.256006","-0.081348","-0.023926","-0.267969","-0.271558"
"U","1617446668.460392","7","2","-4","-33","36","12","0.719421","-0.119141","-0.67334","-0.121765","0","-0.007634","0.015267","9.69353","-0.087329","0.71897","-0.084937","-0.014355","0.08374","-0.088525","0.015552","-0.078955"
"U","1617446668.4502008","7","-1","-4","-33","38","13","0.719482","-0.118835","-0.67334","-0.122009","-0.022901","-0.030534","0.015267","9.582275","0.026318","0.764429","-0.196191","0.090918","0.126807","-0.100488","0.130396","-0.187817"
"U","1617446668.4402251","7","-15","-3","-35","39","13","0.719788","-0.118286","-0.673035","-0.12207","-0.030534","-0.053435","0.015267","9.447095","0.112451","0.788355","-0.330176","0.169873","0.141162","-0.096899","0.211743","-0.320605"
"U","1617446668.4303515","7","1","-5","-34","36","11","0.720337","-0.117737","-0.672607","-0.12207","-0.030534","-0.061069","0.007634","9.326269","0.16748","0.799121","-0.451001","0.220117","0.136377","-0.08374","0.260791","-0.441431"
"U","1617446668.420339","7","1","-1","-33","39","12","0.720947","-0.117371","-0.672058","-0.121948","-0.015267","-0.053435","0","9.2521","0.184229","0.808691","-0.523975","0.235669","0.130396","-0.078955","0.27395","-0.514404"
"U","1617446668.410262","7","3","-4","-34","36","15","0.721375","-0.11731","-0.67157","-0.121826","0","-0.030534","-0.007634","9.266455","0.142358","0.820654","-0.508423","0.197388","0.129199","-0.089722","0.238062","-0.498853"
"U","1617446668.400211","7","1","-4","-34","38","13","0.721619","-0.117554","-0.671326","-0.121765","0.015267","-0.007634","-0.015267","9.368139","0.058618","0.83501","-0.406738","0.118433","0.137573","-0.117236","0.163892","-0.395972"
"U","1617446668.3904154","7","3","-2","-33","38","12","0.721558","-0.118103","-0.671265","-0.121765","0.030534","0.007634","-0.022901","9.484179","-0.033496","0.852954","-0.290698","0.034692","0.156714","-0.155518","0.089722","-0.278735"
"U","1617446668.3810723","7","3","-3","-34","35","13","0.721313","-0.118835","-0.671387","-0.121887","0.038168","0.015267","-0.030534","9.548779","-0.113647","0.842188","-0.226099","-0.037085","0.153125","-0.171069","0.019141","-0.214136"
"U","1617446668.371021","7","2","-4","-36","36","10","0.721069","-0.119629","-0.671509","-0.121948","0.030534","0.007634","-0.030534","9.566724","-0.166284","0.814673","-0.209351","-0.080151","0.132788","-0.165088","-0.027515","-0.198584"
"U","1617446668.3604214","7","1","-1","-33","39","13","0.720886","-0.120239","-0.67157","-0.122009","0.015267","-0.007634","-0.030534","9.530835","-0.181836","0.764429","-0.245239","-0.088525","0.086133","-0.126807","-0.050244","-0.236865"
"U","1617446668.351154","7","1","-5","-33","37","11","0.720886","-0.120605","-0.671509","-0.122009","0","-0.015267","-0.022901","9.474609","-0.147144","0.703418","-0.301465","-0.047852","0.025122","-0.059814","-0.0323","-0.297876"
"U","1617446668.3410509","7","3","-3","-33","38","12","0.721008","-0.120667","-0.671387","-0.121826","-0.015267","-0.015267","-0.015267","9.447095","-0.089722","0.667529","-0.327783","0.011963","-0.011963","-0.007178","0.010767","-0.327783"
"U","1617446668.331132","7","2","-4","-35","40","13","0.721069","-0.120667","-0.671387","-0.121521","-0.022901","-0.007634","-0.015267","9.414795","-0.049048","0.620874","-0.361279","0.056226","-0.058618","0.049048","0.037085","-0.364868"
"U","1617446668.3210678","7","1","-3","-34","36","12","0.721191","-0.120605","-0.671326","-0.121216","-0.015267","0","-0.015267","9.394458","-0.039478","0.575415","-0.38042","0.069385","-0.10647","0.096899","0.033496","-0.387598"
"U","1617446668.311086","7","-1","-4","-34","36","15","0.721069","-0.120728","-0.671448","-0.120911","-0.007634","0.022901","-0.015267","9.426758","-0.047852","0.539526","-0.34812","0.066992","-0.137573","0.126807","0.020337","-0.356494"
"U","1617446668.300965","7","3","-3","-35","37","15","0.720764","-0.120972","-0.671753","-0.120667","0.007634","0.045802","-0.015267","9.520068","-0.090918","0.504834","-0.25481","0.028711","-0.162695","0.144751","-0.023926","-0.265576"
"U","1617446668.2902756","7","1","-4","-35","36","11","0.720276","-0.12146","-0.672241","-0.120483","0.022901","0.053435","-0.015267","9.624146","-0.159106","0.472534","-0.151929","-0.031104","-0.18064","0.14834","-0.088525","-0.162695"
"U","1617446668.2810874","7","3","-3","-33","35","12","0.719666","-0.122009","-0.672791","-0.120483","0.022901","0.045802","-0.022901","9.671997","-0.214136","0.447412","-0.105273","-0.081348","-0.187817","0.141162","-0.13877","-0.11604"
"U","1617446668.2710333","7","2","21","-36","32","10","0.719177","-0.12262","-0.673218","-0.120544","0.022901","0.022901","-0.022901","9.625341","-0.245239","0.397168","-0.153125","-0.10647","-0.224902","0.165088","-0.174658","-0.165088"
"U","1617446668.2611427","7","-1","-3","-35","38","12","0.718994","-0.123047","-0.67334","-0.120605","0.015267","0","-0.022901","9.514087","-0.256006","0.333765","-0.265576","-0.113647","-0.282324","0.209351","-0.19978","-0.281128"
"U","1617446668.2510405","7","1","-3","-33","39","13","0.719055","-0.123291","-0.673218","-0.120605","-0.007634","-0.022901","-0.015267","9.400439","-0.235669","0.291895","-0.378027","-0.088525","-0.326587","0.251221","-0.19021","-0.395972"
"U","1617446668.2409823","7","1","-3","-41","36","13","0.719421","-0.12323","-0.672913","-0.120483","-0.022901","-0.022901","-0.015267","9.319092","-0.191406","0.275146","-0.459375","-0.04187","-0.351709","0.284717","-0.154321","-0.479712"
"U","1617446668.2311833","7","1","-3","-10","38","12","0.719788","-0.123047","-0.672546","-0.120239","-0.030534","-0.022901","-0.015267","9.287989","-0.137573","0.312231","-0.489282","0.013159","-0.325391","0.276343","-0.093311","-0.508423"
"U","1617446668.2211182","7","4","-3","-33","35","13","0.720154","-0.122925","-0.672241","-0.119873","-0.022901","-0.007634","-0.015267","9.311914","-0.130396","0.367261","-0.465356","0.025122","-0.278735","0.238062","-0.066992","-0.482104"
"U","1617446668.2109594","7","2","-4","-34","35","11","0.720337","-0.122986","-0.672119","-0.119507","0","0.015267","-0.015267","9.408813","-0.183032","0.437842","-0.368457","-0.020337","-0.211743","0.166284","-0.087329","-0.38042"
"U","1617446668.2012365","7","3","-1","-35","38","13","0.720215","-0.12323","-0.67218","-0.119324","0.015267","0.022901","-0.015267","9.532031","-0.282324","0.509619","-0.244043","-0.113647","-0.136377","0.072974","-0.150732","-0.250024"
"U","1617446668.190943","7","0","-3","-35","38","15","0.719971","-0.123718","-0.672363","-0.119324","0.022901","0.015267","-0.022901","9.626538","-0.374438","0.58977","-0.150732","-0.200977","-0.049048","-0.031104","-0.204565","-0.149536"
"U","1617446668.1810527","7","2","-4","-34","35","11","0.719788","-0.124207","-0.672485","-0.119507","0.022901","0","-0.022901","9.615771","-0.434253","0.614893","-0.161499","-0.256006","-0.019141","-0.078955","-0.246436","-0.156714"
"U","1617446668.17115","7","3","-2","-33","35","13","0.719788","-0.124512","-0.672363","-0.11969","0.007634","-0.022901","-0.007634","9.533228","-0.41272","0.628052","-0.244043","-0.233276","-0.007178","-0.088525","-0.220117","-0.239258"
"U","1617446668.1610627","7","2","-3","-33","36","14","0.720093","-0.12439","-0.672058","-0.119934","-0.015267","-0.045802","0","9.435132","-0.324194","0.648389","-0.342139","-0.14834","0.003589","-0.076563","-0.135181","-0.337354"
"U","1617446668.15113","7","3","-3","-33","40","13","0.72052","-0.12384","-0.671631","-0.120056","-0.038168","-0.053435","0.007634","9.344213","-0.179443","0.667529","-0.43186","-0.010767","0.00957","-0.04187","-0.003589","-0.429468"
"U","1617446668.141117","7","1","-3","-34","40","9","0.721069","-0.122925","-0.671204","-0.119934","-0.053435","-0.045802","0.015267","9.285596","-0.004785","0.707007","-0.489282","0.154321","0.033496","-0.013159","0.160303","-0.488086"
"U","1617446668.1311371","7","2","-1","-33","32","12","0.721558","-0.12207","-0.670898","-0.11969","-0.045802","-0.038168","0.015267","9.258081","0.114844","0.727344","-0.515601","0.266772","0.040674","0.014355","0.269165","-0.514404"
"U","1617446668.120916","7","0","-4","-33","38","15","0.721863","-0.12146","-0.670715","-0.119446","-0.022901","-0.015267","0.015267","9.307129","0.123218","0.736914","-0.466553","0.270361","0.043066","0.016748","0.272754","-0.465356"
"U","1617446668.111109","7","1","-6","-35","36","10","0.721924","-0.121399","-0.670715","-0.119324","0.015267","0.007634","0","9.402832","0.020337","0.714185","-0.37085","0.168677","0.019141","0.010767","0.168677","-0.37085"
"U","1617446668.1011467","7","3","-2","-33","38","13","0.721619","-0.121887","-0.670898","-0.119507","0.045802","0.022901","-0.007634","9.496142","-0.132788","0.672314","-0.277539","0.019141","-0.013159","0","0.015552","-0.277539"
"U","1617446668.0910244","7","1","-3","-33","35","12","0.721252","-0.122681","-0.671082","-0.119873","0.053435","0.022901","-0.015267","9.548779","-0.27395","0.619678","-0.226099","-0.11604","-0.057422","-0.001196","-0.12561","-0.227295"
"U","1617446668.0810957","7","3","-1","-33","37","19","0.720947","-0.123413","-0.671204","-0.1203","0.038168","0.007634","-0.015267","9.557154","-0.345728","0.581396","-0.217725","-0.184229","-0.089722","0.005981","-0.200977","-0.220117"
"U","1617446668.0712807","7","1","-4","-34","35","15","0.720886","-0.123718","-0.671204","-0.120667","0","-0.015267","-0.007634","9.509302","-0.291895","0.569434","-0.266772","-0.130396","-0.100488","0.031104","-0.154321","-0.270361"
"U","1617446668.061094","7","1","-3","-34","35","11","0.72113","-0.123413","-0.670959","-0.120728","-0.045802","-0.038168","0","9.435132","-0.137573","0.598145","-0.339746","0.017944","-0.078955","0.055029","-0.005981","-0.344531"
"U","1617446668.0510747","7","0","-4","-37","38","12","0.72168","-0.122559","-0.670593","-0.120361","-0.076336","-0.053435","0.007634","9.350195","0.044263","0.647192","-0.423486","0.194995","-0.044263","0.076563","0.172266","-0.428271"
"U","1617446668.0410686","7","3","-3","-31","36","12","0.722351","-0.121521","-0.670166","-0.11969","-0.076336","-0.053435","0","9.277222","0.156714","0.684277","-0.495264","0.305054","-0.022729","0.087329","0.283521","-0.500049"
"U","1617446668.0312612","7","0","-3","-33","35","13","0.722961","-0.12085","-0.669739","-0.118958","-0.045802","-0.030534","-0.015267","9.265259","0.145947","0.703418","-0.50603","0.29668","-0.017944","0.077759","0.278735","-0.509619"
"U","1617446668.0213006","7","3","-3","-33","38","12","0.723267","-0.120911","-0.669495","-0.118347","0.007634","0","-0.030534","9.350195","-0.021533","0.714185","-0.419897","0.13877","-0.013159","0.026318","0.129199","-0.421094"
"U","1617446668.0111222","7","1","-1","-33","40","13","0.723145","-0.121765","-0.669556","-0.118103","0.061069","0.030534","-0.038168","9.500928","-0.281128","0.699829","-0.270361","-0.104077","-0.022729","-0.033496","-0.102881","-0.269165"
"U","1617446668.001041","7","1","-5","-35","39","13","0.722717","-0.123108","-0.6698","-0.118225","0.076336","0.038168","-0.045802","9.631323","-0.514404","0.695044","-0.141162","-0.321802","-0.015552","-0.102881","-0.307446","-0.135181"
"U","1617446667.9910443","7","-1","-4","-34","-2","-6","0.722168","-0.124329","-0.670044","-0.118652","0.053435","0.030534","-0.038168","9.70669","-0.62207","0.714185","-0.065796","-0.419897","0.015552","-0.160303","-0.388794","-0.055029"
"U","1617446667.9886105","7","3","-6","-36","34","13","0.721863","-0.125061","-0.670227","-0.118958","0.007634","0","-0.022901","9.695923","-0.593359","0.763232","-0.077759","-0.386401","0.072974","-0.204565","-0.337354","-0.063403"
"U","1617446667.986904","7","1","-4","-35","38","13","0.721863","-0.125","-0.670166","-0.119019","-0.045802","-0.030534","-0.007634","9.593042","-0.437842","0.820654","-0.179443","-0.23208","0.129199","-0.212939","-0.173462","-0.163892"
"U","1617446667.9611995","7","1","-3","-34","36","11","0.72229","-0.124146","-0.669983","-0.118713","-0.083969","-0.053435","0.007634","9.435132","-0.227295","0.852954","-0.33855","-0.027515","0.151929","-0.175854","0.026318","-0.325391"
"U","1617446667.9511063","7","1","-3","-36","35","9","0.722961","-0.122864","-0.669556","-0.118103","-0.099237","-0.061069","0.007634","9.277222","-0.050244","0.872095","-0.494067","0.139966","0.154321","-0.135181","0.186621","-0.483301"
"U","1617446667.9411645","7","0","-3","-34","38","11","0.723633","-0.121643","-0.669189","-0.117371","-0.076336","-0.045802","0.007634","9.182714","0.058618","0.869702","-0.587378","0.244043","0.136377","-0.092114","0.278735","-0.579004"
"U","1617446667.931226","7","3","-2","-34","38","14","0.723999","-0.121033","-0.668945","-0.11676","-0.015267","-0.007634","0","9.175537","-0.008374","0.817065","-0.593359","0.177051","0.075366","-0.057422","0.196191","-0.588574"
"U","1617446667.9211552","7","1","-3","-34","35","10","0.723816","-0.12146","-0.669128","-0.116577","0.061069","0.045802","-0.007634","9.32268","-0.267969","0.734522","-0.447412","-0.072974","0","-0.058618","-0.065796","-0.443823"
"U","1617446667.911174","7","2","-4","-34","38","12","0.723022","-0.12262","-0.669739","-0.117065","0.099237","0.083969","-0.007634","9.530835","-0.53833","0.651978","-0.240454","-0.337354","-0.062207","-0.071777","-0.337354","-0.236865"
"U","1617446667.90123","7","1","-6","-35","35","13","0.721802","-0.12384","-0.670654","-0.118042","0.083969","0.091603","0.007634","9.7031","-0.660352","0.613696","-0.070581","-0.459375","-0.069385","-0.094507","-0.45459","-0.065796"
"U","1617446667.8911843","7","2","-3","-33","37","11","0.720581","-0.124512","-0.671631","-0.11908","0.038168","0.068702","0.022901","9.766504","-0.571826","0.604126","-0.00957","-0.38042","-0.050244","-0.081348","-0.374438","-0.004785"
"U","1617446667.8813057","7","1","-5","-33","36","12","0.719727","-0.124329","-0.672424","-0.119812","-0.022901","0.030534","0.038168","9.701904","-0.367261","0.598145","-0.075366","-0.191406","-0.035889","-0.035889","-0.191406","-0.072974"
"U","1617446667.8710692","7","1","-3","-33","33","10","0.719421","-0.123352","-0.672913","-0.120239","-0.068702","-0.015267","0.045802","9.53562","-0.092114","0.571826","-0.242847","0.061011","-0.055029","0.056226","0.039478","-0.246436"
"U","1617446667.8613565","7","-5","0","-33","36","8","0.719543","-0.121826","-0.673035","-0.120239","-0.091603","-0.038168","0.053435","9.362158","0.151929","0.543115","-0.416309","0.283521","-0.087329","0.149536","0.240454","-0.424683"
"U","1617446667.851159","7","1","-3","-33","36","13","0.719971","-0.120239","-0.672852","-0.119995","-0.076336","-0.038168","0.045802","9.267652","0.293091","0.508423","-0.509619","0.406738","-0.133984","0.228491","0.343335","-0.521582"
"U","1617446667.8413615","7","0","-1","-33","36","11","0.720398","-0.11908","-0.672668","-0.11969","-0.045802","-0.022901","0.022901","9.242529","0.285913","0.48689","-0.534741","0.388794","-0.165088","0.248828","0.318213","-0.5479"
"U","1617446667.8313577","7","1","-6","-32","32","12","0.720642","-0.118713","-0.672546","-0.119446","0","0.007634","0.007634","9.284399","0.160303","0.46416","-0.492871","0.261987","-0.193799","0.235669","0.187817","-0.507227"
"U","1617446667.8211591","7","3","-2","-14","38","13","0.720459","-0.11908","-0.672668","-0.119507","0.038168","0.038168","-0.007634","9.430346","-0.04187","0.459375","-0.346924","0.063403","-0.193799","0.179443","0","-0.358887"
"U","1617446667.811203","7","1","-17","-34","38","11","0.719971","-0.119812","-0.672974","-0.119873","0.053435","0.053435","-0.007634","9.610987","-0.226099","0.489282","-0.166284","-0.11604","-0.151929","0.092114","-0.15791","-0.173462"
"U","1617446667.801001","7","-3","-4","-35","36","13","0.71936","-0.120605","-0.673462","-0.120361","0.045802","0.045802","0","9.730616","-0.318213","0.545508","-0.049048","-0.205762","-0.080151","0.002393","-0.220117","-0.05144"
"U","1617446667.7910955","7","2","-6","-34","35","9","0.71875","-0.121033","-0.673889","-0.12085","0.015267","0.022901","0","9.755737","-0.291895","0.598145","-0.023926","-0.183032","-0.013159","-0.050244","-0.175854","-0.021533"
"U","1617446667.7811804","7","1","-1","-37","39","11","0.718506","-0.120972","-0.674133","-0.121094","-0.022901","-0.007634","0.007634","9.648071","-0.162695","0.624463","-0.131592","-0.058618","0.017944","-0.044263","-0.046655","-0.129199"
"U","1617446667.7710972","7","1","-3","-34","37","13","0.718689","-0.120361","-0.674072","-0.121094","-0.053435","-0.038168","0.007634","9.473413","-0.003589","0.626855","-0.30625","0.090918","0.015552","-0.002393","0.093311","-0.305054"
"U","1617446667.761294","7","2","-4","-33","35","14","0.719177","-0.119507","-0.673767","-0.120728","-0.061069","-0.045802","0.007634","9.356176","0.139966","0.631641","-0.423486","0.229687","0.008374","0.04187","0.223706","-0.423486"
"U","1617446667.7510498","7","1","-4","-34","36","11","0.719604","-0.118835","-0.673462","-0.120239","-0.045802","-0.030534","0","9.302343","0.192603","0.62207","-0.476123","0.281128","-0.010767","0.072974","0.266772","-0.477319"
"U","1617446667.7412145","7","1","-2","-33","40","12","0.71991","-0.118591","-0.673279","-0.119751","0","-0.007634","-0.015267","9.302343","0.098096","0.57063","-0.474927","0.19021","-0.068188","0.095703","0.162695","-0.479712"
"U","1617446667.7313144","7","0","-3","-33","38","11","0.71991","-0.11908","-0.673218","-0.119568","0.038168","0.022901","-0.022901","9.376513","-0.093311","0.521582","-0.400757","0.008374","-0.11604","0.084937","-0.025122","-0.406738"
"U","1617446667.721352","7","-1","-3","-34","36","11","0.719543","-0.119995","-0.673462","-0.11969","0.053435","0.045802","-0.022901","9.504517","-0.291895","0.484497","-0.27395","-0.179443","-0.143555","0.057422","-0.214136","-0.279932"
"U","1617446667.7114005","7","3","-4","-34","35","12","0.718933","-0.120972","-0.673889","-0.120056","0.045802","0.053435","-0.022901","9.636108","-0.384009","0.497656","-0.143555","-0.26438","-0.114844","0.00957","-0.285913","-0.147144"
"U","1617446667.7020557","7","2","-3","-33","35","12","0.718323","-0.121582","-0.674316","-0.120361","0.015267","0.038168","-0.015267","9.671997","-0.37085","0.52876","-0.107666","-0.248828","-0.068188","-0.026318","-0.256006","-0.107666"
"U","1617446667.6912827","7","4","-3","-33","36","12","0.717957","-0.121704","-0.674683","-0.120483","-0.015267","0.007634","-0.007634","9.597827","-0.276343","0.5479","-0.183032","-0.156714","-0.039478","-0.026318","-0.159106","-0.183032"
"U","1617446667.6812882","7","2","-3","-54","38","11","0.718018","-0.121399","-0.674744","-0.120361","-0.045802","-0.022901","0","9.443506","-0.153125","0.53833","-0.33855","-0.035889","-0.049048","0.013159","-0.046655","-0.339746"
"U","1617446667.6711707","7","1","-3","-33","39","12","0.718323","-0.120728","-0.674561","-0.120056","-0.061069","-0.038168","0","9.301147","-0.037085","0.527563","-0.479712","0.07417","-0.068188","0.058618","0.05144","-0.483301"
"U","1617446667.6614425","7","1","-4","-35","36","11","0.718811","-0.119934","-0.674255","-0.119568","-0.053435","-0.030534","0","9.215014","0.046655","0.526367","-0.564648","0.155518","-0.080151","0.092114","0.124414","-0.569434"
"U","1617446667.651178","7","1","-1","-33","37","11","0.719177","-0.119446","-0.674072","-0.119019","-0.022901","-0.015267","-0.007634","9.198267","0.044263","0.512012","-0.581396","0.154321","-0.101685","0.110059","0.117236","-0.587378"
"U","1617446667.6412914","7","1","-3","-33","37","12","0.719299","-0.119568","-0.674011","-0.118652","0.022901","0.007634","-0.022901","9.240137","-0.092114","0.465356","-0.539526","0.025122","-0.150732","0.11604","-0.020337","-0.5479"
"U","1617446667.6314127","7","0","-1","-34","40","15","0.719055","-0.120361","-0.674133","-0.118713","0.053435","0.038168","-0.022901","9.344213","-0.289502","0.413916","-0.436646","-0.161499","-0.194995","0.101685","-0.212939","-0.44502"
"U","1617446667.621282","7","1","-1","-34","35","12","0.718506","-0.121399","-0.674438","-0.119141","0.061069","0.053435","-0.015267","9.502124","-0.440234","0.409131","-0.278735","-0.305054","-0.186621","0.055029","-0.346924","-0.284717"
"U","1617446667.6114066","7","3","-3","-36","35","14","0.717834","-0.122192","-0.674866","-0.11969","0.045802","0.045802","-0.007634","9.618164","-0.474927","0.44502","-0.162695","-0.33855","-0.135181","0.002393","-0.362476","-0.165088"
"U","1617446667.602178","7","0","-5","-35","39","1","0.717346","-0.12262","-0.675232","-0.120178","0.015267","0.015267","0","9.621753","-0.407935","0.48689","-0.160303","-0.27395","-0.081348","-0.025122","-0.283521","-0.160303"
"U","1617446667.5920303","7","-1","-2","-36","36","13","0.717224","-0.122559","-0.675354","-0.120483","-0.015267","-0.015267","0.007634","9.546387","-0.281128","0.515601","-0.236865","-0.151929","-0.050244","-0.017944","-0.15791","-0.236865"
"U","1617446667.5813053","7","-1","-3","-33","37","13","0.717468","-0.121948","-0.675171","-0.120605","-0.045802","-0.045802","0.015267","9.424365","-0.124414","0.537134","-0.35769","-0.004785","-0.035889","0.010767","-0.013159","-0.358887"
"U","1617446667.5713642","7","2","-2","-34","40","15","0.718018","-0.121094","-0.674744","-0.120544","-0.045802","-0.061069","0.015267","9.302343","0.022729","0.539526","-0.478516","0.131592","-0.049048","0.061011","0.111255","-0.480908"
"U","1617446667.561175","7","3","-1","-34","37","13","0.718689","-0.120361","-0.674133","-0.120422","-0.030534","-0.053435","0.015267","9.220996","0.084937","0.534741","-0.558667","0.189014","-0.072974","0.096899","0.159106","-0.563452"
"U","1617446667.5511854","7","1","-3","-34","38","13","0.719238","-0.120117","-0.673645","-0.120361","0.007634","-0.030534","0.007634","9.231763","0.043066","0.514404","-0.5479","0.147144","-0.107666","0.114844","0.107666","-0.555078"
"U","1617446667.5412514","7","1","-3","-34","36","12","0.719421","-0.120361","-0.67334","-0.120667","0.045802","0","0","9.356176","-0.089722","0.508423","-0.42229","0.014355","-0.120825","0.090918","-0.021533","-0.428271"
"U","1617446667.5319934","7","1","-4","-33","35","12","0.719299","-0.120972","-0.673279","-0.121216","0.061069","0.015267","0","9.528442","-0.212939","0.532349","-0.250024","-0.10647","-0.095703","0.037085","-0.129199","-0.253613"
"U","1617446667.5219662","7","1","-3","-34","38","10","0.718933","-0.121643","-0.673401","-0.121887","0.045802","0.022901","0","9.658838","-0.263184","0.582593","-0.119629","-0.156714","-0.038281","-0.023926","-0.15791","-0.119629"
"U","1617446667.5121217","7","0","-4","-33","36","13","0.718628","-0.12207","-0.673523","-0.122498","0.030534","0","0.007634","9.722241","-0.236865","0.648389","-0.057422","-0.133984","0.031104","-0.077759","-0.113647","-0.053833"
"U","1617446667.5016108","7","-3","-3","-34","36","11","0.718567","-0.122131","-0.673523","-0.123047","0","-0.022901","0.015267","9.7031","-0.150732","0.703418","-0.076563","-0.053833","0.086133","-0.102881","-0.019141","-0.069385"
"U","1617446667.4910345","7","1","-3","-33","38","11","0.718872","-0.121704","-0.673218","-0.123413","-0.030534","-0.053435","0.015267","9.618164","-0.010767","0.736914","-0.161499","0.075366","0.108862","-0.086133","0.110059","-0.154321"
"U","1617446667.48116","7","2","-1","-33","38","11","0.719421","-0.121033","-0.672729","-0.123474","-0.038168","-0.068702","0.022901","9.512891","0.142358","0.768018","-0.265576","0.220117","0.124414","-0.058618","0.252417","-0.258398"
"U","1617446667.4718833","7","1","-3","-33","36","14","0.720093","-0.1203","-0.672119","-0.123413","-0.030534","-0.068702","0.015267","9.430346","0.224902","0.753662","-0.345728","0.29668","0.090918","-0.007178","0.314624","-0.340942"
"U","1617446667.461645","7","4","-2","-33","38","12","0.720764","-0.119751","-0.67157","-0.123413","-0.015267","-0.053435","0.015267","9.417188","0.216528","0.734522","-0.358887","0.283521","0.053833","0.020337","0.290698","-0.355298"
"U","1617446667.45127","7","2","-1","-34","35","11","0.72113","-0.119629","-0.671143","-0.123535","0.015267","-0.022901","0","9.468628","0.15791","0.722559","-0.30625","0.223706","0.031104","0.025122","0.226099","-0.303857"
"U","1617446667.4412153","7","1","-1","-33","35","12","0.721313","-0.119934","-0.670898","-0.123718","0.030534","-0.007634","-0.007634","9.545191","0.070581","0.724951","-0.229687","0.13877","0.027515","0.004785","0.143555","-0.227295"
"U","1617446667.431335","7","3","-4","-34","38","13","0.721252","-0.120422","-0.670776","-0.124023","0.030534","0.007634","-0.015267","9.614575","0.019141","0.753662","-0.160303","0.090918","0.056226","-0.0323","0.10647","-0.155518"
"U","1617446667.4219656","7","0","-4","-33","35","13","0.721069","-0.120972","-0.670837","-0.124207","0.022901","0.015267","-0.007634","9.692334","0","0.821851","-0.082544","0.076563","0.128003","-0.099292","0.11604","-0.072974"
"U","1617446667.4118817","7","-1","-3","-35","57","13","0.720825","-0.121399","-0.670959","-0.124329","0.007634","0.007634","-0.007634","9.722241","-0.013159","0.884058","-0.052637","0.065796","0.196191","-0.163892","0.129199","-0.038281"
"U","1617446667.40195","7","1","-2","-35","35","12","0.720764","-0.121582","-0.671021","-0.12439","-0.007634","-0.015267","-0.007634","9.644483","0.016748","0.905591","-0.130396","0.098096","0.220117","-0.18064","0.168677","-0.114844"
"U","1617446667.392067","7","1","-5","-33","33","11","0.720886","-0.12146","-0.670959","-0.124207","-0.030534","-0.030534","-0.007634","9.509302","0.087329","0.893628","-0.265576","0.169873","0.205762","-0.151929","0.233276","-0.251221"
"U","1617446667.381978","7","-1","-3","-39","38","11","0.721191","-0.121094","-0.670715","-0.12384","-0.045802","-0.030534","-0.007634","9.382495","0.141162","0.858936","-0.391187","0.223706","0.162695","-0.102881","0.271558","-0.38042"
"U","1617446667.3720365","7","4","-3","-35","36","13","0.721497","-0.120667","-0.670593","-0.123291","-0.038168","-0.015267","-0.007634","9.314306","0.15791","0.824243","-0.459375","0.242847","0.123218","-0.0646","0.277539","-0.451001"
"U","1617446667.3619487","7","0","-4","-35","35","-1","0.721619","-0.120483","-0.670593","-0.122742","-0.030534","0.007634","-0.022901","9.287989","0.105273","0.764429","-0.485693","0.194995","0.062207","-0.026318","0.211743","-0.480908"
"U","1617446667.3520074","7","0","-4","-35","36","9","0.721497","-0.120667","-0.670837","-0.122131","-0.007634","0.038168","-0.022901","9.332251","-0.010767","0.707007","-0.442627","0.089722","0.011963","-0.010767","0.094507","-0.441431"
"U","1617446667.3422697","7","0","-3","-34","30","8","0.720947","-0.121155","-0.671387","-0.121704","0.015267","0.061069","-0.022901","9.45188","-0.169873","0.66394","-0.324194","-0.058618","-0.013159","-0.028711","-0.055029","-0.322998"
"U","1617446667.3320365","7","1","-1","-44","32","9","0.720154","-0.121765","-0.67218","-0.12146","0.022901","0.068702","-0.030534","9.532031","-0.312231","0.610107","-0.245239","-0.192603","-0.043066","-0.040674","-0.192603","-0.244043"
"U","1617446667.3220298","7","1","-3","-34","37","14","0.719299","-0.122375","-0.672974","-0.121338","0.015267","0.061069","-0.022901","9.52605","-0.38042","0.543115","-0.252417","-0.25481","-0.086133","-0.021533","-0.265576","-0.253613"
"U","1617446667.3120112","7","1","-2","-33","38","16","0.718567","-0.122803","-0.673706","-0.121155","-0.007634","0.045802","-0.015267","9.467432","-0.403149","0.476123","-0.312231","-0.272754","-0.131592","0.010767","-0.297876","-0.31582"
"U","1617446667.3021593","7","0","-5","-36","37","11","0.718079","-0.122864","-0.674255","-0.121033","-0.022901","0.038168","-0.007634","9.395655","-0.367261","0.409131","-0.385205","-0.236865","-0.184229","0.068188","-0.281128","-0.392383"
"U","1617446667.292167","7","1","-4","-34","35","11","0.717712","-0.122498","-0.674805","-0.120789","-0.038168","0.030534","0","9.352588","-0.288306","0.373242","-0.429468","-0.161499","-0.208154","0.114844","-0.218921","-0.437842"
"U","1617446667.2821012","7","0","-3","-33","38","15","0.717407","-0.121948","-0.675293","-0.120483","-0.045802","0.030534","0.007634","9.328662","-0.187817","0.349316","-0.45459","-0.066992","-0.221313","0.15791","-0.133984","-0.465356"
"U","1617446667.2720256","7","0","-2","-34","39","13","0.717102","-0.121338","-0.67572","-0.120056","-0.038168","0.030534","0.007634","9.333447","-0.120825","0.320605","-0.448608","-0.004785","-0.240454","0.197388","-0.081348","-0.460571"
"U","1617446667.262038","7","1","-3","-35","32","12","0.716797","-0.120972","-0.676208","-0.119751","-0.022901","0.045802","0.007634","9.38728","-0.114844","0.312231","-0.395972","-0.002393","-0.238062","0.19978","-0.077759","-0.407935"
"U","1617446667.2520127","7","-1","-2","-35","35","10","0.71637","-0.12085","-0.676697","-0.119629","0","0.045802","0.007634","9.482984","-0.15791","0.318213","-0.301465","-0.046655","-0.220117","0.174658","-0.114844","-0.312231"
"U","1617446667.2421143","7","0","-5","-33","35","10","0.71582","-0.120911","-0.677246","-0.11969","0.007634","0.045802","0","9.530835","-0.191406","0.328979","-0.253613","-0.08374","-0.193799","0.139966","-0.141162","-0.261987"
"U","1617446667.2321415","7","1","-4","-33","38","12","0.715393","-0.121094","-0.677673","-0.119873","0.007634","0.030534","-0.007634","9.540405","-0.19021","0.34812","-0.245239","-0.08374","-0.163892","0.112451","-0.131592","-0.252417"
"U","1617446667.222049","7","0","-4","-39","32","10","0.715027","-0.121216","-0.677979","-0.119934","0","0.015267","-0.007634","9.538013","-0.169873","0.398364","-0.247632","-0.0646","-0.104077","0.062207","-0.093311","-0.251221"
"U","1617446667.2121809","7","3","-4","-33","36","13","0.714905","-0.121277","-0.678101","-0.119934","-0.007634","0","-0.007634","9.518872","-0.156714","0.44502","-0.266772","-0.050244","-0.053833","0.019141","-0.063403","-0.267969"
"U","1617446667.202294","7","3","-1","-35","38","12","0.714905","-0.121216","-0.678101","-0.119934","-0.015267","-0.007634","-0.007634","9.484179","-0.139966","0.479712","-0.301465","-0.034692","-0.019141","-0.008374","-0.035889","-0.301465"
"U","1617446667.1919632","7","0","-5","-35","35","11","0.715027","-0.121033","-0.67804","-0.119812","-0.022901","-0.015267","-0.007634","9.449488","-0.102881","0.513208","-0.336157","0","0.010767","-0.027515","0.005981","-0.334961"
"U","1617446667.1820977","7","1","-1","-34","37","11","0.715149","-0.120911","-0.677979","-0.119507","-0.022901","-0.015267","-0.015267","9.420776","-0.076563","0.523975","-0.364868","0.029907","0.019141","-0.026318","0.037085","-0.363672"
"U","1617446667.1721804","7","3","-2","-34","32","12","0.715271","-0.120911","-0.677917","-0.119202","-0.007634","0","-0.015267","9.41958","-0.094507","0.517993","-0.366064","0.015552","0.011963","-0.025122","0.020337","-0.364868"
"U","1617446667.1622088","7","1","-1","-36","39","12","0.71521","-0.121155","-0.677979","-0.118958","0.015267","0.015267","-0.015267","9.477002","-0.177051","0.48689","-0.308643","-0.058618","-0.015552","-0.020337","-0.058618","-0.307446"
"U","1617446667.1520617","7","1","-1","-34","36","12","0.714905","-0.121582","-0.678223","-0.119019","0.022901","0.030534","-0.015267","9.572705","-0.269165","0.479712","-0.214136","-0.147144","-0.014355","-0.046655","-0.141162","-0.211743"
"U","1617446667.1420906","7","0","0","-36","35","11","0.714539","-0.121948","-0.678528","-0.119141","0.015267","0.022901","-0.007634","9.60022","-0.301465","0.470142","-0.186621","-0.177051","-0.014355","-0.055029","-0.169873","-0.184229"
"U","1617446667.1321013","7","0","-4","-33","39","13","0.714233","-0.122192","-0.678711","-0.119263","0.007634","0.015267","-0.007634","9.552368","-0.276343","0.44502","-0.234473","-0.151929","-0.0323","-0.0323","-0.151929","-0.233276"
"U","1617446667.1220117","7","-1","-1","-38","35","12","0.71405","-0.122192","-0.678894","-0.119385","-0.007634","0.007634","0","9.499731","-0.23208","0.421094","-0.287109","-0.110059","-0.05144","-0.002393","-0.118433","-0.287109"
"U","1617446667.1123247","7","0","-5","-36","34","11","0.713989","-0.12207","-0.679016","-0.119507","-0.015267","0","0.007634","9.45188","-0.183032","0.392383","-0.336157","-0.0646","-0.078955","0.035889","-0.084937","-0.33855"
"U","1617446667.1021197","7","0","-6","-34","39","12","0.713928","-0.121826","-0.679077","-0.119507","-0.015267","0","0.007634","9.418384","-0.136377","0.368457","-0.368457","-0.021533","-0.101685","0.069385","-0.05144","-0.372046"
"U","1617446667.092095","7","-3","-3","-36","35","11","0.713867","-0.121582","-0.679199","-0.119507","-0.015267","0.007634","0.007634","9.395655","-0.10647","0.350513","-0.391187","0.003589","-0.117236","0.092114","-0.033496","-0.395972"
"U","1617446667.082027","7","0","-1","-36","39","9","0.713745","-0.12146","-0.679382","-0.119507","-0.007634","0.022901","0.007634","9.429151","-0.094507","0.344531","-0.358887","0.013159","-0.119629","0.099292","-0.025122","-0.363672"
"U","1617446667.072321","7","-1","1","-34","36","11","0.713501","-0.121399","-0.679688","-0.119507","0","0.030534","0","9.500928","-0.101685","0.355298","-0.288306","0.003589","-0.101685","0.082544","-0.028711","-0.291895"
"U","1617446667.0621018","7","-3","-3","-38","37","11","0.713135","-0.121521","-0.679993","-0.119629","0.015267","0.022901","0","9.545191","-0.114844","0.349316","-0.244043","-0.00957","-0.098096","0.076563","-0.039478","-0.247632"
"U","1617446667.0522811","7","1","-5","-34","36","12","0.71283","-0.121643","-0.680237","-0.119812","0.015267","0.015267","0","9.520068","-0.120825","0.326587","-0.269165","-0.017944","-0.113647","0.088525","-0.052637","-0.272754"
"U","1617446667.0424285","7","1","-4","-35","38","9","0.712646","-0.121765","-0.680359","-0.120117","0.015267","0","0.007634","9.472217","-0.104077","0.303857","-0.317017","-0.004785","-0.132788","0.108862","-0.046655","-0.321802"
"U","1617446667.032088","7","-1","-3","-33","25","10","0.712646","-0.121887","-0.680298","-0.120361","0.015267","-0.015267","0.007634","9.411206","-0.08374","0.288306","-0.378027","0.013159","-0.149536","0.126807","-0.035889","-0.384009"
"U","1617446667.022076","7","-1","-3","-33","36","11","0.712708","-0.121948","-0.680176","-0.120667","0.007634","-0.007634","0","9.365747","-0.071777","0.270361","-0.423486","0.022729","-0.169873","0.147144","-0.0323","-0.430664"
"U","1617446667.0122464","7","-1","-5","-34","36","12","0.712769","-0.121948","-0.680054","-0.120911","0","0","0","9.401636","-0.050244","0.303857","-0.387598","0.040674","-0.139966","0.126807","-0.005981","-0.393579"
"U","1617446667.0020328","7","-1","-4","-35","36","11","0.712769","-0.121826","-0.680054","-0.120972","-0.007634","0.015267","0","9.490161","-0.013159","0.378027","-0.299072","0.075366","-0.065796","0.072974","0.050244","-0.301465"
"U","1617446666.992546","7","0","-4","-35","34","10","0.712646","-0.121826","-0.680176","-0.120972","0","0.015267","0","9.596631","-0.007178","0.468945","-0.192603","0.081348","0.027515","-0.005981","0.086133","-0.191406"
"U","1617446666.9821496","7","-20","-1","-34","39","11","0.712402","-0.121948","-0.68042","-0.120911","0.015267","0.015267","-0.007634","9.652857","-0.080151","0.516797","-0.136377","0.00957","0.082544","-0.080151","0.037085","-0.131592"
"U","1617446666.9720836","7","1","-4","-33","38","13","0.712158","-0.122375","-0.680603","-0.120972","0.022901","0.007634","-0.015267","9.637304","-0.184229","0.52876","-0.151929","-0.089722","0.100488","-0.130396","-0.049048","-0.145947"
"U","1617446666.4729106","7","-4","-6","-35","34","11","0.714478","-0.120667","-0.677917","-0.124207","0.030534","0.015267","0","9.671997","-0.113647","0.507227","-0.114844","-0.07417","0","-0.029907","-0.066992","-0.113647"
"U","1617446666.4632187","7","-3","-3","-34","35","11","0.714233","-0.12085","-0.67804","-0.124695","0.007634","0.007634","0.007634","9.715063","-0.08374","0.567041","-0.071777","-0.049048","0.063403","-0.078955","-0.022729","-0.068188"
"U","1617446666.4531276","7","-1","-5","-36","34","12","0.714172","-0.120728","-0.678101","-0.124939","-0.022901","-0.015267","0.007634","9.707886","0.010767","0.637622","-0.078955","0.039478","0.135181","-0.11604","0.08374","-0.071777"
"U","1617446666.4431496","7","0","-3","-36","35","15","0.714355","-0.120178","-0.677979","-0.124756","-0.053435","-0.038168","0.007634","9.656446","0.14834","0.710596","-0.129199","0.172266","0.202173","-0.136377","0.23208","-0.118433"
"U","1617446666.433074","7","-1","-6","-35","36","10","0.714844","-0.119446","-0.677734","-0.124329","-0.061069","-0.053435","0","9.566724","0.247632","0.75127","-0.218921","0.269165","0.23208","-0.137573","0.334961","-0.206958"
"U","1617446666.4230492","7","1","-3","-34","37","10","0.715454","-0.118835","-0.677307","-0.123779","-0.045802","-0.053435","-0.015267","9.49375","0.27395","0.753662","-0.291895","0.29668","0.220117","-0.120825","0.35769","-0.279932"
"U","1617446666.4131415","7","-1","-4","-35","38","10","0.716003","-0.118774","-0.676819","-0.123169","-0.007634","-0.038168","-0.022901","9.460254","0.186621","0.714185","-0.324194","0.218921","0.168677","-0.101685","0.267969","-0.314624"
"U","1617446666.4031725","7","1","-3","-33","32","12","0.716309","-0.119263","-0.676453","-0.122864","0.030534","-0.007634","-0.030534","9.542798","-0.00957","0.666333","-0.240454","0.034692","0.113647","-0.107666","0.07417","-0.233276"
"U","1617446666.3930616","7","1","-3","-33","38","12","0.716248","-0.120178","-0.676392","-0.122803","0.045802","0.015267","-0.038168","9.705493","-0.217725","0.651978","-0.078955","-0.15791","0.101685","-0.153125","-0.112451","-0.071777"
"U","1617446666.3830504","7","3","-4","-35","38","33","0.715881","-0.121216","-0.676514","-0.122986","0.045802","0.030534","-0.038168","9.808374","-0.352905","0.650781","0.022729","-0.282324","0.108862","-0.196191","-0.228491","0.029907"
"U","1617446666.3730948","7","0","-2","-26","37","12","0.715454","-0.12207","-0.676819","-0.123047","0.022901","0.030534","-0.030534","9.8323","-0.406738","0.666333","0.046655","-0.326587","0.136377","-0.236865","-0.260791","0.056226"
"U","1617446666.3631134","7","1","-3","-35","36","11","0.715088","-0.122437","-0.677124","-0.123047","-0.015267","0.022901","-0.022901","9.821533","-0.364868","0.699829","0.034692","-0.281128","0.179443","-0.261987","-0.202173","0.045459"
"U","1617446666.3531013","7","1","-4","-35","36","10","0.714905","-0.122375","-0.677429","-0.122681","-0.038168","0.007634","-0.015267","9.75813","-0.25481","0.723755","-0.027515","-0.168677","0.210547","-0.256006","-0.086133","-0.014355"
"U","1617446666.3433585","7","0","-4","-35","38","11","0.714844","-0.122009","-0.677673","-0.122192","-0.053435","-0.007634","-0.015267","9.627734","-0.13877","0.726147","-0.159106","-0.05144","0.217725","-0.229687","0.026318","-0.147144"
"U","1617446666.3333223","7","-1","-3","-35","38","12","0.714844","-0.121521","-0.677856","-0.121582","-0.045802","0","-0.007634","9.490161","-0.059814","0.690259","-0.29668","0.026318","0.184229","-0.179443","0.089722","-0.285913"
"U","1617446666.3230572","7","-1","-3","-36","38","10","0.714783","-0.121216","-0.67804","-0.121094","-0.022901","0.015267","-0.007634","9.399243","-0.05144","0.614893","-0.387598","0.037085","0.113647","-0.113647","0.076563","-0.38042"
"U","1617446666.3133795","7","0","-4","-33","35","9","0.714417","-0.121277","-0.678467","-0.120789","0.015267","0.038168","-0.007634","9.374121","-0.110059","0.522778","-0.41272","-0.017944","0.0323","-0.056226","-0.002393","-0.410327"
"U","1617446666.303286","7","-1","-3","-36","35","11","0.713806","-0.121765","-0.679016","-0.120911","0.045802","0.053435","-0.007634","9.364551","-0.210547","0.421094","-0.423486","-0.11604","-0.05144","-0.010767","-0.123218","-0.423486"
"U","1617446666.293125","7","-3","-5","-35","35","11","0.712952","-0.122559","-0.679688","-0.121338","0.061069","0.068702","0","9.362158","-0.300269","0.30625","-0.427075","-0.203369","-0.144751","0.046655","-0.236865","-0.430664"
"U","1617446666.2833023","7","23","-1","-34","36","-5","0.712036","-0.123291","-0.68042","-0.122009","0.045802","0.076336","0","9.382495","-0.300269","0.23208","-0.407935","-0.205762","-0.196191","0.095703","-0.257202","-0.413916"
"U","1617446666.2733202","7","1","-4","-51","38","11","0.710999","-0.123657","-0.681274","-0.122559","0.015267","0.076336","0.007634","9.438721","-0.202173","0.209351","-0.351709","-0.114844","-0.192603","0.12561","-0.171069","-0.35769"
"U","1617446666.2631958","7","-3","-4","-45","34","11","0.710144","-0.123718","-0.68219","-0.122864","-0.007634","0.061069","0.007634","9.45188","-0.034692","0.217725","-0.340942","0.044263","-0.161499","0.153125","-0.010767","-0.346924"
"U","1617446666.253203","7","-1","-4","-36","38","13","0.709534","-0.123535","-0.6828","-0.122803","-0.015267","0.022901","0","9.359766","0.110059","0.200977","-0.433057","0.184229","-0.161499","0.197388","0.119629","-0.439038"
"U","1617446666.2432938","7","4","-3","-37","36","12","0.709351","-0.123535","-0.683044","-0.122681","0","-0.015267","-0.007634","9.16836","0.111255","0.10647","-0.624463","0.185425","-0.250024","0.275146","0.090918","-0.634033"
"U","1617446666.2331548","7","-3","-19","-34","38","12","0.709473","-0.123779","-0.682861","-0.12262","0.022901","-0.015267","-0.015267","9.043945","0.050244","0.002393","-0.748877","0.129199","-0.35769","0.351709","0.001196","-0.762036"
"U","1617446666.223478","7","1","-3","-33","35","9","0.709595","-0.12439","-0.682556","-0.122742","0.045802","0.007634","-0.015267","9.091797","-0.029907","-0.050244","-0.699829","0.057422","-0.415112","0.381616","-0.084937","-0.714185"
"U","1617446666.2132318","7","0","-5","-35","34","11","0.709534","-0.125122","-0.682495","-0.123108","0.045802","0.030534","-0.007634","9.250903","-0.120825","-0.040674","-0.541919","-0.027515","-0.404346","0.34812","-0.162695","-0.556274"
"U","1617446666.2031562","7","-3","-4","-34","35","11","0.709167","-0.125732","-0.682617","-0.123596","0.038168","0.038168","0","9.463842","-0.141162","0.034692","-0.327783","-0.046655","-0.321802","0.272754","-0.153125","-0.33855"
"U","1617446666.1931813","7","-17","-3","-35","34","10","0.708801","-0.126099","-0.682861","-0.124084","0.022901","0.022901","0.007634","9.612183","-0.117236","0.136377","-0.18064","-0.025122","-0.211743","0.181836","-0.095703","-0.187817"
"U","1617446666.1833727","7","3","-1","-34","38","11","0.708557","-0.126282","-0.683044","-0.124512","0.007634","0.007634","0.007634","9.639697","-0.077759","0.204565","-0.154321","0.008374","-0.13877","0.126807","-0.039478","-0.159106"
"U","1617446666.1730585","7","0","-6","-35","35","12","0.708557","-0.126099","-0.683044","-0.124817","-0.015267","-0.015267","0.007634","9.615771","-0.003589","0.269165","-0.178247","0.076563","-0.075366","0.090918","0.045459","-0.18064"
"U","1617446666.163291","7","1","-3","-34","38","12","0.708801","-0.125732","-0.6828","-0.124878","-0.022901","-0.038168","0.007634","9.543994","0.07417","0.320605","-0.248828","0.149536","-0.031104","0.071777","0.130396","-0.250024"
"U","1617446666.153163","7","0","-3","-34","37","13","0.70929","-0.125366","-0.682373","-0.124756","-0.030534","-0.053435","0","9.461451","0.114844","0.343335","-0.331372","0.189014","-0.021533","0.072974","0.171069","-0.332568"
"U","1617446666.1430883","7","1","-4","-33","36","12","0.7099","-0.125061","-0.681824","-0.124573","-0.022901","-0.045802","-0.007634","9.417188","0.112451","0.361279","-0.374438","0.186621","-0.020337","0.068188","0.169873","-0.375635"
"U","1617446666.1332295","7","-1","-1","-36","36","11","0.710388","-0.125","-0.681335","-0.124329","0","-0.038168","-0.015267","9.402832","0.053833","0.381616","-0.387598","0.132788","-0.011963","0.040674","0.122021","-0.388794"
"U","1617446666.1239214","7","0","-2","-34","36","11","0.710754","-0.125305","-0.680969","-0.124207","0.015267","-0.022901","-0.022901","9.423169","-0.063403","0.388794","-0.367261","0.023926","-0.014355","0.005981","0.019141","-0.367261"
"U","1617446666.1133232","7","-1","-3","-34","37","11","0.710938","-0.125793","-0.680725","-0.124146","0.022901","-0.007634","-0.022901","9.474609","-0.172266","0.398364","-0.31582","-0.075366","-0.00957","-0.029907","-0.071777","-0.314624"
"U","1617446666.103039","7","0","-1","-36","36","14","0.710938","-0.126221","-0.680603","-0.124207","0.007634","0.007634","-0.022901","9.541601","-0.215332","0.418701","-0.248828","-0.112451","0.00957","-0.058618","-0.100488","-0.246436"
"U","1617446666.0934248","7","0","0","-34","38","14","0.710876","-0.126404","-0.680664","-0.124084","-0.007634","0.007634","-0.015267","9.625341","-0.193799","0.484497","-0.165088","-0.087329","0.077759","-0.110059","-0.053833","-0.160303"
"U","1617446666.084102","7","0","-3","-36","37","11","0.710815","-0.126404","-0.680725","-0.123901","-0.022901","-0.007634","-0.015267","9.60979","-0.185425","0.512012","-0.18064","-0.076563","0.107666","-0.133984","-0.033496","-0.174658"
"U","1617446666.0731747","7","11","-3","-34","38","12","0.710876","-0.126221","-0.680725","-0.123596","-0.030534","-0.022901","-0.015267","9.543994","-0.163892","0.520386","-0.246436","-0.053833","0.114844","-0.136377","-0.00957","-0.240454"
"U","1617446666.06397","7","0","-3","-34","39","14","0.711182","-0.125916","-0.680603","-0.12323","-0.038168","-0.030534","-0.015267","9.447095","-0.147144","0.501245","-0.343335","-0.034692","0.089722","-0.110059","0","-0.33855"
"U","1617446666.053375","7","-3","-1","-35","35","10","0.711487","-0.12561","-0.68042","-0.122864","-0.030534","-0.030534","-0.015267","9.375318","-0.145947","0.480908","-0.415112","-0.0323","0.063403","-0.088525","-0.005981","-0.411523"
"U","1617446666.0430827","7","1","-1","-34","40","13","0.711731","-0.125549","-0.680176","-0.122498","-0.007634","-0.015267","-0.015267","9.329859","-0.191406","0.456982","-0.459375","-0.072974","0.033496","-0.076563","-0.055029","-0.455786"
"U","1617446666.0332742","7","2","-2","-36","36","11","0.711792","-0.125793","-0.680176","-0.122375","0.015267","0.015267","-0.022901","9.358569","-0.283521","0.428271","-0.43186","-0.159106","0.004785","-0.077759","-0.145947","-0.428271"
"U","1617446666.0233033","7","-1","-2","-34","40","13","0.711487","-0.126221","-0.68042","-0.122314","0.022901","0.045802","-0.015267","9.490161","-0.352905","0.446216","-0.300269","-0.223706","0.031104","-0.119629","-0.197388","-0.295483"
"U","1617446666.0133407","7","-1","-4","-33","39","11","0.710815","-0.126648","-0.680969","-0.122437","0.007634","0.061069","-0.007634","9.620557","-0.375635","0.479712","-0.169873","-0.245239","0.082544","-0.168677","-0.200977","-0.162695"
"U","1617446666.003884","7","1","-4","-33","37","13","0.710083","-0.12677","-0.681702","-0.122498","-0.007634","0.053435","0.007634","9.707886","-0.336157","0.525171","-0.08374","-0.208154","0.14834","-0.214136","-0.143555","-0.07417"
"U","1617446665.993366","7","-3","-4","-34","38","15","0.709412","-0.126526","-0.682434","-0.122559","-0.022901","0.038168","0.015267","9.694727","-0.234473","0.551489","-0.096899","-0.113647","0.192603","-0.22251","-0.039478","-0.087329"
"U","1617446665.98345","7","-2","-1","-34","35","12","0.708923","-0.126099","-0.683044","-0.122559","-0.022901","0.007634","0.022901","9.610987","-0.154321","0.516797","-0.181836","-0.04187","0.172266","-0.181836","0.020337","-0.174658"
"U","1617446665.973316","7","-3","-1","-35","32","10","0.708679","-0.125671","-0.68335","-0.122681","-0.007634","-0.007634","0.022901","9.443506","-0.14834","0.403149","-0.349316","-0.045459","0.0646","-0.088525","-0.019141","-0.345728"
"U","1617446665.9633982","7","-1","-4","-35","35","9","0.708618","-0.125366","-0.683411","-0.123108","0.015267","0","0.030534","9.347803","-0.183032","0.263184","-0.446216","-0.089722","-0.07417","0.021533","-0.107666","-0.447412"
"U","1617446665.9533477","7","1","-3","-34","34","9","0.708435","-0.125305","-0.683472","-0.123657","0.030534","0.015267","0.022901","9.382495","-0.196191","0.184229","-0.410327","-0.112451","-0.151929","0.088525","-0.155518","-0.413916"
"U","1617446665.944065","7","-3","-5","-34","37","12","0.708069","-0.125427","-0.683716","-0.12439","0.038168","0.030534","0.022901","9.45188","-0.22251","0.117236","-0.342139","-0.14834","-0.211743","0.133984","-0.210547","-0.346924"
"U","1617446665.9339097","7","-4","-3","-34","36","10","0.707581","-0.125671","-0.684021","-0.125122","0.038168","0.030534","0.015267","9.548779","-0.230884","0.100488","-0.245239","-0.165088","-0.218921","0.13877","-0.229687","-0.250024"
"U","1617446665.924107","7","1","-2","-36","37","16","0.707153","-0.125854","-0.684326","-0.125793","0.022901","0.015267","0.015267","9.524854","-0.191406","0.087329","-0.269165","-0.133984","-0.223706","0.153125","-0.202173","-0.275146"
"U","1617446665.9132164","7","-3","-4","-34","35","10","0.70697","-0.125793","-0.684448","-0.126221","0","0.007634","0.015267","9.485376","-0.113647","0.111255","-0.309839","-0.063403","-0.196191","0.150732","-0.12561","-0.314624"
"U","1617446665.9033277","7","1","-3","-36","39","13","0.70697","-0.125488","-0.684448","-0.126465","-0.015267","-0.007634","0.007634","9.463842","-0.026318","0.165088","-0.330176","0.015552","-0.143555","0.129199","-0.0323","-0.333765"
"U","1617446665.8939197","7","-3","-5","-35","58","9","0.707153","-0.125122","-0.684326","-0.126465","-0.022901","-0.022901","0.007634","9.418384","0.039478","0.205762","-0.375635","0.076563","-0.107666","0.114844","0.035889","-0.378027"
"U","1617446665.8831182","7","0","-3","-35","38","10","0.707458","-0.124756","-0.684082","-0.126404","-0.015267","-0.030534","0.007634","9.408813","0.056226","0.246436","-0.385205","0.090918","-0.075366","0.089722","0.061011","-0.387598"
"U","1617446665.8740697","7","0","-4","-34","38","12","0.707764","-0.124573","-0.683777","-0.126404","0.007634","-0.045802","0","9.380102","0.010767","0.238062","-0.413916","0.044263","-0.093311","0.088525","0.011963","-0.416309"
"U","1617446665.864092","7","-1","-1","-35","36","10","0.708252","-0.124695","-0.683289","-0.126587","0.022901","-0.045802","-0.007634","9.316699","-0.066992","0.184229","-0.477319","-0.031104","-0.160303","0.122021","-0.080151","-0.482104"
"U","1617446665.8540344","7","-4","-5","-36","36","11","0.708618","-0.125122","-0.682678","-0.126953","0.038168","-0.030534","-0.015267","9.329859","-0.132788","0.155518","-0.462964","-0.093311","-0.202173","0.13877","-0.153125","-0.468945"
"U","1617446665.844041","7","-1","-5","-36","38","11","0.708923","-0.125549","-0.682251","-0.12738","0.030534","-0.022901","-0.015267","9.390869","-0.163892","0.161499","-0.401953","-0.122021","-0.205762","0.133984","-0.181836","-0.407935"
"U","1617446665.8341908","7","-3","-4","-34","36","12","0.709106","-0.125854","-0.681885","-0.127747","0.015267","-0.015267","-0.007634","9.444702","-0.117236","0.204565","-0.346924","-0.075366","-0.171069","0.119629","-0.126807","-0.351709"
"U","1617446665.823982","7","-1","-4","-36","23","8","0.70929","-0.125977","-0.681641","-0.12793","-0.007634","-0.015267","0","9.479395","-0.019141","0.277539","-0.312231","0.022729","-0.104077","0.093311","-0.011963","-0.31582"
"U","1617446665.8139372","7","-1","-5","-35","38","10","0.709534","-0.125793","-0.681458","-0.127991","-0.015267","-0.030534","0.007634","9.471021","0.049048","0.328979","-0.320605","0.088525","-0.058618","0.072974","0.0646","-0.322998"
"U","1617446665.8040657","7","-1","-3","-37","31","9","0.709839","-0.125427","-0.681152","-0.127991","-0.022901","-0.030534","0.007634","9.438721","0.10647","0.362476","-0.351709","0.142358","-0.034692","0.068188","0.124414","-0.352905"
"U","1617446665.793296","7","-1","-3","-35","38","12","0.710205","-0.125183","-0.680908","-0.127869","-0.007634","-0.030534","0","9.423169","0.113647","0.391187","-0.368457","0.149536","-0.014355","0.050244","0.13877","-0.368457"
"U","1617446665.78397","7","0","-5","-38","38","9","0.71051","-0.125305","-0.680603","-0.127808","0.015267","-0.030534","-0.007634","9.399243","0.017944","0.374438","-0.392383","0.057422","-0.039478","0.040674","0.043066","-0.393579"
"U","1617446665.774068","7","-1","-4","-35","35","11","0.710693","-0.125732","-0.680237","-0.12793","0.030534","-0.015267","-0.015267","9.408813","-0.110059","0.33855","-0.381616","-0.063403","-0.081348","0.037085","-0.08374","-0.384009"
"U","1617446665.7641375","7","-1","-3","-36","35","11","0.710815","-0.12616","-0.679993","-0.128296","0.022901","-0.015267","-0.007634","9.471021","-0.168677","0.349316","-0.319409","-0.120825","-0.075366","0.013159","-0.135181","-0.320605"
"U","1617446665.7541106","7","0","-3","-34","35","10","0.710938","-0.126404","-0.679749","-0.128662","0.007634","-0.022901","0","9.471021","-0.143555","0.35769","-0.319409","-0.095703","-0.072974","0.020337","-0.111255","-0.321802"
"U","1617446665.7441134","7","3","-3","-33","35","12","0.711182","-0.126282","-0.679504","-0.128906","-0.015267","-0.030534","0","9.423169","-0.070581","0.364868","-0.367261","-0.026318","-0.072974","0.04187","-0.045459","-0.369653"
"U","1617446665.7340117","7","-2","-4","-34","32","11","0.711487","-0.125916","-0.679199","-0.129028","-0.030534","-0.038168","0","9.353785","0.021533","0.362476","-0.435449","0.058618","-0.084937","0.080151","0.029907","-0.439038"
"U","1617446665.7239883","7","-1","-3","-34","25","11","0.711914","-0.125488","-0.678833","-0.128845","-0.038168","-0.038168","0","9.272436","0.104077","0.343335","-0.515601","0.139966","-0.114844","0.132788","0.096899","-0.520386"
"U","1617446665.7139704","7","0","-3","-35","35","9","0.71228","-0.125122","-0.678589","-0.12854","-0.022901","-0.015267","0","9.246119","0.139966","0.319409","-0.541919","0.177051","-0.147144","0.174658","0.120825","-0.5479"
"U","1617446665.7042303","7","-3","-4","-36","38","10","0.712463","-0.125","-0.678467","-0.128296","-0.007634","0.007634","0.007634","9.37771","0.081348","0.305054","-0.410327","0.119629","-0.166284","0.178247","0.058618","-0.417505"
"U","1617446665.6940067","7","0","-3","-38","37","13","0.712341","-0.124939","-0.678589","-0.128357","0","0.007634","0.015267","9.559546","-0.010767","0.333765","-0.228491","0.026318","-0.133984","0.123218","-0.019141","-0.234473"
"U","1617446665.6840334","7","-1","-3","-35","38","10","0.71228","-0.124817","-0.67865","-0.12854","-0.007634","0","0.015267","9.576294","-0.031104","0.334961","-0.211743","0.001196","-0.131592","0.113647","-0.04187","-0.217725"
"U","1617446665.67412","7","-1","-4","-34","34","10","0.712341","-0.124512","-0.67865","-0.128662","-0.015267","-0.015267","0.007634","9.554761","-0.003589","0.35769","-0.233276","0.022729","-0.111255","0.100488","-0.014355","-0.238062"
"U","1617446665.6641598","7","2","-4","-35","34","8","0.712524","-0.124207","-0.678528","-0.128662","-0.015267","-0.022901","0","9.522461","0.008374","0.382812","-0.265576","0.031104","-0.090918","0.082544","0","-0.269165"
"U","1617446665.6541262","7","0","-1","-36","35","12","0.712769","-0.124084","-0.678284","-0.12854","-0.007634","-0.022901","-0.007634","9.480591","-0.035889","0.401953","-0.307446","-0.010767","-0.078955","0.055029","-0.0323","-0.309839"
"U","1617446665.6439738","7","0","-6","-35","36","11","0.713074","-0.124084","-0.677979","-0.12854","-0.007634","-0.015267","-0.007634","9.488965","-0.084937","0.424683","-0.299072","-0.058618","-0.0646","0.025122","-0.072974","-0.301465"
"U","1617446665.634026","7","1","-4","-35","36","12","0.713257","-0.123962","-0.677795","-0.12854","-0.015267","-0.015267","0.007634","9.594238","-0.08374","0.50603","-0.192603","-0.057422","0.010767","-0.039478","-0.046655","-0.191406"
"U","1617446665.623957","7","0","-4","-35","36","11","0.71344","-0.123535","-0.677612","-0.128662","-0.022901","-0.038168","0.015267","9.640894","-0.046655","0.598145","-0.145947","-0.027515","0.096899","-0.10647","0.00957","-0.139966"
"U","1617446665.6140842","7","-1","-6","-36","34","11","0.713867","-0.122986","-0.677307","-0.128723","-0.022901","-0.053435","0.015267","9.538013","0.016748","0.630444","-0.248828","0.028711","0.117236","-0.111255","0.071777","-0.24165"
"U","1617446665.6039984","7","-3","-2","-35","38","11","0.714417","-0.122498","-0.676758","-0.128784","-0.015267","-0.061069","0.007634","9.441113","0.0323","0.608911","-0.343335","0.038281","0.078955","-0.077759","0.069385","-0.33855"
"U","1617446665.5942423","7","-3","-5","-33","39","11","0.714966","-0.122253","-0.676208","-0.128906","0.007634","-0.053435","0","9.411206","0.015552","0.5802","-0.373242","0.019141","0.034692","-0.044263","0.037085","-0.369653"
"U","1617446665.584207","7","-1","-3","-34","36","11","0.715332","-0.122314","-0.67572","-0.12915","0.022901","-0.038168","0","9.431543","-0.038281","0.5479","-0.351709","-0.033496","-0.008374","-0.021533","-0.026318","-0.350513"
"U","1617446665.5740323","7","0","-3","-34","35","11","0.715637","-0.12262","-0.675354","-0.129578","0.030534","-0.022901","0","9.494946","-0.090918","0.544312","-0.288306","-0.086133","-0.021533","-0.025122","-0.081348","-0.288306"
"U","1617446665.5644944","7","-3","-4","-34","37","11","0.715759","-0.122864","-0.67511","-0.130005","0.015267","-0.015267","0","9.59065","-0.077759","0.593359","-0.192603","-0.07417","0.021533","-0.056226","-0.057422","-0.19021"
"U","1617446665.554078","7","-3","-5","-35","35","10","0.71582","-0.122864","-0.674927","-0.130432","0","-0.015267","0.015267","9.68396","-0.001196","0.685474","-0.099292","-0.002393","0.108862","-0.107666","0.037085","-0.092114"
"U","1617446665.5441258","7","-3","-5","-35","28","12","0.715942","-0.122559","-0.674805","-0.130798","-0.015267","-0.030534","0.022901","9.7354","0.101685","0.791943","-0.047852","0.090918","0.210547","-0.166284","0.159106","-0.034692"
"U","1617446665.5342994","7","-4","-3","-38","31","12","0.716187","-0.122009","-0.674561","-0.131042","-0.022901","-0.053435","0.030534","9.723437","0.203369","0.891235","-0.058618","0.183032","0.301465","-0.220117","0.277539","-0.039478"
"U","1617446665.524222","7","1","-1","-34","34","13","0.716736","-0.121338","-0.674072","-0.131287","-0.015267","-0.076336","0.030534","9.615771","0.252417","0.910376","-0.165088","0.221313","0.303857","-0.215332","0.317017","-0.144751"
"U","1617446665.5140254","7","1","-3","-35","38","11","0.717407","-0.120972","-0.67334","-0.131653","0.007634","-0.091603","0.022901","9.473413","0.196191","0.86731","-0.30625","0.159106","0.239258","-0.185425","0.240454","-0.289502"
"U","1617446665.504235","7","0","-1","-33","38","14","0.718201","-0.120911","-0.672424","-0.132202","0.038168","-0.083969","0.007634","9.371729","0.077759","0.801514","-0.406738","0.037085","0.149536","-0.150732","0.098096","-0.394775"
"U","1617446665.494111","7","-3","-6","-36","38","11","0.718811","-0.121338","-0.671509","-0.132812","0.053435","-0.068702","-0.007634","9.308325","-0.049048","0.735718","-0.467749","-0.087329","0.062207","-0.117236","-0.045459","-0.461768"
"U","1617446665.48412","7","-3","-3","-33","38","10","0.71936","-0.121887","-0.670715","-0.133484","0.045802","-0.045802","-0.007634","9.296362","-0.128003","0.693848","-0.478516","-0.163892","0.001196","-0.089722","-0.13877","-0.477319"
"U","1617446665.4740908","7","-1","-21","-36","36","10","0.719666","-0.122314","-0.670166","-0.134094","0.022901","-0.030534","0","9.351392","-0.133984","0.685474","-0.42229","-0.169873","-0.017944","-0.070581","-0.151929","-0.42229"
"U","1617446665.4642973","7","-1","-3","-36","35","11","0.719849","-0.122314","-0.669861","-0.134583","-0.007634","-0.015267","0.022901","9.473413","-0.052637","0.720166","-0.300269","-0.093311","0.008374","-0.061011","-0.07417","-0.299072"
"U","1617446665.4540143","7","-3","-5","-35","35","10","0.719971","-0.121704","-0.6698","-0.134949","-0.030534","-0.015267","0.038168","9.576294","0.056226","0.771606","-0.197388","0.001196","0.053833","-0.062207","0.026318","-0.192603"
"U","1617446665.4442596","7","-1","-3","-35","38","12","0.720093","-0.120789","-0.6698","-0.135132","-0.045802","-0.030534","0.038168","9.59065","0.172266","0.796728","-0.181836","0.102881","0.075366","-0.045459","0.128003","-0.174658"
"U","1617446665.4341617","7","-4","-4","-34","36","13","0.720276","-0.119812","-0.669739","-0.135132","-0.038168","-0.030534","0.030534","9.532031","0.247632","0.769214","-0.239258","0.165088","0.04187","0.003589","0.177051","-0.233276"
"U","1617446665.424223","7","-1","-4","-34","37","9","0.72052","-0.119202","-0.669617","-0.135071","-0.015267","-0.030534","0.015267","9.456665","0.252417","0.703418","-0.314624","0.162695","-0.028711","0.063403","0.151929","-0.313428"
"U","1617446665.4142458","7","1","-3","-34","38","9","0.720703","-0.119202","-0.669434","-0.135071","0.022901","-0.007634","0","9.411206","0.133984","0.58977","-0.360083","0.045459","-0.147144","0.128003","0.002393","-0.369653"
"U","1617446665.404335","7","1","1","-33","35","9","0.720642","-0.119812","-0.669373","-0.135315","0.053435","0.015267","-0.015267","9.460254","-0.062207","0.488086","-0.311035","-0.144751","-0.248828","0.159106","-0.211743","-0.328979"
"U","1617446665.394198","7","1","-4","-34","37","10","0.720276","-0.120667","-0.669434","-0.135864","0.053435","0.038168","-0.015267","9.551172","-0.202173","0.430664","-0.220117","-0.281128","-0.299072","0.162695","-0.361279","-0.244043"
"U","1617446665.3842957","7","-1","-3","-34","38","12","0.719849","-0.121338","-0.669739","-0.136353","0.030534","0.053435","-0.007634","9.652857","-0.226099","0.43186","-0.119629","-0.303857","-0.288306","0.150732","-0.381616","-0.142358"
"U","1617446665.3741095","7","-1","-4","-35","35","10","0.719299","-0.121521","-0.670227","-0.136658","-0.015267","0.045802","0.007634","9.784449","-0.149536","0.533545","0.00957","-0.230884","-0.172266","0.077759","-0.276343","-0.004785"
"U","1617446665.3640811","7","-1","-3","-35","38","14","0.718872","-0.121094","-0.670715","-0.136719","-0.045802","0.015267","0.015267","9.795215","-0.001196","0.640015","0.020337","-0.092114","-0.055029","0.019141","-0.105273","0.014355"
"U","1617446665.3541522","7","-1","-1","-33","34","11","0.718811","-0.120178","-0.670959","-0.136475","-0.061069","-0.030534","0.015267","9.660034","0.163892","0.699829","-0.113647","0.062207","0.005981","0.00957","0.063403","-0.111255"
"U","1617446665.3441586","7","-1","-3","-35","39","12","0.719238","-0.119324","-0.670776","-0.136108","-0.038168","-0.061069","0.007634","9.380102","0.206958","0.65437","-0.393579","0.099292","-0.046655","0.053833","0.089722","-0.394775"
"U","1617446665.3341606","7","-3","-4","-35","32","10","0.71991","-0.118958","-0.670166","-0.135925","0.015267","-0.053435","0","9.17793","0.112451","0.567041","-0.594556","0.004785","-0.151929","0.104077","-0.027515","-0.60293"
"U","1617446665.324115","7","0","-3","-35","37","12","0.720337","-0.119385","-0.669556","-0.136169","0.061069","-0.022901","-0.015267","9.158789","-0.098096","0.471338","-0.6125","-0.198584","-0.261987","0.132788","-0.256006","-0.631641"
"U","1617446665.3142111","7","6","-4","-34","37","9","0.720337","-0.120239","-0.66925","-0.136841","0.068702","0.022901","-0.007634","9.279614","-0.278735","0.428271","-0.491675","-0.375635","-0.308643","0.119629","-0.442627","-0.516797"
"U","1617446665.3043156","7","-3","-5","-34","38","11","0.719971","-0.120911","-0.669373","-0.137756","0.038168","0.045802","0.007634","9.485376","-0.282324","0.48689","-0.285913","-0.382812","-0.244043","0.069385","-0.433057","-0.30625"
"U","1617446665.294116","7","-4","-2","-35","36","11","0.719482","-0.120911","-0.669739","-0.138489","-0.015267","0.045802","0.030534","9.662427","-0.149536","0.611304","-0.110059","-0.261987","-0.110059","0","-0.278735","-0.120825"
"U","1617446665.2841926","7","-1","-3","-34","36","11","0.719055","-0.119995","-0.670288","-0.138794","-0.068702","0.007634","0.038168","9.755737","0.099292","0.796728","-0.016748","-0.0323","0.084937","-0.090918","0","-0.010767"
"U","1617446665.2741525","7","-1","-6","-35","36","10","0.719116","-0.11853","-0.670532","-0.138672","-0.091603","-0.061069","0.038168","9.571508","0.35769","0.878076","-0.200977","0.205762","0.165088","-0.092114","0.258398","-0.184229"
"U","1617446665.2640276","7","-4","-3","-35","35","11","0.719849","-0.117004","-0.670105","-0.138245","-0.076336","-0.10687","0.022901","9.216211","0.503638","0.825439","-0.555078","0.33855","0.094507","-0.002393","0.372046","-0.540723"
"U","1617446665.2542772","7","0","-2","-36","35","10","0.721008","-0.115967","-0.669067","-0.137817","-0.030534","-0.114504","0.007634","8.938672","0.484497","0.69624","-0.829028","0.31582","-0.0646","0.11604","0.308643","-0.825439"
"U","1617446665.244328","7","1","-5","-38","34","10","0.722107","-0.115784","-0.667969","-0.137756","0.038168","-0.068702","0","8.900391","0.319409","0.571826","-0.866113","0.154321","-0.220117","0.198584","0.105273","-0.878076"
"U","1617446665.2341137","7","-3","-4","-35","38","12","0.722534","-0.116516","-0.667236","-0.138245","0.083969","-0.007634","-0.007634","9.095386","0.077759","0.521582","-0.668726","-0.078955","-0.284717","0.189014","-0.143555","-0.690259"
"U","1617446665.224305","7","-1","-4","-35","35","12","0.722351","-0.117676","-0.667114","-0.139221","0.091603","0.045802","0.007634","9.372925","-0.120825","0.540723","-0.392383","-0.27395","-0.265576","0.120825","-0.332568","-0.416309"
"U","1617446665.2141025","7","-3","-3","-36","36","11","0.721619","-0.11853","-0.66748","-0.14032","0.061069","0.068702","0.022901","9.715063","-0.177051","0.672314","-0.05144","-0.336157","-0.119629","-0.013159","-0.352905","-0.065796"
"U","1617446665.2041533","7","-1","-1","-36","36","9","0.720825","-0.118774","-0.668091","-0.141235","0.007634","0.045802","0.030534","9.904078","-0.107666","0.843384","0.136377","-0.278735","0.068188","-0.154321","-0.240454","0.136377"
"U","1617446665.1941454","7","-5","-1","-35","24","23","0.720398","-0.118225","-0.668579","-0.141785","-0.038168","0","0.038168","9.906469","0.062207","1.000098","0.137573","-0.12561","0.234473","-0.253613","-0.038281","0.151929"
"U","1617446665.18422","7","-1","-4","-35","37","10","0.720459","-0.117004","-0.66864","-0.141968","-0.076336","-0.068702","0.045802","9.755737","0.265576","1.106567","-0.010767","0.056226","0.337354","-0.293091","0.173462","0.016748"
"U","1617446665.174183","7","-1","-3","-35","33","10","0.721191","-0.115417","-0.668152","-0.141846","-0.083969","-0.122137","0.038168","9.423169","0.41272","1.082642","-0.342139","0.185425","0.293091","-0.228491","0.294287","-0.312231"
"U","1617446665.1642978","7","-3","-1","-34","36","12","0.722473","-0.113892","-0.667114","-0.141724","-0.061069","-0.129771","0.030534","9.125293","0.468945","0.967798","-0.637622","0.228491","0.143555","-0.095703","0.29668","-0.617285"
"U","1617446665.1542892","7","-5","-3","-34","37","13","0.723633","-0.112854","-0.665955","-0.141663","-0.015267","-0.091603","0.022901","9.088208","0.482104","0.911572","-0.669922","0.233276","0.053833","-0.015552","0.272754","-0.655566"
"U","1617446665.1441908","7","-3","-3","-34","37","10","0.724365","-0.112671","-0.665161","-0.141846","0.038168","-0.038168","0.015267","9.195874","0.340942","0.855347","-0.559863","0.090918","-0.022729","0.010767","0.107666","-0.556274"
"U","1617446665.1342125","7","-4","-4","-34","37","11","0.724426","-0.11322","-0.664856","-0.142578","0.076336","0.015267","0.015267","9.399243","0.150732","0.809888","-0.356494","-0.099292","-0.07417","0.005981","-0.098096","-0.363672"
"U","1617446665.1243238","7","-5","-4","-36","4","12","0.723999","-0.114014","-0.664978","-0.143555","0.068702","0.045802","0.015267","9.624146","0.044263","0.815869","-0.132788","-0.208154","-0.061011","-0.027515","-0.208154","-0.142358"
"U","1617446665.1148891","7","-4","-4","-34","36","13","0.723328","-0.114502","-0.665405","-0.144653","0.038168","0.045802","0.022901","9.813159","0.08374","0.875684","0.053833","-0.179443","0.010767","-0.070581","-0.166284","0.049048"
"U","1617446665.104169","7","-1","-3","-38","32","11","0.722656","-0.114441","-0.665955","-0.145386","-0.007634","0.030534","0.038168","9.908862","0.234473","0.965405","0.149536","-0.04187","0.114844","-0.111255","-0.005981","0.156714"
"U","1617446665.0942683","7","-4","-3","-36","35","11","0.722351","-0.11377","-0.666382","-0.145874","-0.045802","-0.007634","0.038168","9.870581","0.435449","1.035986","0.110059","0.139966","0.191406","-0.118433","0.191406","0.129199"
"U","1617446665.0843618","7","-4","-4","-36","32","11","0.722412","-0.112671","-0.666443","-0.145874","-0.061069","-0.053435","0.030534","9.705493","0.634033","1.040771","-0.052637","0.322998","0.193799","-0.066992","0.373242","-0.025122"
"U","1617446665.074913","7","-4","-4","-36","35","9","0.722961","-0.111694","-0.666077","-0.145691","-0.038168","-0.076336","0.022901","9.481787","0.712988","0.952246","-0.275146","0.393579","0.092114","0.035889","0.416309","-0.252417"
"U","1617446665.064958","7","-5","-4","-36","38","11","0.723633","-0.111145","-0.665466","-0.14563","-0.007634","-0.053435","0.007634","9.389673","0.659155","0.85415","-0.364868","0.334961","-0.023926","0.11604","0.326587","-0.354102"
"U","1617446665.054161","7","0","-3","-35","36","11","0.72406","-0.111206","-0.664978","-0.145691","0.022901","-0.022901","0","9.431543","0.544312","0.801514","-0.322998","0.22251","-0.088525","0.137573","0.196191","-0.321802"
"U","1617446665.044449","7","0","1","-36","32","12","0.724182","-0.111755","-0.664673","-0.145935","0.045802","0","-0.015267","9.494946","0.410327","0.759644","-0.258398","0.094507","-0.136377","0.141162","0.055029","-0.265576"
"U","1617446665.0347571","7","-4","-5","-34","37","13","0.72406","-0.112488","-0.664612","-0.146301","0.038168","0.022901","-0.015267","9.60979","0.322998","0.773999","-0.143555","0.013159","-0.119629","0.105273","-0.021533","-0.153125"
"U","1617446665.0249012","7","-3","-4","-36","36","10","0.723694","-0.113037","-0.664795","-0.146545","0.015267","0.030534","-0.007634","9.72583","0.328979","0.84458","-0.027515","0.022729","-0.04187","0.044263","0.007178","-0.029907"
"U","1617446665.0140977","7","-4","-5","-36","35","11","0.723389","-0.11322","-0.6651","-0.146606","-0.015267","0.030534","-0.007634","9.797607","0.384009","0.929517","0.04187","0.077759","0.050244","-0.014355","0.087329","0.047852"
"U","1617446665.004995","7","-1","-4","-36","35","11","0.723206","-0.113037","-0.665405","-0.146301","-0.045802","0","-0.007634","9.8","0.480908","1.024023","0.043066","0.174658","0.151929","-0.07417","0.214136","0.061011"
"U","1617446664.9948995","7","-4","-5","-35","31","10","0.723328","-0.11261","-0.665527","-0.145752","-0.053435","-0.038168","-0.015267","9.618164","0.557471","1.04436","-0.13877","0.252417","0.173462","-0.080151","0.305054","-0.114844"
"U","1617446664.9849353","7","-3","-5","-36","34","9","0.723755","-0.112305","-0.665222","-0.145081","-0.038168","-0.053435","-0.030534","9.392065","0.558667","0.986938","-0.363672","0.259595","0.10647","-0.031104","0.301465","-0.344531"
"U","1617446660.5705132","7","21","-5","-34","47","24","0.704956","-0.085815","-0.702576","-0.045288","-0.007634","0","-0.007634","9.394458","-0.593359","-0.14834","-0.388794","-0.031104","-0.128003","0.11604","-0.075366","-0.385205"
"U","1617446660.5602152","7","22","-4","-36","50","23","0.705017","-0.085815","-0.702576","-0.045227","-0.007634","-0.007634","-0.007634","9.390869","-0.608911","-0.147144","-0.393579","-0.045459","-0.128003","0.113647","-0.089722","-0.38999"
"U","1617446660.5501418","7","22","-3","-33","43","21","0.705078","-0.085876","-0.702515","-0.045105","0","-0.007634","-0.015267","9.398046","-0.626855","-0.13877","-0.385205","-0.061011","-0.120825","0.102881","-0.104077","-0.38042"
"U","1617446660.54016","7","22","-5","-33","47","24","0.705139","-0.085999","-0.702393","-0.045044","0","-0.015267","-0.015267","9.398046","-0.657959","-0.14834","-0.385205","-0.088525","-0.132788","0.110059","-0.132788","-0.378027"
"U","1617446660.531008","7","22","-5","-32","50","25","0.705322","-0.086121","-0.702209","-0.045105","0","-0.015267","-0.007634","9.400439","-0.680689","-0.149536","-0.382812","-0.110059","-0.13877","0.111255","-0.155518","-0.375635"
"U","1617446660.520963","7","22","-4","-34","47","23","0.705505","-0.086121","-0.701965","-0.045166","-0.007634","-0.022901","-0.007634","9.395655","-0.659155","-0.129199","-0.386401","-0.088525","-0.124414","0.101685","-0.131592","-0.38042"
"U","1617446660.5102715","7","22","-4","-34","45","23","0.705811","-0.085938","-0.701721","-0.045105","-0.015267","-0.022901","0","9.383692","-0.611304","-0.099292","-0.399561","-0.04187","-0.102881","0.088525","-0.082544","-0.395972"
"U","1617446660.5001795","7","22","-3","-33","52","24","0.706116","-0.085632","-0.701477","-0.045044","-0.022901","-0.022901","0","9.378906","-0.56106","-0.058618","-0.404346","0.003589","-0.070581","0.0646","-0.0323","-0.403149"
"U","1617446660.490159","7","22","-4","-35","47","24","0.70636","-0.085388","-0.701233","-0.044983","-0.015267","-0.022901","0","9.383692","-0.53833","-0.025122","-0.399561","0.025122","-0.043066","0.04187","-0.004785","-0.399561"
"U","1617446660.479976","7","22","-3","-34","49","26","0.706604","-0.085266","-0.700989","-0.044861","-0.007634","-0.015267","-0.007634","9.400439","-0.556274","0.00957","-0.382812","0.007178","-0.015552","0.010767","-0.016748","-0.381616"
"U","1617446660.470538","7","22","-3","-39","47","26","0.706726","-0.085327","-0.700928","-0.044861","0","0","-0.007634","9.456665","-0.579004","0.046655","-0.326587","-0.013159","0.017944","-0.023926","-0.027515","-0.324194"
"U","1617446660.4602158","7","23","-4","-34","44","21","0.706726","-0.085388","-0.700867","-0.044922","0.007634","0","-0.007634","9.540405","-0.598145","0.099292","-0.242847","-0.0323","0.069385","-0.076563","-0.0323","-0.239258"
"U","1617446660.4503942","7","22","-4","-35","48","24","0.706665","-0.08551","-0.700928","-0.044983","0.007634","-0.015267","0","9.575098","-0.624463","0.139966","-0.208154","-0.057422","0.112451","-0.123218","-0.046655","-0.203369"
"U","1617446660.4401815","7","22","-6","-35","35","23","0.706787","-0.085571","-0.700806","-0.045166","0","-0.030534","0","9.52605","-0.636426","0.133984","-0.257202","-0.070581","0.102881","-0.117236","-0.0646","-0.251221"
"U","1617446660.430091","7","22","-2","-43","45","24","0.707031","-0.085449","-0.700562","-0.045288","-0.015267","-0.038168","0","9.457861","-0.581396","0.131592","-0.325391","-0.017944","0.093311","-0.099292","-0.017944","-0.322998"
"U","1617446660.420197","7","22","-5","-33","50","24","0.707397","-0.085205","-0.700195","-0.045349","-0.022901","-0.038168","0","9.399243","-0.507227","0.120825","-0.384009","0.05144","0.071777","-0.066992","0.04187","-0.385205"
"U","1617446660.410128","7","22","-5","-35","48","25","0.707764","-0.084839","-0.699829","-0.045288","-0.022901","-0.030534","0.007634","9.365747","-0.440234","0.114844","-0.417505","0.114844","0.055029","-0.039478","0.099292","-0.42229"
"U","1617446660.4002","7","22","-4","-35","47","23","0.708069","-0.084534","-0.699585","-0.045227","-0.022901","-0.015267","0.007634","9.404028","-0.400757","0.131592","-0.379224","0.151929","0.063403","-0.040674","0.139966","-0.386401"
"U","1617446660.3902907","7","22","-2","-33","47","24","0.708191","-0.08429","-0.699524","-0.045105","-0.007634","0","0.007634","9.467432","-0.42229","0.150732","-0.31582","0.129199","0.080151","-0.059814","0.123218","-0.321802"
"U","1617446660.380129","7","22","-1","-35","32","26","0.70813","-0.084351","-0.699585","-0.045166","0.007634","0.007634","0","9.498535","-0.483301","0.159106","-0.285913","0.066992","0.090918","-0.081348","0.065796","-0.288306"
"U","1617446660.3702362","7","22","-4","-35","44","22","0.707947","-0.084534","-0.699768","-0.045288","0.015267","0.015267","-0.007634","9.533228","-0.526367","0.16748","-0.251221","0.025122","0.104077","-0.101685","0.029907","-0.251221"
"U","1617446660.3599958","7","23","-4","-33","51","25","0.707642","-0.084717","-0.700012","-0.04541","0.007634","0.015267","-0.007634","9.561938","-0.543115","0.189014","-0.221313","0.008374","0.132788","-0.131592","0.020337","-0.220117"
"U","1617446660.350104","7","22","-3","-34","62","24","0.707397","-0.0849","-0.700256","-0.045471","0","0.007634","-0.007634","9.524854","-0.531152","0.183032","-0.259595","0.021533","0.133984","-0.131592","0.031104","-0.259595"
"U","1617446660.340915","7","22","-2","-33","50","25","0.707214","-0.084961","-0.700378","-0.04541","0","-0.007634","-0.007634","9.449488","-0.532349","0.144751","-0.333765","0.021533","0.100488","-0.099292","0.020337","-0.333765"
"U","1617446660.3300712","7","22","-4","-33","83","5","0.707214","-0.084961","-0.700439","-0.04541","-0.007634","-0.007634","0","9.386084","-0.545508","0.086133","-0.398364","0.008374","0.043066","-0.045459","-0.004785","-0.397168"
"U","1617446660.321109","7","23","-5","-34","48","23","0.707214","-0.084961","-0.700439","-0.045471","-0.007634","-0.007634","0","9.34541","-0.5479","0.026318","-0.439038","0.004785","-0.015552","0.00957","-0.021533","-0.437842"
"U","1617446660.3110042","7","22","-3","-34","44","24","0.707153","-0.084839","-0.7005","-0.045471","-0.007634","0.007634","0","9.351392","-0.535937","-0.028711","-0.433057","0.015552","-0.069385","0.0646","-0.020337","-0.433057"
"U","1617446660.3002846","7","22","-5","-35","46","24","0.70697","-0.084778","-0.700623","-0.04541","0","0.015267","0","9.388476","-0.532349","-0.076563","-0.394775","0.017944","-0.113647","0.108862","-0.023926","-0.394775"
"U","1617446660.2908728","7","22","-3","-33","48","24","0.706726","-0.084839","-0.700928","-0.04541","0.007634","0.030534","-0.007634","9.427954","-0.568237","-0.12561","-0.356494","-0.016748","-0.154321","0.143555","-0.063403","-0.355298"
"U","1617446660.2809565","7","22","-5","-33","46","24","0.70636","-0.085022","-0.701233","-0.045532","0.015267","0.030534","-0.007634","9.49375","-0.592163","-0.14834","-0.289502","-0.040674","-0.16748","0.153125","-0.086133","-0.285913"
"U","1617446660.2710452","7","21","-3","-36","50","26","0.705994","-0.085266","-0.701599","-0.045654","0.007634","0.030534","-0.007634","9.533228","-0.592163","-0.150732","-0.251221","-0.039478","-0.160303","0.147144","-0.081348","-0.247632"
"U","1617446660.2607582","7","22","-4","-34","49","23","0.705627","-0.085449","-0.701904","-0.045715","0.007634","0.022901","-0.007634","9.548779","-0.587378","-0.136377","-0.234473","-0.033496","-0.136377","0.124414","-0.070581","-0.23208"
"U","1617446660.2508662","7","22","-6","-36","46","22","0.705383","-0.085571","-0.702148","-0.045776","0.007634","0.015267","-0.007634","9.533228","-0.583789","-0.129199","-0.250024","-0.029907","-0.122021","0.111255","-0.065796","-0.247632"
"U","1617446660.240886","7","22","-3","-33","44","23","0.705261","-0.085632","-0.702271","-0.045837","0","0","0","9.49375","-0.574219","-0.12561","-0.290698","-0.020337","-0.114844","0.105273","-0.056226","-0.288306"
"U","1617446660.2307763","7","22","-5","-34","46","24","0.705322","-0.085693","-0.702209","-0.045898","-0.007634","-0.015267","0","9.437525","-0.558667","-0.122021","-0.346924","-0.004785","-0.112451","0.105273","-0.044263","-0.345728"
"U","1617446660.2209349","7","21","-4","-36","50","25","0.705505","-0.085571","-0.702026","-0.045959","-0.007634","-0.022901","0","9.404028","-0.526367","-0.112451","-0.38042","0.023926","-0.108862","0.10647","-0.016748","-0.38042"
"U","1617446660.21123","7","22","-4","-36","46","22","0.705688","-0.085449","-0.701843","-0.045959","-0.007634","-0.022901","0","9.394458","-0.49646","-0.105273","-0.38999","0.052637","-0.10647","0.110059","0.00957","-0.391187"
"U","1617446660.2009504","7","24","-3","-34","51","26","0.705994","-0.085327","-0.701599","-0.045959","-0.007634","-0.022901","0","9.390869","-0.479712","-0.087329","-0.393579","0.068188","-0.096899","0.102881","0.026318","-0.395972"
"U","1617446660.1902428","7","22","-5","-38","48","24","0.706177","-0.085327","-0.701355","-0.045959","0","-0.015267","-0.007634","9.402832","-0.485693","-0.070581","-0.38042","0.063403","-0.086133","0.090918","0.025122","-0.382812"
"U","1617446660.1809824","7","22","-3","-34","44","25","0.706299","-0.085449","-0.701233","-0.045959","0.007634","0","-0.007634","9.438721","-0.517993","-0.034692","-0.345728","0.0323","-0.052637","0.052637","0.002393","-0.346924"
"U","1617446660.1710205","7","22","-4","-35","49","23","0.706299","-0.085632","-0.701233","-0.046021","0.007634","0","-0.007634","9.497339","-0.535937","0.010767","-0.287109","0.016748","-0.007178","0.005981","0","-0.287109"
"U","1617446660.160906","7","22","-4","-35","47","23","0.706238","-0.085876","-0.701233","-0.046082","0.007634","-0.007634","-0.015267","9.512891","-0.532349","0.059814","-0.270361","0.022729","0.04187","-0.039478","0.014355","-0.270361"
"U","1617446660.1510005","7","23","-3","-34","45","24","0.706299","-0.08606","-0.701172","-0.046082","0","-0.015267","-0.007634","9.479395","-0.546704","0.080151","-0.303857","0.010767","0.061011","-0.061011","0.004785","-0.303857"
"U","1617446660.14088","7","22","-4","-33","49","24","0.70636","-0.086243","-0.70105","-0.046082","0","-0.022901","-0.007634","9.447095","-0.564648","0.090918","-0.336157","-0.003589","0.069385","-0.072974","-0.008374","-0.334961"
"U","1617446660.130916","7","22","-4","-35","48","24","0.706604","-0.086243","-0.700867","-0.046021","-0.015267","-0.022901","-0.007634","9.406421","-0.555078","0.093311","-0.376831","0.005981","0.065796","-0.068188","-0.002393","-0.375635"
"U","1617446660.1209817","7","22","-3","-35","48","25","0.706787","-0.086182","-0.700623","-0.045898","-0.015267","-0.022901","-0.007634","9.38728","-0.541919","0.089722","-0.395972","0.021533","0.056226","-0.056226","0.008374","-0.395972"
"U","1617446660.1110048","7","22","-4","-36","51","25","0.70697","-0.08606","-0.7005","-0.045715","-0.015267","-0.015267","-0.007634","9.390869","-0.545508","0.078955","-0.392383","0.019141","0.040674","-0.04187","0.003589","-0.392383"
"U","1617446660.100877","7","22","-1","-33","48","25","0.707092","-0.08606","-0.700378","-0.045532","-0.007634","-0.007634","-0.015267","9.413599","-0.569434","0.059814","-0.369653","-0.001196","0.019141","-0.023926","-0.017944","-0.368457"
"U","1617446660.0909822","7","23","-1","-33","47","24","0.707092","-0.08606","-0.700378","-0.04541","-0.007634","0","-0.015267","9.445898","-0.584985","0.047852","-0.336157","-0.015552","0.007178","-0.014355","-0.0323","-0.333765"
"U","1617446660.0808654","7","22","-3","-34","48","24","0.707031","-0.086121","-0.7005","-0.045288","-0.007634","0.007634","-0.015267","9.463842","-0.592163","0.029907","-0.319409","-0.020337","-0.007178","-0.001196","-0.038281","-0.317017"
"U","1617446660.0709474","7","22","-3","-34","47","24","0.706909","-0.086243","-0.700623","-0.045166","0","0.007634","-0.007634","9.477002","-0.605322","0.013159","-0.30625","-0.029907","-0.020337","0.00957","-0.050244","-0.303857"
"U","1617446660.0612605","7","22","-4","-34","46","26","0.706726","-0.086365","-0.700745","-0.045105","0","0.007634","-0.007634","9.484179","-0.636426","-0.002393","-0.297876","-0.058618","-0.031104","0.015552","-0.080151","-0.293091"
"U","1617446660.0509152","7","22","-3","-49","50","22","0.706604","-0.086548","-0.700867","-0.045105","0","0.007634","-0.015267","9.482984","-0.667529","-0.004785","-0.299072","-0.087329","-0.029907","0.008374","-0.107666","-0.293091"
"U","1617446660.0411077","7","22","-4","-37","24","25","0.706543","-0.08667","-0.700928","-0.045044","0","0","-0.007634","9.450684","-0.681885","0.002393","-0.331372","-0.099292","-0.020337","-0.002393","-0.119629","-0.324194"
"U","1617446660.03087","7","22","-3","-34","47","24","0.706543","-0.08667","-0.700928","-0.045044","-0.007634","0","-0.007634","9.449488","-0.68667","0.013159","-0.332568","-0.104077","-0.00957","-0.013159","-0.122021","-0.325391"
"U","1617446660.0209813","7","22","-3","-34","50","24","0.706482","-0.08667","-0.700928","-0.045044","-0.007634","0","0","9.460254","-0.684277","0.025122","-0.321802","-0.102881","0.001196","-0.023926","-0.118433","-0.314624"
"U","1617446660.0111127","7","22","-4","-34","50","24","0.706421","-0.086548","-0.70105","-0.045105","-0.007634","0","0","9.472217","-0.666333","0.029907","-0.309839","-0.087329","0.008374","-0.027515","-0.101685","-0.303857"
"U","1617446660.0009975","7","23","-2","-34","47","24","0.70636","-0.086426","-0.701111","-0.045288","0","0","0.007634","9.467432","-0.645996","0.023926","-0.31582","-0.071777","0.003589","-0.020337","-0.087329","-0.311035"
"U","1617446659.9909797","7","22","-5","-36","46","24","0.706299","-0.086243","-0.701172","-0.045471","-0.007634","0","0.015267","9.449488","-0.614893","0.017944","-0.333765","-0.045459","0","-0.011963","-0.063403","-0.330176"
"U","1617446659.9809349","7","22","-3","-33","47","25","0.706238","-0.085999","-0.701233","-0.045715","-0.007634","0","0.015267","9.436328","-0.567041","0.003589","-0.346924","-0.004785","-0.013159","0.007178","-0.026318","-0.345728"
