"Alphabet","timestamp","user_id","flex_1","flex_2","flex_3","flex_4","flex_5","Qw","Qx","Qy","Qz","GYRx","GYRy","GYRz","ACCx","ACCy","ACCz","ACCx_body","ACCy_body","ACCz_body","ACCx_world","ACCy_world","ACCz_world"
"V","1617451539.41145","7","21","-26","-36","57","32","0.777649","0.102722","-0.616089","0.071899","0.664122","0.068702","-0.038168","10.249804","0.050244","1.449902","0.714185","-0.647192","-0.703418","0.982153","-0.461768","0.494067"
"V","1617451539.4014575","7","21","-27","-39","57","30","0.77832","0.094238","-0.617249","0.065735","0.603053","0.038168","-0.045802","10.316797","-0.388794","1.606616","0.778784","-1.030005","-0.551489","0.925928","-0.887646","0.568237"
"V","1617451539.391505","7","22","-27","-34","58","29","0.779236","0.087036","-0.617737","0.060181","0.473282","-0.007634","-0.053435","10.279712","-0.452197","1.928418","0.741699","-1.052734","-0.242847","0.6125","-0.988135","0.60293"
"V","1617451539.3814528","7","22","-27","-34","57","30","0.780334","0.081726","-0.617432","0.05603","0.29771","-0.068702","-0.061069","10.105054","-0.10647","2.350708","0.571826","-0.678296","0.153125","0.113647","-0.702222","0.550293"
"V","1617451539.371499","7","22","-27","-35","72","26","0.781799","0.078552","-0.616211","0.05365","0.137405","-0.152672","-0.045802","9.774878","0.507227","2.775391","0.248828","-0.047852","0.53833","-0.446216","-0.150732","0.361279"
"V","1617451539.3613913","7","21","-31","-35","58","30","0.783691","0.077271","-0.614014","0.052917","0","-0.21374","-0.038168","9.348999","1.2573","3.154614","-0.161499","0.707007","0.861328","-0.985742","0.535937","0.08374"
"V","1617451539.351483","7","19","-28","-36","62","30","0.785767","0.077148","-0.611328","0.053528","-0.045802","-0.251908","-0.030534","8.978149","2.003784","3.483594","-0.516797","1.455884","1.124512","-1.458276","1.225","-0.14834"
"V","1617451539.3413396","7","22","-27","-35","59","28","0.787903","0.076721","-0.608521","0.054688","0.030534","-0.236641","-0.022901","8.686255","2.420093","3.637915","-0.79314","1.886548","1.210644","-1.690356","1.631738","-0.364868"
"V","1617451539.3313496","7","20","-27","-36","58","26","0.789734","0.074463","-0.606384","0.055115","0.221374","-0.175573","-0.015267","8.625244","2.329175","3.695337","-0.840991","1.831519","1.210644","-1.691553","1.579102","-0.411523"
"V","1617451539.321393","7","21","-28","-39","59","30","0.790955","0.069214","-0.60553","0.053711","0.48855","-0.091603","-0.022901","8.766406","1.642505","3.606812","-0.692651","1.205859","1.087427","-1.417603","0.996509","-0.334961"
"V","1617451539.3116045","7","21","-27","-36","57","29","0.791626","0.060547","-0.605957","0.049561","0.755725","0","-0.030534","9.015234","0.423486","3.369946","-0.44502","0.071777","0.838599","-0.925928","-0.061011","-0.209351"
"V","1617451539.3014112","7","21","-37","-39","62","31","0.791626","0.049316","-0.607483","0.042725","0.916031","0.068702","-0.038168","9.302343","-0.85415","3.155811","-0.163892","-1.110156","0.636426","-0.509619","-1.184326","-0.022729"
"V","1617451539.2914166","7","20","-27","-34","57","31","0.791199","0.036865","-0.609497","0.034119","0.969466","0.099237","-0.045802","9.433935","-1.831519","2.941675","-0.04187","-1.99541","0.448608","-0.244043","-2.030102","0.039478"
"V","1617451539.2815597","7","21","-27","-34","58","29","0.790466","0.024902","-0.611511","0.024902","0.877863","0.091603","-0.045802","9.437525","-2.412915","2.764624","-0.047852","-2.500244","0.305054","-0.131592","-2.515796","0.007178"
"V","1617451539.271535","7","22","-24","-34","57","32","0.789734","0.015015","-0.613037","0.016296","0.687023","0.068702","-0.030534","9.351392","-2.377026","2.679688","-0.142358","-2.412915","0.250024","-0.169873","-2.421289","-0.084937"
"V","1617451539.2615397","7","22","-49","-35","57","28","0.789185","0.007996","-0.614075","0.009338","0.473282","0.030534","-0.015267","9.302343","-1.881763","2.692847","-0.197388","-1.892529","0.283521","-0.276343","-1.899707","-0.123218"
"V","1617451539.2515712","7","22","-27","-35","57","29","0.788879","0.003418","-0.614563","0.004517","0.305344","-0.022901","-0.007634","9.201856","-1.270459","2.648584","-0.300269","-1.268066","0.250024","-0.301465","-1.271655","-0.229687"
"V","1617451539.2415931","7","22","-28","-34","57","30","0.789062","0.000488","-0.614319","0.001282","0.206107","-0.053435","-0.007634","9.096582","-0.806299","2.545703","-0.403149","-0.797925","0.142358","-0.234473","-0.797925","-0.354102"
"V","1617451539.2315524","7","22","-27","-38","59","28","0.78949","-0.001587","-0.61377","-0.000854","0.145038","-0.061069","-0.007634","9.05232","-0.513208","2.4823","-0.44502","-0.498853","0.065796","-0.174658","-0.498853","-0.413916"
"V","1617451539.221501","7","22","-28","-36","59","29","0.790039","-0.003052","-0.613098","-0.00238","0.099237","-0.053435","-0.015267","9.036768","-0.291895","2.481103","-0.456982","-0.272754","0.047852","-0.161499","-0.271558","-0.429468"
"V","1617451539.211512","7","21","-28","-34","57","27","0.790527","-0.004028","-0.612427","-0.003357","0.061069","-0.053435","-0.015267","9.018824","-0.066992","2.519385","-0.470142","-0.044263","0.070581","-0.185425","-0.043066","-0.436646"
"V","1617451539.2015011","7","19","-32","-33","60","32","0.790894","-0.004822","-0.611877","-0.003906","0.045802","-0.038168","-0.015267","9.016431","0.111255","2.56604","-0.468945","0.13877","0.104077","-0.216528","0.139966","-0.427075"
"V","1617451539.191579","7","22","-30","-34","60","29","0.791199","-0.005737","-0.611511","-0.004211","0.068702","-0.030534","-0.022901","9.018824","0.185425","2.59834","-0.46416","0.223706","0.128003","-0.236865","0.224902","-0.417505"
"V","1617451539.1815555","7","21","-26","-34","59","28","0.791321","-0.007202","-0.611328","-0.004578","0.114504","-0.015267","-0.022901","9.040357","0.075366","2.569629","-0.441431","0.131592","0.095703","-0.200977","0.131592","-0.403149"
"V","1617451539.1714954","7","20","-29","-35","57","35","0.791321","-0.009277","-0.611328","-0.00531","0.152672","-0.015267","-0.030534","9.096582","-0.18064","2.505029","-0.385205","-0.099292","0.031104","-0.129199","-0.099292","-0.363672"
"V","1617451539.1616287","7","18","-28","-36","59","31","0.791321","-0.011536","-0.611267","-0.00647","0.152672","-0.022901","-0.030534","9.106153","-0.393579","2.409326","-0.375635","-0.291895","-0.0646","-0.039478","-0.294287","-0.375635"
"V","1617451539.151532","7","22","-27","-35","63","27","0.791443","-0.013611","-0.611023","-0.00769","0.137405","-0.022901","-0.022901","9.075048","-0.458179","2.317212","-0.404346","-0.33855","-0.160303","0.04187","-0.344531","-0.427075"
"V","1617451539.141452","7","22","-29","-35","57","29","0.791626","-0.015564","-0.610718","-0.00885","0.129771","-0.015267","-0.022901","9.12649","-0.532349","2.29209","-0.351709","-0.395972","-0.191406","0.082544","-0.403149","-0.382812"
"V","1617451539.1317432","7","21","-25","-34","66","27","0.791748","-0.017212","-0.610535","-0.01001","0.099237","-0.022901","-0.015267","9.173144","-0.557471","2.31123","-0.303857","-0.409131","-0.177051","0.077759","-0.416309","-0.332568"
"V","1617451539.1216238","7","15","-27","-35","57","28","0.791992","-0.018188","-0.610168","-0.011047","0.053435","-0.022901","-0.007634","9.173144","-0.470142","2.351904","-0.301465","-0.319409","-0.143555","0.049048","-0.326587","-0.322998"
"V","1617451539.1115787","7","22","-28","-34","60","28","0.792236","-0.018433","-0.609802","-0.011658","0.007634","-0.022901","0","9.142041","-0.242847","2.430859","-0.330176","-0.095703","-0.072974","-0.017944","-0.099292","-0.336157"
"V","1617451539.1015291","7","20","-28","-35","60","31","0.79248","-0.018372","-0.609497","-0.011841","-0.007634","-0.015267","0.007634","9.137256","-0.059814","2.509815","-0.333765","0.08374","-0.001196","-0.080151","0.081348","-0.322998"
"V","1617451539.0916429","7","21","-27","-33","59","29","0.792542","-0.018372","-0.609375","-0.011841","0.022901","-0.015267","0.007634","9.14563","-0.021533","2.539722","-0.324194","0.122021","0.025122","-0.101685","0.120825","-0.307446"
"V","1617451539.0815206","7","22","-27","-34","58","29","0.792542","-0.018921","-0.609375","-0.012207","0.061069","0","0.007634","9.162378","-0.179443","2.488281","-0.307446","-0.031104","-0.025122","-0.055029","-0.0323","-0.302661"
"V","1617451539.0717323","7","22","-25","-34","60","31","0.792419","-0.019897","-0.609497","-0.012939","0.083969","0.007634","0","9.209033","-0.393579","2.424878","-0.261987","-0.238062","-0.084937","0.003589","-0.24165","-0.270361"
"V","1617451539.0614965","7","21","-28","-35","58","28","0.792297","-0.020691","-0.609619","-0.013916","0.053435","0.007634","0","9.260473","-0.423486","2.403345","-0.211743","-0.267969","-0.104077","0.033496","-0.272754","-0.226099"
"V","1617451539.0515351","7","21","-28","-35","58","27","0.792175","-0.02124","-0.609741","-0.014526","0.030534","0","-0.007634","9.274829","-0.326587","2.40813","-0.197388","-0.169873","-0.095703","0.033496","-0.174658","-0.211743"
"V","1617451539.0417352","7","22","-26","-38","57","31","0.792175","-0.021667","-0.60968","-0.014832","0.030534","-0.015267","-0.007634","9.254492","-0.301465","2.397363","-0.217725","-0.141162","-0.10647","0.039478","-0.147144","-0.234473"
"V","1617451539.0315754","7","22","-27","-34","58","33","0.792358","-0.022095","-0.609497","-0.015137","0.022901","-0.022901","-0.007634","9.232959","-0.31582","2.368652","-0.238062","-0.153125","-0.139966","0.065796","-0.160303","-0.263184"
"V","1617451539.0215435","7","20","-29","-35","57","37","0.792542","-0.022339","-0.609192","-0.015442","0.007634","-0.015267","0","9.267652","-0.285913","2.416504","-0.202173","-0.123218","-0.099292","0.037085","-0.128003","-0.217725"
"V","1617451539.011697","7","22","-31","-36","57","30","0.792786","-0.022339","-0.608887","-0.015625","-0.007634","-0.022901","0","9.273633","-0.210547","2.503833","-0.193799","-0.049048","-0.019141","-0.033496","-0.050244","-0.19021"
"V","1617451539.0015216","7","20","-27","-36","61","29","0.79303","-0.021973","-0.608582","-0.015686","-0.030534","-0.030534","0","9.241333","-0.078955","2.601929","-0.223706","0.075366","0.070581","-0.122021","0.077759","-0.198584"
"V","1617451538.9915323","7","21","-26","-35","57","31","0.793335","-0.021545","-0.608215","-0.015442","-0.038168","-0.038168","0","9.171948","0.04187","2.68208","-0.291895","0.192603","0.141162","-0.200977","0.198584","-0.247632"
"V","1617451538.981597","7","21","-29","-34","60","28","0.793579","-0.021362","-0.607849","-0.015076","-0.007634","-0.038168","0","9.11333","0.033496","2.690454","-0.346924","0.185425","0.141162","-0.216528","0.191406","-0.300269"
"V","1617451538.9718883","7","21","-28","-33","58","32","0.793823","-0.021667","-0.607544","-0.015076","0.038168","-0.030534","0","9.108545","-0.142358","2.642602","-0.350513","0.014355","0.086133","-0.173462","0.017944","-0.31582"
"V","1617451538.9615483","7","19","-28","-38","58","29","0.794006","-0.022278","-0.6073","-0.015442","0.053435","-0.022901","-0.007634","9.1229","-0.303857","2.558862","-0.333765","-0.139966","-0.002393","-0.092114","-0.139966","-0.319409"
"V","1617451538.9516623","7","20","-28","-34","58","27","0.794067","-0.02301","-0.607178","-0.015991","0.053435","-0.007634","-0.007634","9.19707","-0.399561","2.515796","-0.259595","-0.230884","-0.047852","-0.033496","-0.233276","-0.258398"
"V","1617451538.9416878","7","21","-28","-33","59","31","0.794067","-0.023621","-0.607178","-0.016663","0.038168","-0.007634","0","9.272436","-0.367261","2.528955","-0.184229","-0.197388","-0.034692","-0.025122","-0.198584","-0.183032"
"V","1617451538.9316974","7","21","-29","-35","59","29","0.794067","-0.023987","-0.607117","-0.017151","0.022901","-0.007634","0","9.255689","-0.301465","2.531348","-0.200977","-0.131592","-0.0323","-0.028711","-0.132788","-0.19978"
"V","1617451538.9218688","7","21","-27","-36","58","28","0.794128","-0.024231","-0.606995","-0.017517","0.022901","-0.007634","0","9.226977","-0.257202","2.557666","-0.228491","-0.087329","-0.008374","-0.056226","-0.087329","-0.220117"
"V","1617451538.9116802","7","21","-29","-35","58","28","0.794189","-0.024536","-0.606873","-0.017822","0.022901","-0.007634","-0.007634","9.193481","-0.244043","2.60791","-0.260791","-0.072974","0.038281","-0.108862","-0.070581","-0.239258"
"V","1617451538.9017737","7","21","-25","-37","57","27","0.79425","-0.024902","-0.60675","-0.018066","0.030534","-0.007634","-0.007634","9.148023","-0.242847","2.656958","-0.30625","-0.069385","0.084937","-0.166284","-0.063403","-0.271558"
"V","1617451538.8922374","7","25","-28","-35","60","28","0.794312","-0.02533","-0.606689","-0.018372","0.030534","-0.007634","-0.007634","9.097778","-0.258398","2.709595","-0.356494","-0.081348","0.136377","-0.229687","-0.072974","-0.30625"
"V","1617451538.8816729","7","21","-27","-34","58","32","0.794312","-0.025696","-0.606628","-0.018677","0.015267","-0.015267","-0.007634","9.031982","-0.233276","2.732324","-0.421094","-0.055029","0.15791","-0.265576","-0.045459","-0.363672"
"V","1617451538.871816","7","21","-27","-37","58","28","0.794373","-0.025879","-0.606567","-0.018921","0.007634","-0.022901","0","8.98772","-0.165088","2.733521","-0.465356","0.011963","0.15791","-0.272754","0.020337","-0.406738"
"V","1617451538.86153","7","20","-31","-37","60","29","0.794434","-0.026001","-0.606506","-0.019043","0.007634","-0.022901","0","8.954224","-0.111255","2.685669","-0.498853","0.066992","0.107666","-0.230884","0.072974","-0.453394"
"V","1617451538.851948","7","21","-27","-33","57","30","0.794495","-0.026184","-0.606445","-0.019165","0.015267","-0.022901","0","8.947046","-0.12561","2.578003","-0.50603","0.053833","0","-0.129199","0.052637","-0.488086"
"V","1617451538.841668","7","21","-32","-35","57","29","0.794495","-0.026428","-0.606384","-0.019348","0.015267","-0.007634","0","8.984131","-0.175854","2.446411","-0.467749","0.004785","-0.132788","0.003589","-0.003589","-0.485693"
"V","1617451538.8325455","7","20","-26","-35","62","31","0.794495","-0.026611","-0.606384","-0.019592","0.015267","0","0","9.041553","-0.186621","2.353101","-0.410327","-0.004785","-0.226099","0.108862","-0.019141","-0.45459"
"V","1617451538.8217213","7","22","-26","-35","60","29","0.794373","-0.026794","-0.606506","-0.019836","0.015267","0.015267","-0.007634","9.072657","-0.197388","2.275342","-0.38042","-0.015552","-0.300269","0.186621","-0.035889","-0.44502"
"V","1617451538.8118303","7","19","-28","-34","59","26","0.794189","-0.027039","-0.606689","-0.019958","0.007634","0.030534","-0.007634","9.104956","-0.19021","2.263379","-0.349316","-0.005981","-0.307446","0.203369","-0.026318","-0.417505"
"V","1617451538.8017354","7","22","-27","-33","60","31","0.793945","-0.027222","-0.607056","-0.02002","0.007634","0.038168","-0.007634","9.157593","-0.160303","2.332764","-0.299072","0.023926","-0.229687","0.143555","0.007178","-0.34812"
"V","1617451538.7923484","7","21","-28","-34","57","26","0.793579","-0.027405","-0.607544","-0.02002","0.007634","0.038168","-0.007634","9.180323","-0.14834","2.423682","-0.279932","0.039478","-0.126807","0.05144","0.029907","-0.303857"
"V","1617451538.7823243","7","22","-31","-35","62","29","0.793213","-0.02771","-0.607971","-0.02002","0.015267","0.015267","-0.007634","9.163574","-0.162695","2.487085","-0.299072","0.028711","-0.052637","-0.025122","0.023926","-0.302661"
"V","1617451538.7723792","7","21","-29","-33","57","29","0.793091","-0.027954","-0.608154","-0.020081","0.015267","-0.007634","-0.007634","9.088208","-0.173462","2.495459","-0.375635","0.021533","-0.039478","-0.057422","0.017944","-0.373242"
"V","1617451538.7615306","7","21","-27","-33","62","27","0.793091","-0.028259","-0.608093","-0.020203","0.022901","-0.030534","0","9.008057","-0.204565","2.44043","-0.45459","-0.005981","-0.095703","-0.025122","-0.013159","-0.462964"
"V","1617451538.7523465","7","21","-27","-36","57","27","0.793335","-0.028564","-0.607788","-0.020508","0.022901","-0.030534","0.007634","8.991308","-0.261987","2.355493","-0.470142","-0.061011","-0.187817","0.053833","-0.07417","-0.501245"
"V","1617451538.74243","7","21","-29","-35","57","29","0.793518","-0.028809","-0.607483","-0.020874","0.022901","-0.022901","0.007634","9.023608","-0.30625","2.302856","-0.435449","-0.10647","-0.246436","0.11604","-0.124414","-0.482104"
"V","1617451538.7323346","7","22","-27","-35","58","32","0.793701","-0.028931","-0.607239","-0.021301","0.015267","-0.007634","0.007634","9.069067","-0.31582","2.272949","-0.388794","-0.118433","-0.282324","0.161499","-0.13877","-0.446216"
"V","1617451538.72243","7","21","-27","-36","61","29","0.793823","-0.028992","-0.607117","-0.021606","0","0.007634","0.007634","9.140844","-0.307446","2.295679","-0.317017","-0.112451","-0.263184","0.161499","-0.130396","-0.372046"
"V","1617451538.712318","7","21","-26","-34","57","27","0.793762","-0.02887","-0.607178","-0.021851","-0.007634","0.015267","0.007634","9.215014","-0.272754","2.37583","-0.242847","-0.082544","-0.181836","0.105273","-0.094507","-0.279932"
"V","1617451538.702482","7","20","-27","-35","57","29","0.793579","-0.028687","-0.607361","-0.021973","-0.007634","0.022901","0","9.264063","-0.240454","2.475122","-0.194995","-0.055029","-0.077759","0.019141","-0.059814","-0.206958"
"V","1617451538.6925275","7","22","-27","-35","57","29","0.793396","-0.028503","-0.607605","-0.021973","-0.015267","0.015267","0","9.28081","-0.218921","2.563648","-0.179443","-0.037085","0.015552","-0.063403","-0.034692","-0.16748"
"V","1617451538.68251","7","21","-9","-35","57","29","0.793274","-0.028198","-0.607849","-0.021973","-0.022901","0","0.007634","9.24851","-0.18064","2.609107","-0.214136","-0.003589","0.065796","-0.118433","0.001196","-0.189014"
"V","1617451538.6722806","7","22","-28","-35","57","33","0.793274","-0.027832","-0.607849","-0.021912","-0.030534","-0.022901","0.007634","9.183911","-0.119629","2.592358","-0.278735","0.05144","0.049048","-0.11604","0.055029","-0.257202"
"V","1617451538.662437","7","22","-29","-36","59","29","0.793396","-0.027344","-0.607727","-0.021851","-0.022901","-0.022901","0.015267","9.140844","-0.077759","2.531348","-0.320605","0.086133","-0.014355","-0.063403","0.084937","-0.314624"
"V","1617451538.6523008","7","21","-28","-35","57","27","0.793518","-0.026978","-0.607544","-0.02179","-0.015267","-0.015267","0.015267","9.161181","-0.090918","2.470337","-0.299072","0.068188","-0.080151","0.003589","0.062207","-0.309839"
"V","1617451538.6422994","7","21","-31","-36","58","31","0.793579","-0.026733","-0.607422","-0.021973","0","0","0.015267","9.213819","-0.136377","2.424878","-0.245239","0.016748","-0.128003","0.059814","0.008374","-0.269165"
"V","1617451538.6325371","7","22","-27","-35","59","29","0.793518","-0.026611","-0.607544","-0.022217","0.007634","0.015267","0.015267","9.282007","-0.177051","2.433252","-0.178247","-0.027515","-0.117236","0.063403","-0.034692","-0.202173"
"V","1617451538.6224291","7","21","-31","-37","59","27","0.793274","-0.02655","-0.607849","-0.022522","0.007634","0.030534","0.007634","9.339429","-0.196191","2.488281","-0.123218","-0.05144","-0.055029","0.016748","-0.053833","-0.131592"
"V","1617451538.6124463","7","18","-29","-36","57","29","0.792969","-0.026489","-0.608276","-0.022766","0","0.038168","0.007634","9.394458","-0.19021","2.568433","-0.070581","-0.049048","0.033496","-0.053833","-0.045459","-0.058618"
"V","1617451538.6024284","7","21","-27","-34","60","28","0.792542","-0.026428","-0.608765","-0.022949","0","0.030534","0.007634","9.417188","-0.181836","2.641406","-0.050244","-0.044263","0.118433","-0.129199","-0.034692","-0.016748"
"V","1617451538.592548","7","21","-27","-37","58","29","0.792236","-0.026428","-0.609192","-0.023071","0","0","0","9.348999","-0.16748","2.643799","-0.122021","-0.0323","0.130396","-0.159106","-0.021533","-0.08374"
"V","1617451538.582292","7","21","-28","-35","57","30","0.792236","-0.026306","-0.609192","-0.023193","-0.007634","-0.022901","0.007634","9.250903","-0.150732","2.573218","-0.220117","-0.019141","0.059814","-0.114844","-0.013159","-0.196191"
"V","1617451538.5723765","7","20","-31","-36","58","30","0.792358","-0.026184","-0.60907","-0.023376","0","-0.022901","0.007634","9.217407","-0.111255","2.520581","-0.252417","0.015552","0.003589","-0.066992","0.016748","-0.242847"
"V","1617451538.562395","7","21","-31","-32","57","27","0.79248","-0.026123","-0.608887","-0.023499","0.007634","-0.015267","0.007634","9.220996","-0.104077","2.470337","-0.247632","0.020337","-0.049048","-0.014355","0.017944","-0.251221"
"V","1617451538.5524037","7","22","-27","-33","58","31","0.792542","-0.026245","-0.608765","-0.023804","0.022901","-0.007634","0.007634","9.255689","-0.123218","2.461963","-0.212939","0","-0.059814","0.002393","-0.002393","-0.220117"
"V","1617451538.5425582","7","22","-28","-35","58","27","0.792542","-0.026489","-0.608765","-0.024231","0.030534","0","0.007634","9.270044","-0.153125","2.489478","-0.198584","-0.029907","-0.0323","-0.021533","-0.029907","-0.19978"
"V","1617451538.5324292","7","20","-27","-34","58","28","0.79248","-0.026917","-0.608826","-0.024658","0.038168","0.015267","0","9.274829","-0.177051","2.555274","-0.193799","-0.052637","0.033496","-0.084937","-0.047852","-0.177051"
"V","1617451538.5224185","7","22","-27","-35","58","29","0.792358","-0.027466","-0.608948","-0.025146","0.045802","0.015267","0","9.282007","-0.202173","2.655762","-0.187817","-0.075366","0.137573","-0.185425","-0.063403","-0.144751"
"V","1617451538.512421","7","22","-33","-33","58","28","0.792175","-0.028015","-0.609131","-0.025635","0.038168","0.007634","0","9.270044","-0.189014","2.783765","-0.200977","-0.059814","0.270361","-0.31582","-0.037085","-0.123218"
"V","1617451538.5023923","7","22","-25","-36","58","29","0.792053","-0.02832","-0.609253","-0.026062","0.022901","-0.007634","0","9.226977","-0.112451","2.891431","-0.245239","0.015552","0.381616","-0.428271","0.045459","-0.13877"
"V","1617451538.492631","7","21","-28","-35","61","27","0.791992","-0.028503","-0.609253","-0.026367","0.007634","-0.038168","0","9.104956","-0.005981","2.922534","-0.366064","0.120825","0.413916","-0.483301","0.154321","-0.248828"
"V","1617451538.4824915","7","21","-28","-36","58","29","0.792236","-0.028503","-0.608948","-0.026611","-0.007634","-0.053435","0","8.951831","0.123218","2.859131","-0.517993","0.247632","0.342139","-0.442627","0.276343","-0.415112"
"V","1617451538.4726024","7","19","-28","-38","59","29","0.792603","-0.028442","-0.608521","-0.026611","0","-0.045802","0","8.872876","0.227295","2.753857","-0.594556","0.351709","0.226099","-0.343335","0.372046","-0.520386"
"V","1617451538.46253","7","21","-28","-36","59","29","0.792725","-0.028687","-0.608337","-0.026672","0.030534","-0.015267","0.007634","8.919531","0.204565","2.633032","-0.546704","0.331372","0.101685","-0.212939","0.342139","-0.50603"
"V","1617451538.4525268","7","22","-28","-33","57","26","0.792542","-0.029358","-0.608459","-0.026978","0.061069","0.022901","0.007634","9.035571","0.062207","2.496655","-0.430664","0.196191","-0.028711","-0.066992","0.196191","-0.425879"
"V","1617451538.442615","7","22","-31","-34","57","29","0.792114","-0.030334","-0.608948","-0.027588","0.076336","0.053435","0","9.1552","-0.107666","2.380615","-0.314624","0.033496","-0.131592","0.047852","0.023926","-0.337354"
"V","1617451538.4326286","7","22","-28","-34","58","29","0.791504","-0.031372","-0.60968","-0.028259","0.061069","0.076336","-0.015267","9.262866","-0.203369","2.326782","-0.211743","-0.053833","-0.16748","0.102881","-0.065796","-0.246436"
"V","1617451538.4226403","7","21","-26","-36","58","27","0.790649","-0.032227","-0.610718","-0.028748","0.038168","0.091603","-0.015267","9.374121","-0.196191","2.347119","-0.107666","-0.040674","-0.120825","0.084937","-0.050244","-0.132788"
"V","1617451538.4126022","7","21","-28","-35","58","30","0.789795","-0.032715","-0.611816","-0.02887","0.007634","0.083969","-0.022901","9.441113","-0.122021","2.404541","-0.047852","0.037085","-0.037085","0.026318","0.033496","-0.055029"
"V","1617451538.4023907","7","22","-27","-34","63","32","0.789001","-0.032898","-0.612854","-0.028625","-0.015267","0.045802","-0.022901","9.384888","-0.003589","2.39856","-0.110059","0.160303","-0.017944","0.003589","0.15791","-0.113647"
"V","1617451538.392486","7","21","-27","-35","62","30","0.788574","-0.033081","-0.613403","-0.028198","0","0.015267","-0.015267","9.224585","0.034692","2.278931","-0.27395","0.206958","-0.124414","0.069385","0.196191","-0.299072"
"V","1617451538.3825576","7","22","-28","-35","57","29","0.788391","-0.033508","-0.613647","-0.028015","0.022901","0.007634","-0.015267","9.144434","-0.055029","2.129395","-0.355298","0.12561","-0.267969","0.181836","0.101685","-0.411523"
"V","1617451538.3726966","7","22","-33","-43","60","29","0.788208","-0.03418","-0.613831","-0.028076","0.045802","0.015267","-0.015267","9.140844","-0.202173","1.988232","-0.360083","-0.010767","-0.403149","0.299072","-0.045459","-0.446216"
"V","1617451538.362512","7","21","-27","-36","57","27","0.788025","-0.034973","-0.614014","-0.028503","0.045802","0.030534","-0.015267","9.174341","-0.290698","1.890137","-0.327783","-0.093311","-0.49646","0.38999","-0.136377","-0.436646"
"V","1617451538.352631","7","25","-20","-27","68","38","0.787781","-0.035645","-0.614258","-0.028931","0.038168","0.038168","-0.015267","9.20664","-0.282324","1.862622","-0.297876","-0.080151","-0.516797","0.418701","-0.12561","-0.41272"
"V","1617451538.342582","7","21","-29","-36","57","29","0.787415","-0.036133","-0.614685","-0.029175","0.022901","0.045802","-0.015267","9.23894","-0.221313","1.891333","-0.267969","-0.014355","-0.477319","0.393579","-0.057422","-0.374438"
"V","1617451538.332504","7","22","-27","-36","57","27","0.786987","-0.036499","-0.615173","-0.029236","0","0.045802","-0.015267","9.256885","-0.153125","1.946362","-0.252417","0.056226","-0.409131","0.33855","0.017944","-0.343335"
"V","1617451538.3225603","7","20","-27","-34","58","31","0.786682","-0.036621","-0.615601","-0.029114","-0.007634","0.030534","-0.015267","9.232959","-0.094507","1.982251","-0.278735","0.118433","-0.363672","0.294287","0.08374","-0.360083"
"V","1617451538.3125672","7","21","-30","-34","59","31","0.786438","-0.036743","-0.615906","-0.028809","-0.007634","0.015267","-0.022901","9.200659","-0.069385","1.990625","-0.313428","0.14834","-0.346924","0.272754","0.114844","-0.38999"
"V","1617451538.302433","7","17","-27","-37","59","28","0.786377","-0.036926","-0.616028","-0.028442","0","-0.007634","-0.030534","9.144434","-0.089722","1.965503","-0.37085","0.135181","-0.369653","0.279932","0.099292","-0.451001"
"V","1617451538.2925014","7","21","-27","-34","58","29","0.786438","-0.037415","-0.615906","-0.028137","0.022901","-0.022901","-0.030534","9.058301","-0.18064","1.896118","-0.455786","0.056226","-0.441431","0.321802","0.013159","-0.549097"
"V","1617451538.2828412","7","22","-27","-34","59","28","0.786621","-0.038086","-0.615601","-0.028015","0.038168","-0.015267","-0.022901","9.031982","-0.344531","1.808789","-0.479712","-0.094507","-0.534741","0.392383","-0.144751","-0.590967"
"V","1617451538.2725852","7","21","-30","-35","62","29","0.786743","-0.03894","-0.615356","-0.028259","0.045802","0","-0.022901","9.097778","-0.485693","1.780078","-0.411523","-0.224902","-0.567041","0.427075","-0.278735","-0.52876"
"V","1617451538.2627008","7","20","-29","-35","62","28","0.786804","-0.039612","-0.615295","-0.028564","0.038168","0.007634","-0.022901","9.154004","-0.543115","1.8052","-0.356494","-0.276343","-0.543115","0.41272","-0.328979","-0.467749"
"V","1617451538.2527432","7","18","-31","-35","62","32","0.786804","-0.040161","-0.615234","-0.028809","0.015267","0.007634","-0.015267","9.167163","-0.545508","1.855444","-0.342139","-0.272754","-0.494067","0.368457","-0.320605","-0.442627"
"V","1617451538.2424834","7","22","-31","-36","60","30","0.786804","-0.040283","-0.615234","-0.028931","-0.007634","0.007634","-0.007634","9.194677","-0.48689","1.941577","-0.31582","-0.214136","-0.407935","0.29668","-0.253613","-0.397168"
"V","1617451538.2326682","7","22","-29","-38","60","28","0.786804","-0.040039","-0.615173","-0.02887","-0.030534","0","-0.007634","9.213819","-0.375635","2.002588","-0.295483","-0.105273","-0.346924","0.253613","-0.139966","-0.366064"
"V","1617451538.222567","7","21","-28","-34","60","29","0.786926","-0.03949","-0.615112","-0.028625","-0.045802","-0.022901","0","9.222193","-0.23208","2.058814","-0.287109","0.031104","-0.294287","0.217725","0.001196","-0.349316"
"V","1617451538.212545","7","22","-28","-38","57","27","0.787231","-0.039001","-0.614807","-0.028259","-0.022901","-0.045802","0","9.152807","-0.161499","2.006177","-0.354102","0.099292","-0.355298","0.265576","0.063403","-0.430664"
"V","1617451538.20274","7","20","-31","-35","60","31","0.787659","-0.03894","-0.614197","-0.028076","0.015267","-0.045802","0.007634","9.125293","-0.266772","1.881763","-0.378027","-0.003589","-0.494067","0.384009","-0.05144","-0.485693"
"V","1617451538.1927304","7","19","-31","-36","57","26","0.788086","-0.039124","-0.613647","-0.028442","0.038168","-0.022901","0.007634","9.199463","-0.413916","1.813574","-0.300269","-0.150732","-0.575415","0.466553","-0.205762","-0.427075"
"V","1617451538.1825728","7","22","-28","-35","60","31","0.78833","-0.039429","-0.613281","-0.029053","0.038168","-0.015267","0.007634","9.267652","-0.500049","1.811182","-0.229687","-0.239258","-0.586182","0.485693","-0.295483","-0.358887"
"V","1617451538.1726403","7","22","-28","-35","60","29","0.788574","-0.039673","-0.612915","-0.029785","0.022901","-0.015267","0.007634","9.286792","-0.490479","1.860229","-0.209351","-0.234473","-0.545508","0.451001","-0.287109","-0.330176"
"V","1617451538.1626306","7","22","-27","-36","58","31","0.788818","-0.039612","-0.612549","-0.030334","0","-0.015267","0.007634","9.276026","-0.401953","1.969092","-0.217725","-0.153125","-0.44502","0.360083","-0.196191","-0.31582"
"V","1617451538.1527398","7","22","-38","-39","60","29","0.789124","-0.039246","-0.612244","-0.030579","-0.022901","-0.015267","0.015267","9.265259","-0.251221","2.127002","-0.227295","-0.010767","-0.295483","0.226099","-0.039478","-0.291895"
"V","1617451538.1425667","7","22","-31","-36","60","31","0.789368","-0.038696","-0.611877","-0.03064","-0.030534","-0.030534","0.015267","9.254492","-0.132788","2.276538","-0.234473","0.098096","-0.154321","0.099292","0.082544","-0.266772"
"V","1617451538.1325705","7","21","-31","-35","58","28","0.789734","-0.038208","-0.611511","-0.030701","-0.022901","-0.038168","0.022901","9.240137","-0.087329","2.379419","-0.247632","0.135181","-0.062207","0.010767","0.128003","-0.257202"
"V","1617451538.1226113","7","21","-29","-34","57","29","0.7901","-0.037842","-0.611023","-0.030884","0","-0.053435","0.022901","9.223389","-0.080151","2.434448","-0.260791","0.135181","-0.019141","-0.033496","0.132788","-0.259595"
"V","1617451538.1124954","7","21","-28","-38","57","27","0.790527","-0.03772","-0.610413","-0.031189","0.015267","-0.053435","0.015267","9.181519","-0.113647","2.424878","-0.299072","0.096899","-0.043066","-0.023926","0.092114","-0.301465"
"V","1617451538.1025183","7","19","-31","-35","59","29","0.791016","-0.037781","-0.609802","-0.031616","0.022901","-0.053435","0.007634","9.1875","-0.149536","2.412915","-0.289502","0.057422","-0.070581","0","0.050244","-0.299072"
"V","1617451538.092724","7","21","-28","-34","58","29","0.791443","-0.037964","-0.609253","-0.032043","0.015267","-0.038168","0.007634","9.19707","-0.142358","2.405737","-0.277539","0.063403","-0.090918","0.021533","0.055029","-0.291895"
"V","1617451538.0825214","7","19","-28","-35","57","29","0.791748","-0.038086","-0.608826","-0.032349","0.015267","-0.022901","0","9.235352","-0.119629","2.455981","-0.235669","0.084937","-0.050244","-0.003589","0.080151","-0.24165"
"V","1617451538.072684","7","21","-31","-36","58","31","0.791931","-0.03833","-0.608582","-0.032471","0.007634","-0.015267","-0.007634","9.262866","-0.118433","2.532544","-0.206958","0.088525","0.019141","-0.062207","0.090918","-0.196191"
"V","1617451538.0626097","7","22","-27","-35","60","29","0.792053","-0.038391","-0.608398","-0.032593","-0.007634","-0.015267","-0.007634","9.222193","-0.089722","2.59834","-0.246436","0.117236","0.081348","-0.129199","0.12561","-0.218921"
"V","1617451538.052605","7","22","-28","-36","59","28","0.792114","-0.03833","-0.608276","-0.032532","-0.022901","-0.015267","-0.007634","9.204248","-0.011963","2.665332","-0.263184","0.194995","0.145947","-0.187817","0.209351","-0.220117"
"V","1617451538.0434468","7","20","-29","-33","57","29","0.792175","-0.038208","-0.608215","-0.032288","-0.015267","-0.015267","-0.007634","9.211426","0.062207","2.733521","-0.256006","0.270361","0.212939","-0.244043","0.290698","-0.197388"
"V","1617451538.0324624","7","22","-31","-38","57","27","0.792175","-0.038391","-0.608215","-0.031982","0.015267","-0.022901","-0.015267","9.192286","0.003589","2.725147","-0.275146","0.217725","0.204565","-0.245239","0.238062","-0.217725"
"V","1617451538.0232742","7","22","-31","-36","57","31","0.792297","-0.039062","-0.608032","-0.031982","0.045802","-0.030534","-0.022901","9.154004","-0.18064","2.621069","-0.312231","0.044263","0.096899","-0.168677","0.053833","-0.277539"
"V","1617451538.0132878","7","19","-32","-34","60","28","0.79248","-0.039856","-0.607788","-0.032227","0.045802","-0.022901","-0.030534","9.148023","-0.27395","2.545703","-0.317017","-0.038281","0.015552","-0.100488","-0.034692","-0.300269"
"V","1617451538.0027516","7","22","-31","-37","60","27","0.792603","-0.040649","-0.607544","-0.032288","0.038168","-0.007634","-0.038168","9.140844","-0.284717","2.522974","-0.322998","-0.037085","-0.00957","-0.077759","-0.037085","-0.313428"
"V","1617451537.993318","7","22","-28","-36","57","28","0.792603","-0.041443","-0.607483","-0.032227","0.022901","0","-0.038168","9.146826","-0.291895","2.534936","-0.31582","-0.031104","0.001196","-0.086133","-0.029907","-0.302661"
"V","1617451537.98288","7","21","-32","-37","57","29","0.792542","-0.041992","-0.607544","-0.032043","0.007634","0","-0.038168","9.124097","-0.235669","2.562451","-0.339746","0.034692","0.031104","-0.113647","0.037085","-0.320605"
"V","1617451537.9727287","7","20","-29","-33","57","29","0.792542","-0.042419","-0.607544","-0.031677","0.007634","0.007634","-0.022901","9.092993","-0.189014","2.59834","-0.369653","0.092114","0.066992","-0.150732","0.098096","-0.342139"
"V","1617451537.963386","7","21","-31","-35","59","29","0.792358","-0.042908","-0.607727","-0.031616","0.030534","0.030534","-0.015267","9.182714","-0.290698","2.659351","-0.281128","0","0.133984","-0.200977","0.013159","-0.236865"
"V","1617451537.953685","7","20","-29","-36","58","28","0.791931","-0.043396","-0.608215","-0.03186","0.022901","0.030534","-0.015267","9.297559","-0.374438","2.726343","-0.169873","-0.080151","0.212939","-0.256006","-0.056226","-0.10647"
"V","1617451537.9426425","7","22","-31","-34","57","27","0.791565","-0.043701","-0.608643","-0.031921","0.007634","0","-0.015267","9.26167","-0.271558","2.747876","-0.208154","0.025122","0.246436","-0.287109","0.050244","-0.13877"
"V","1617451537.9333","7","21","-26","-35","59","28","0.791443","-0.044067","-0.608826","-0.03186","0.022901","-0.015267","-0.015267","9.150415","-0.24165","2.650977","-0.320605","0.061011","0.153125","-0.22251","0.075366","-0.271558"
"V","1617451537.9233315","7","22","-31","-35","58","33","0.791382","-0.044739","-0.608826","-0.031921","0.045802","-0.007634","-0.015267","9.13606","-0.344531","2.526562","-0.334961","-0.031104","0.031104","-0.118433","-0.028711","-0.314624"
"V","1617451535.785541","7","20","-27","-36","57","28","0.788513","0.006592","-0.614807","0.011597","-0.007634","0.015267","0","9.267652","-0.022729","2.42727","-0.234473","0.014355","0.037085","-0.093311","0.010767","-0.217725"
"V","1617451535.7758417","7","21","-29","-33","57","27","0.788391","0.006653","-0.61499","0.011658","-0.007634","0.007634","-0.007634","9.22937","-0.019141","2.45","-0.275146","0.017944","0.063403","-0.128003","0.013159","-0.251221"
"V","1617451535.7653916","7","22","-27","-34","57","32","0.788269","0.006653","-0.615173","0.01178","-0.007634","-0.007634","-0.007634","9.193481","-0.013159","2.444019","-0.312231","0.025122","0.062207","-0.136377","0.019141","-0.287109"
"V","1617451535.7554505","7","22","-6","-33","58","29","0.788208","0.006592","-0.615234","0.011841","0","-0.015267","-0.007634","9.161181","-0.029907","2.368652","-0.344531","0.010767","-0.010767","-0.072974","0.007178","-0.336157"
"V","1617451535.745356","7","21","-27","-36","57","29","0.788208","0.006348","-0.615234","0.011902","0.015267","-0.015267","-0.007634","9.143237","-0.101685","2.249023","-0.362476","-0.056226","-0.130396","0.039478","-0.056226","-0.382812"
"V","1617451535.7354543","7","21","-28","-35","60","28","0.788269","0.006042","-0.615173","0.011719","0.022901","-0.007634","-0.007634","9.167163","-0.166284","2.146142","-0.33855","-0.117236","-0.234473","0.147144","-0.114844","-0.384009"
"V","1617451535.7255683","7","22","-27","-35","59","5","0.788269","0.005737","-0.615173","0.011475","0.015267","0","-0.007634","9.200659","-0.185425","2.076758","-0.305054","-0.135181","-0.303857","0.223706","-0.130396","-0.368457"
"V","1617451535.715588","7","22","-47","-35","58","29","0.788269","0.005615","-0.615173","0.011292","0.007634","0.015267","0","9.23894","-0.13877","2.080347","-0.266772","-0.088525","-0.300269","0.228491","-0.08374","-0.330176"
"V","1617451535.705449","7","21","-28","-36","59","28","0.788208","0.005615","-0.615295","0.011108","0","0.015267","0.007634","9.283203","-0.071777","2.141357","-0.22251","-0.023926","-0.236865","0.175854","-0.020337","-0.272754"
"V","1617451535.6956286","7","22","-27","-36","55","29","0.788086","0.005676","-0.615417","0.010925","0","0.015267","0.007634","9.311914","-0.025122","2.234668","-0.194995","0.017944","-0.139966","0.087329","0.017944","-0.22251"
"V","1617451535.685486","7","21","-28","-35","59","29","0.787964","0.005798","-0.615601","0.010803","-0.007634","0.007634","0.007634","9.307129","0.017944","2.313623","-0.200977","0.058618","-0.057422","0.004785","0.057422","-0.208154"
"V","1617451535.6755753","7","21","-29","-38","60","26","0.787842","0.005981","-0.615723","0.010681","-0.007634","0","0.007634","9.266455","0.069385","2.373437","-0.24165","0.105273","0.004785","-0.0646","0.101685","-0.233276"
"V","1617451535.6654654","7","22","-44","-35","60","29","0.787842","0.006104","-0.615723","0.010681","-0.007634","-0.007634","0","9.213819","0.093311","2.384204","-0.294287","0.126807","0.015552","-0.088525","0.123218","-0.281128"
"V","1617451535.6556118","7","21","-28","-38","61","32","0.787842","0.006104","-0.615723","0.010742","0","-0.015267","0","9.207837","0.071777","2.368652","-0.300269","0.10647","0","-0.07417","0.102881","-0.290698"
"V","1617451535.6456082","7","22","-26","-36","59","31","0.787903","0.005981","-0.615662","0.010742","0.007634","-0.015267","-0.007634","9.205444","0.008374","2.314819","-0.302661","0.045459","-0.055029","-0.020337","0.043066","-0.30625"
"V","1617451535.6356094","7","21","-31","-36","59","29","0.787964","0.005737","-0.615601","0.010742","0.015267","-0.015267","-0.007634","9.211426","-0.075366","2.240649","-0.29668","-0.033496","-0.130396","0.055029","-0.033496","-0.318213"
"V","1617451535.62624","7","22","-27","-36","59","28","0.788025","0.005432","-0.615479","0.010681","0.007634","0","-0.015267","9.223389","-0.145947","2.19519","-0.283521","-0.100488","-0.178247","0.10647","-0.099292","-0.317017"
"V","1617451535.6163604","7","21","-28","-34","59","29","0.788025","0.005249","-0.615479","0.010681","0","0.007634","-0.015267","9.255689","-0.169873","2.196387","-0.251221","-0.122021","-0.177051","0.113647","-0.119629","-0.285913"
"V","1617451535.6058805","7","21","-28","-36","57","32","0.787964","0.005249","-0.615601","0.010742","-0.015267","0.015267","-0.015267","9.311914","-0.136377","2.26936","-0.196191","-0.087329","-0.101685","0.052637","-0.086133","-0.214136"
"V","1617451535.595455","7","21","-28","-35","59","29","0.787842","0.00531","-0.615784","0.010864","-0.015267","0.007634","-0.007634","9.317896","-0.088525","2.360278","-0.191406","-0.038281","-0.007178","-0.038281","-0.039478","-0.186621"
"V","1617451535.5863063","7","22","-29","-35","59","29","0.78772","0.005493","-0.615906","0.011108","-0.022901","0","-0.007634","9.284399","-0.040674","2.436841","-0.224902","0.008374","0.071777","-0.123218","0.003589","-0.200977"
"V","1617451535.576211","7","21","-28","-39","59","29","0.787659","0.005615","-0.615967","0.011292","-0.015267","-0.007634","-0.007634","9.23894","-0.013159","2.484692","-0.271558","0.035889","0.122021","-0.184229","0.029907","-0.233276"
"V","1617451535.5662243","7","22","-29","-36","62","31","0.78772","0.005676","-0.615906","0.011475","-0.007634","-0.022901","-0.007634","9.158789","-0.005981","2.469141","-0.350513","0.044263","0.104077","-0.185425","0.037085","-0.314624"
"V","1617451535.5564406","7","22","-29","-36","58","28","0.787842","0.005554","-0.615723","0.011597","0","-0.030534","-0.007634","9.089404","-0.037085","2.396167","-0.418701","0.016748","0.027515","-0.128003","0.010767","-0.399561"
"V","1617451535.5462763","7","22","-28","-34","62","28","0.788086","0.005371","-0.615479","0.011597","0.007634","-0.030534","-0.007634","9.065478","-0.070581","2.32439","-0.442627","-0.013159","-0.050244","-0.057422","-0.016748","-0.441431"
"V","1617451535.5362678","7","22","-28","-36","57","32","0.788269","0.005188","-0.615234","0.011536","0.007634","-0.015267","-0.007634","9.058301","-0.104077","2.241846","-0.447412","-0.044263","-0.13877","0.026318","-0.045459","-0.466553"
"V","1617451535.526267","7","22","-27","-35","60","29","0.78833","0.005066","-0.615112","0.011414","0","0","-0.007634","9.127686","-0.10647","2.229883","-0.376831","-0.046655","-0.153125","0.057422","-0.046655","-0.401953"
"V","1617451535.5162444","7","21","-28","-36","58","28","0.788269","0.005066","-0.615234","0.011353","0","0.007634","-0.007634","9.19707","-0.071777","2.262183","-0.308643","-0.011963","-0.118433","0.039478","-0.011963","-0.327783"
"V","1617451535.5063229","7","22","-26","-35","59","28","0.788147","0.005066","-0.615356","0.011414","-0.007634","0.007634","-0.007634","9.218603","-0.056226","2.29209","-0.288306","0.002393","-0.084937","0.011963","0","-0.300269"
"V","1617451535.4962673","7","20","-27","-34","58","31","0.788086","0.005005","-0.615479","0.011475","0","0","-0.007634","9.194677","-0.068188","2.300464","-0.312231","-0.005981","-0.07417","-0.002393","-0.007178","-0.320605"
"V","1617451535.4863667","7","21","-30","-35","58","31","0.788025","0.004944","-0.615479","0.011475","-0.007634","-0.007634","-0.007634","9.181519","-0.080151","2.308838","-0.325391","-0.017944","-0.0646","-0.015552","-0.020337","-0.330176"
"V","1617451535.4764037","7","21","-29","-35","57","26","0.788086","0.004944","-0.615479","0.011597","-0.007634","-0.007634","-0.007634","9.181519","-0.078955","2.341138","-0.325391","-0.014355","-0.033496","-0.045459","-0.016748","-0.322998"
"V","1617451535.4664538","7","21","-26","-34","104","28","0.788086","0.004944","-0.615417","0.011719","-0.007634","-0.015267","-0.007634","9.165967","-0.08374","2.354297","-0.340942","-0.017944","-0.021533","-0.061011","-0.021533","-0.334961"
"V","1617451535.4563444","7","22","-27","-35","60","33","0.788208","0.004883","-0.615295","0.01178","-0.007634","-0.022901","-0.007634","9.149219","-0.100488","2.341138","-0.356494","-0.033496","-0.038281","-0.047852","-0.037085","-0.354102"
"V","1617451535.4464784","7","21","-28","-36","51","32","0.78833","0.004822","-0.615112","0.011841","-0.007634","-0.022901","-0.007634","9.12649","-0.107666","2.318408","-0.378027","-0.038281","-0.0646","-0.027515","-0.040674","-0.381616"
"V","1617451535.4362884","7","21","-28","-36","73","28","0.788452","0.004883","-0.614929","0.011902","-0.007634","-0.007634","-0.007634","9.139648","-0.099292","2.300464","-0.363672","-0.031104","-0.086133","-0.003589","-0.033496","-0.373242"
"V","1617451535.4263208","7","20","-28","-36","57","32","0.788513","0.004883","-0.614929","0.011963","0","0","-0.007634","9.176733","-0.094507","2.293286","-0.327783","-0.025122","-0.094507","0.011963","-0.026318","-0.339746"
"V","1617451535.416457","7","21","-33","-34","59","29","0.788452","0.004822","-0.614929","0.011963","0","0","-0.007634","9.201856","-0.113647","2.270557","-0.301465","-0.043066","-0.11604","0.039478","-0.044263","-0.319409"
"V","1617451535.406293","7","21","-30","-35","57","28","0.788391","0.0047","-0.61499","0.011902","0.007634","0","0","9.217407","-0.133984","2.25022","-0.285913","-0.062207","-0.135181","0.062207","-0.062207","-0.308643"
"V","1617451535.3964849","7","22","-28","-38","57","31","0.788391","0.004639","-0.615051","0.01178","0","0.007634","0","9.240137","-0.137573","2.25022","-0.26438","-0.066992","-0.133984","0.066992","-0.066992","-0.288306"
"V","1617451535.3862455","7","21","-29","-36","61","28","0.78833","0.0047","-0.615112","0.011658","-0.007634","0","0","9.249707","-0.088525","2.266968","-0.25481","-0.020337","-0.11604","0.050244","-0.020337","-0.275146"
"V","1617451535.3765025","7","22","-27","-34","59","30","0.78833","0.004944","-0.615112","0.011597","-0.015267","-0.007634","0","9.228174","-0.015552","2.298071","-0.276343","0.047852","-0.084937","0.013159","0.045459","-0.288306"
"V","1617451535.366258","7","22","-27","-36","61","29","0.78833","0.005066","-0.615112","0.011658","-0.007634","-0.007634","0","9.200659","0.005981","2.305249","-0.303857","0.068188","-0.077759","0","0.065796","-0.313428"
"V","1617451535.3563633","7","21","-29","-36","58","31","0.788391","0.005127","-0.615051","0.011658","0","0","0","9.205444","-0.022729","2.314819","-0.299072","0.038281","-0.069385","-0.005981","0.035889","-0.30625"
"V","1617451535.3463418","7","20","-29","-36","59","27","0.788391","0.005066","-0.615051","0.011536","0","0","0","9.231763","-0.056226","2.323193","-0.272754","0.003589","-0.061011","-0.007178","0.001196","-0.278735"
"V","1617451535.3363166","7","22","-28","-35","59","31","0.78833","0.005066","-0.615112","0.011475","0","0","0","9.237744","-0.052637","2.335156","-0.266772","0.007178","-0.047852","-0.017944","0.004785","-0.270361"
"V","1617451535.3263905","7","22","-25","-35","60","29","0.788269","0.005127","-0.615173","0.011414","-0.007634","-0.007634","0","9.218603","-0.04187","2.321997","-0.285913","0.015552","-0.058618","-0.011963","0.013159","-0.290698"
"V","1617451535.3162997","7","22","-28","-35","58","32","0.788269","0.005249","-0.615234","0.011475","-0.015267","0","-0.007634","9.213819","-0.025122","2.287305","-0.291895","0.031104","-0.093311","0.017944","0.028711","-0.305054"
"V","1617451535.313458","7","15","-28","-34","57","72","0.788208","0.00531","-0.615234","0.011597","-0.015267","0","-0.007634","9.215014","-0.003589","2.251416","-0.290698","0.053833","-0.128003","0.05144","0.052637","-0.312231"
"V","1617451535.312126","7","21","-29","-35","57","29","0.788208","0.005371","-0.615295","0.01178","-0.007634","0.007634","-0.007634","9.220996","-0.017944","2.22749","-0.284717","0.040674","-0.150732","0.075366","0.040674","-0.312231"
"V","1617451535.2863064","7","22","-27","-35","57","28","0.788086","0.005249","-0.615417","0.011963","0.007634","0.015267","-0.007634","9.24851","-0.076563","2.210742","-0.258398","-0.013159","-0.165088","0.096899","-0.011963","-0.289502"
"V","1617451535.2765484","7","22","-27","-33","57","27","0.787964","0.005066","-0.615601","0.011963","0.015267","0.015267","-0.007634","9.289185","-0.144751","2.21792","-0.218921","-0.077759","-0.153125","0.096899","-0.076563","-0.248828"
"V","1617451535.2664251","7","21","-28","-35","59","30","0.787842","0.004822","-0.615723","0.011841","0.007634","0.007634","-0.007634","9.28081","-0.171069","2.234668","-0.227295","-0.101685","-0.132788","0.075366","-0.100488","-0.251221"
"V","1617451535.256443","7","20","-31","-38","58","28","0.787842","0.0047","-0.615784","0.011719","0","-0.007634","-0.007634","9.237744","-0.144751","2.240649","-0.271558","-0.075366","-0.126807","0.058618","-0.075366","-0.293091"
"V","1617451535.246251","7","22","-27","-34","58","29","0.787903","0.004639","-0.615662","0.011719","0","-0.015267","0","9.193481","-0.113647","2.255005","-0.314624","-0.043066","-0.114844","0.035889","-0.044263","-0.332568"
"V","1617451535.2364132","7","22","-28","-38","58","27","0.788025","0.004578","-0.615479","0.011658","0","-0.022901","0","9.151611","-0.119629","2.256201","-0.355298","-0.049048","-0.117236","0.028711","-0.050244","-0.372046"
"V","1617451535.2263396","7","21","-27","-37","57","28","0.788208","0.004578","-0.615295","0.011597","-0.007634","-0.015267","0","9.130078","-0.120825","2.252612","-0.375635","-0.05144","-0.12561","0.031104","-0.052637","-0.393579"
"V","1617451535.2164168","7","22","-33","-36","59","28","0.78833","0.0047","-0.615173","0.011536","-0.015267","-0.007634","0","9.16477","-0.080151","2.296875","-0.340942","-0.013159","-0.084937","0","-0.014355","-0.350513"
"V","1617451535.206329","7","20","-16","-38","60","29","0.788391","0.004883","-0.615051","0.011597","-0.015267","-0.015267","0","9.170752","-0.035889","2.321997","-0.333765","0.027515","-0.062207","-0.020337","0.023926","-0.33855"
"V","1617451535.1965165","7","21","-27","-34","57","29","0.788452","0.005066","-0.61499","0.011658","-0.015267","-0.007634","0","9.175537","-0.021533","2.314819","-0.328979","0.040674","-0.071777","-0.010767","0.037085","-0.336157"
"V","1617451535.1863148","7","21","-28","-34","59","26","0.788452","0.005127","-0.614929","0.011719","0","-0.007634","-0.007634","9.1875","-0.027515","2.307642","-0.31582","0.033496","-0.078955","0","0.031104","-0.325391"
"V","1617451535.1764214","7","21","-28","-38","58","30","0.788452","0.005066","-0.614929","0.011719","0","0","-0.007634","9.200659","-0.050244","2.296875","-0.302661","0.011963","-0.089722","0.011963","0.00957","-0.314624"
"V","1617451535.1666842","7","21","-31","-37","59","29","0.788391","0.005005","-0.61499","0.011658","0","0.007634","0","9.237744","-0.066992","2.300464","-0.265576","-0.003589","-0.084937","0.016748","-0.004785","-0.277539"
"V","1617451535.1564062","7","18","-28","-35","63","29","0.78833","0.004944","-0.615112","0.011536","0","0","0","9.256885","-0.057422","2.306445","-0.247632","0.004785","-0.076563","0.013159","0.002393","-0.258398"
"V","1617451535.146349","7","19","-28","-39","57","30","0.78833","0.005005","-0.615112","0.011475","-0.007634","0","0","9.249707","-0.045459","2.313623","-0.25481","0.014355","-0.069385","0.004785","0.011963","-0.263184"
"V","1617451535.1363864","7","21","-31","-36","57","29","0.78833","0.005127","-0.615112","0.011414","-0.007634","-0.015267","0","9.224585","-0.015552","2.338745","-0.279932","0.04187","-0.044263","-0.025122","0.039478","-0.282324"
"V","1617451535.1266444","7","21","-31","-37","57","29","0.788452","0.005249","-0.614929","0.011353","-0.015267","-0.015267","0","9.179126","0.028711","2.360278","-0.324194","0.08374","-0.026318","-0.055029","0.080151","-0.320605"
"V","1617451535.1165464","7","21","-29","-36","57","28","0.788635","0.005432","-0.614746","0.011475","-0.015267","-0.022901","0","9.142041","0.057422","2.380615","-0.361279","0.111255","-0.010767","-0.080151","0.10647","-0.352905"
"V","1617451535.1063795","7","22","-38","-34","60","31","0.788757","0.005493","-0.614563","0.011597","0","-0.022901","0","9.114527","0.025122","2.372241","-0.387598","0.078955","-0.023926","-0.072974","0.07417","-0.381616"
"V","1617451535.0965269","7","21","-25","-34","57","29","0.788879","0.005371","-0.61438","0.011597","0.007634","-0.007634","0","9.138453","-0.038281","2.371045","-0.361279","0.017944","-0.028711","-0.061011","0.014355","-0.356494"
"V","1617451535.0863423","7","21","-26","-35","57","28","0.788879","0.005127","-0.61438","0.011536","0.015267","0","-0.007634","9.176733","-0.119629","2.348315","-0.322998","-0.059814","-0.05144","-0.027515","-0.062207","-0.324194"
"V","1617451535.076764","7","21","-31","-37","57","29","0.788818","0.004883","-0.614441","0.011353","0.015267","0","-0.007634","9.213819","-0.166284","2.330371","-0.285913","-0.104077","-0.068188","-0.001196","-0.105273","-0.293091"
"V","1617451535.0664055","7","22","-28","-36","58","32","0.788818","0.0047","-0.614502","0.01123","0.007634","0","-0.007634","9.226977","-0.177051","2.307642","-0.27395","-0.113647","-0.089722","0.021533","-0.114844","-0.285913"
"V","1617451535.056661","7","20","-29","-36","57","28","0.788757","0.0047","-0.614563","0.011169","-0.007634","-0.007634","-0.007634","9.220996","-0.142358","2.284912","-0.279932","-0.080151","-0.111255","0.040674","-0.080151","-0.297876"
"V","1617451535.0464854","7","21","-27","-35","59","31","0.788818","0.004822","-0.614502","0.011169","-0.015267","-0.007634","-0.007634","9.20664","-0.07417","2.274146","-0.294287","-0.013159","-0.123218","0.046655","-0.013159","-0.314624"
"V","1617451535.0366485","7","20","-28","-34","58","27","0.788879","0.005066","-0.614441","0.011292","-0.022901","-0.007634","0","9.194677","-0.005981","2.283716","-0.30625","0.05144","-0.11604","0.035889","0.050244","-0.325391"
"V","1617451535.0265682","7","22","-28","-35","58","30","0.78894","0.005249","-0.61438","0.011475","-0.007634","-0.007634","0","9.189893","0.025122","2.305249","-0.311035","0.081348","-0.095703","0.014355","0.078955","-0.325391"
"V","1617451535.0164578","7","22","-29","-35","57","28","0.78894","0.005249","-0.614319","0.011536","0.007634","-0.007634","0","9.193481","-0.001196","2.325586","-0.30625","0.056226","-0.076563","-0.001196","0.053833","-0.31582"
"V","1617451535.0063314","7","21","-28","-36","58","29","0.789001","0.005127","-0.614258","0.011353","0.015267","0","0","9.203052","-0.044263","2.350708","-0.29668","0.011963","-0.052637","-0.021533","0.00957","-0.300269"
"V","1617451534.996482","7","21","-28","-36","57","28","0.789001","0.005005","-0.614258","0.011108","0.007634","0","0.007634","9.230566","-0.053833","2.391382","-0.269165","0.002393","-0.011963","-0.053833","0","-0.263184"
"V","1617451534.986441","7","21","-27","-33","90","11","0.789001","0.004944","-0.614319","0.010925","0","-0.007634","0","9.231763","-0.028711","2.404541","-0.269165","0.026318","0.001196","-0.066992","0.022729","-0.260791"
"V","1617451534.976583","7","22","-27","-36","58","31","0.789001","0.004944","-0.614258","0.010742","-0.007634","-0.022901","0","9.207837","-0.007178","2.380615","-0.291895","0.045459","-0.022729","-0.050244","0.04187","-0.288306"
"V","1617451534.9665115","7","21","-29","-36","60","29","0.789124","0.005066","-0.614075","0.010742","-0.015267","-0.022901","0","9.171948","0.011963","2.323193","-0.326587","0.062207","-0.08374","0","0.059814","-0.337354"
"V","1617451534.9564345","7","22","-29","-38","57","30","0.789307","0.005188","-0.613831","0.010803","-0.015267","-0.030534","0","9.14563","0.017944","2.247827","-0.350513","0.066992","-0.165088","0.071777","0.065796","-0.38042"
"V","1617451534.9464877","7","21","-28","-35","57","32","0.789551","0.005249","-0.613586","0.010925","-0.007634","-0.022901","0","9.144434","-0.004785","2.18562","-0.351709","0.044263","-0.234473","0.13877","0.045459","-0.398364"
"V","1617451534.936455","7","22","-27","-36","58","28","0.789673","0.00531","-0.613342","0.010986","0","-0.007634","0","9.207837","-0.046655","2.171265","-0.285913","0.002393","-0.253613","0.174658","0.004785","-0.339746"
"V","1617451534.9267569","7","21","-28","-36","58","28","0.789734","0.005249","-0.613281","0.010925","0","0","0","9.270044","-0.096899","2.198779","-0.223706","-0.046655","-0.227295","0.165088","-0.043066","-0.272754"
"V","1617451534.9164708","7","21","-27","-36","59","26","0.789734","0.005188","-0.613281","0.010864","0","0","0","9.299952","-0.114844","2.247827","-0.193799","-0.063403","-0.178247","0.12561","-0.061011","-0.230884"
"V","1617451534.907242","7","22","-29","-34","60","28","0.789795","0.00531","-0.613281","0.010864","-0.015267","0","-0.007634","9.304736","-0.093311","2.321997","-0.189014","-0.044263","-0.105273","0.055029","-0.043066","-0.208154"
"V","1617451534.8967252","7","20","-28","-35","58","28","0.789795","0.005432","-0.61322","0.010925","-0.015267","-0.007634","-0.007634","9.291577","-0.04187","2.403345","-0.202173","0.004785","-0.025122","-0.025122","0.002393","-0.200977"
"V","1617451534.8864543","7","21","-27","-37","57","32","0.789917","0.005615","-0.613098","0.011108","-0.015267","-0.022901","-0.007634","9.241333","-0.005981","2.442822","-0.251221","0.039478","0.00957","-0.071777","0.035889","-0.240454"
"V","1617451534.8767447","7","22","-27","-34","57","29","0.7901","0.005676","-0.612793","0.011292","-0.015267","-0.038168","-0.007634","9.174341","0.007178","2.434448","-0.31582","0.053833","-0.003589","-0.075366","0.050244","-0.30625"
"V","1617451534.867314","7","21","-30","-36","57","29","0.790405","0.005737","-0.612427","0.011475","-0.007634","-0.038168","-0.007634","9.149219","-0.014355","2.390186","-0.339746","0.033496","-0.057422","-0.029907","0.029907","-0.343335"
"V","1617451534.8572807","7","21","-28","-36","59","26","0.790649","0.005676","-0.612122","0.011536","0","-0.030534","0","9.157593","-0.056226","2.345923","-0.328979","-0.004785","-0.108862","0.022729","-0.005981","-0.344531"
"V","1617451534.84652","7","20","-29","-35","58","29","0.790894","0.005615","-0.611816","0.011536","0.007634","-0.022901","-0.007634","9.149219","-0.100488","2.29209","-0.334961","-0.049048","-0.169873","0.081348","-0.047852","-0.366064"
"V","1617451534.836735","7","20","-31","-35","57","29","0.791077","0.005493","-0.611572","0.011414","0.007634","-0.015267","0","9.1552","-0.118433","2.266968","-0.327783","-0.065796","-0.200977","0.112451","-0.0646","-0.367261"
"V","1617451534.826412","7","19","-30","-36","57","27","0.791199","0.005371","-0.61145","0.011292","0","0","0","9.192286","-0.113647","2.294482","-0.290698","-0.061011","-0.177051","0.099292","-0.059814","-0.325391"
"V","1617451534.817412","7","21","-31","-36","58","29","0.791199","0.005371","-0.61145","0.011108","-0.007634","0","0","9.230566","-0.096899","2.36626","-0.252417","-0.046655","-0.105273","0.038281","-0.046655","-0.270361"
"V","1617451534.8065886","7","22","-31","-35","57","28","0.791199","0.005493","-0.61145","0.011047","-0.015267","0","0","9.230566","-0.059814","2.429663","-0.252417","-0.011963","-0.04187","-0.022729","-0.013159","-0.253613"
"V","1617451534.796518","7","22","-26","-38","59","31","0.791138","0.005798","-0.61145","0.011108","-0.030534","0","0","9.201856","0.00957","2.49187","-0.279932","0.052637","0.020337","-0.090918","0.049048","-0.265576"
"V","1617451534.786511","7","22","-29","-36","59","30","0.791138","0.006104","-0.611511","0.011353","-0.022901","-0.007634","-0.007634","9.182714","0.053833","2.539722","-0.300269","0.094507","0.069385","-0.144751","0.088525","-0.272754"
"V","1617451534.777538","7","22","-32","-36","57","29","0.791138","0.006104","-0.61145","0.011658","-0.007634","-0.015267","-0.007634","9.138453","0.010767","2.502637","-0.343335","0.055029","0.031104","-0.117236","0.050244","-0.324194"
"V","1617451534.767394","7","21","-29","-36","58","29","0.791199","0.005981","-0.611389","0.011719","0.007634","-0.015267","-0.007634","9.125293","-0.071777","2.44043","-0.356494","-0.023926","-0.031104","-0.058618","-0.026318","-0.351709"
"V","1617451534.757295","7","19","-29","-37","57","30","0.791321","0.005798","-0.611267","0.011719","0.007634","-0.015267","-0.007634","9.125293","-0.113647","2.387793","-0.356494","-0.062207","-0.087329","-0.003589","-0.063403","-0.366064"
"V","1617451534.7476292","7","20","-31","-36","59","29","0.791443","0.005615","-0.611145","0.011719","0.007634","-0.007634","-0.007634","9.115723","-0.126807","2.356689","-0.364868","-0.072974","-0.122021","0.027515","-0.07417","-0.382812"
"V","1617451534.7373097","7","21","-29","-35","59","29","0.791504","0.005432","-0.611023","0.011658","0.007634","0","-0.007634","9.13606","-0.133984","2.357886","-0.343335","-0.077759","-0.123218","0.033496","-0.078955","-0.362476"
"V","1617451534.7273486","7","20","-31","-38","57","28","0.791443","0.005371","-0.611084","0.011597","0","0.007634","-0.007634","9.180323","-0.139966","2.409326","-0.299072","-0.08374","-0.070581","-0.004785","-0.084937","-0.30625"
"V","1617451534.7173202","7","19","-27","-35","58","27","0.791382","0.00531","-0.611206","0.011536","0","0.007634","0","9.188696","-0.135181","2.453589","-0.291895","-0.078955","-0.023926","-0.047852","-0.081348","-0.287109"
"V","1617451534.7072015","7","22","-29","-36","59","28","0.791321","0.005371","-0.611267","0.011536","-0.007634","0.007634","0","9.203052","-0.122021","2.512207","-0.278735","-0.066992","0.035889","-0.102881","-0.070581","-0.259595"
"V","1617451534.697574","7","21","-28","-37","57","30","0.791199","0.005493","-0.611389","0.011475","-0.007634","0","0","9.21023","-0.102881","2.546899","-0.271558","-0.050244","0.07417","-0.13877","-0.053833","-0.242847"
"V","1617451534.6872852","7","21","-30","-35","57","31","0.791199","0.005554","-0.61145","0.011475","-0.007634","-0.015267","0","9.185107","-0.094507","2.537329","-0.297876","-0.043066","0.0646","-0.136377","-0.047852","-0.271558"
"V","1617451534.6773293","7","22","-29","-34","58","27","0.79126","0.005615","-0.611328","0.011414","-0.007634","-0.022901","0","9.152807","-0.080151","2.496655","-0.328979","-0.029907","0.021533","-0.102881","-0.033496","-0.312231"
"V","1617451534.6672635","7","21","-28","-35","46","28","0.791382","0.005676","-0.611145","0.011353","-0.007634","-0.022901","0","9.120508","-0.047852","2.453589","-0.360083","0","-0.023926","-0.066992","-0.002393","-0.354102"
"V","1617451534.6574275","7","21","-28","-38","59","28","0.791565","0.005676","-0.610962","0.011353","0","-0.015267","0","9.119311","-0.031104","2.40813","-0.360083","0.016748","-0.07417","-0.019141","0.014355","-0.366064"
"V","1617451534.6473565","7","21","-29","-36","57","29","0.791626","0.005676","-0.61084","0.011292","0","-0.007634","0","9.159986","-0.033496","2.399756","-0.318213","0.013159","-0.084937","0","0.010767","-0.328979"
"V","1617451534.6371896","7","21","-30","-35","57","29","0.791626","0.005615","-0.61084","0.011169","0.007634","-0.007634","0","9.180323","-0.044263","2.384204","-0.297876","0.001196","-0.100488","0.021533","0","-0.313428"
"V","1617451534.6274018","7","21","-28","-36","60","27","0.791687","0.005554","-0.61084","0.011108","0","0","0","9.198267","-0.0323","2.397363","-0.281128","0.014355","-0.088525","0.013159","0.013159","-0.294287"
"V","1617451534.6173086","7","22","-28","-36","60","27","0.791626","0.005554","-0.610901","0.011047","-0.007634","0.007634","0","9.231763","-0.020337","2.441626","-0.247632","0.025122","-0.043066","-0.021533","0.022729","-0.250024"
"V","1617451534.607303","7","22","-28","-34","60","28","0.791504","0.005554","-0.611023","0.011047","-0.007634","0.007634","0","9.256885","-0.007178","2.4823","-0.22251","0.038281","0","-0.056226","0.034692","-0.215332"
"V","1617451534.5973215","7","20","-30","-35","57","28","0.791382","0.005615","-0.611145","0.010986","0","0","0","9.270044","-0.00957","2.500244","-0.210547","0.034692","0.021533","-0.07417","0.031104","-0.197388"
"V","1617451534.587373","7","22","-29","-34","57","32","0.791321","0.005493","-0.611267","0.010986","0.007634","-0.007634","0","9.265259","-0.033496","2.4823","-0.216528","0.011963","0.005981","-0.059814","0.008374","-0.206958"
"V","1617451534.5773816","7","22","-28","-35","58","29","0.791321","0.005371","-0.611267","0.010864","0.007634","-0.015267","0","9.22937","-0.068188","2.416504","-0.252417","-0.020337","-0.058618","-0.005981","-0.021533","-0.258398"
"V","1617451534.5673904","7","22","-31","-36","60","30","0.791443","0.005249","-0.611145","0.010681","0.007634","-0.015267","0","9.193481","-0.062207","2.361475","-0.287109","-0.015552","-0.117236","0.040674","-0.015552","-0.30625"
"V","1617451534.557476","7","22","-28","-36","57","26","0.791504","0.005249","-0.611023","0.010559","0","-0.015267","0","9.167163","-0.025122","2.31123","-0.312231","0.019141","-0.169873","0.08374","0.019141","-0.344531"
"V","1617451534.547221","7","21","-26","-33","57","31","0.791626","0.00531","-0.610901","0.010498","-0.007634","0","0","9.167163","0.019141","2.302856","-0.312231","0.062207","-0.181836","0.094507","0.062207","-0.34812"
"V","1617451534.5374205","7","20","-31","-37","57","28","0.791626","0.005371","-0.610901","0.010498","-0.007634","0.007634","0","9.183911","0.039478","2.313623","-0.295483","0.081348","-0.171069","0.088525","0.081348","-0.328979"
"V","1617451534.527306","7","22","-26","-34","58","32","0.791565","0.005432","-0.610962","0.010437","-0.007634","0.015267","0","9.2198","0.038281","2.339942","-0.259595","0.078955","-0.142358","0.069385","0.078955","-0.287109"
"V","1617451534.5173757","7","22","-29","-35","57","27","0.791382","0.005432","-0.611145","0.010437","0","0.015267","0","9.244922","0.027515","2.377026","-0.235669","0.068188","-0.100488","0.035889","0.066992","-0.253613"
"V","1617451534.5074282","7","20","-28","-36","58","31","0.791199","0.005371","-0.611389","0.010437","0","0.015267","0","9.272436","0.010767","2.402148","-0.209351","0.05144","-0.069385","0.011963","0.050244","-0.220117"
"V","1617451534.4974976","7","20","-27","-35","58","28","0.791077","0.005371","-0.611572","0.010437","-0.007634","0","-0.007634","9.267652","0.003589","2.393775","-0.215332","0.044263","-0.07417","0.015552","0.043066","-0.226099"
"V","1617451534.4873111","7","22","-28","-34","58","28","0.791077","0.005371","-0.611572","0.010498","-0.007634","-0.015267","-0.007634","9.237744","0.015552","2.355493","-0.245239","0.057422","-0.112451","0.045459","0.056226","-0.265576"
"V","1617451534.4773457","7","21","-27","-35","61","29","0.791138","0.005432","-0.611511","0.010681","-0.015267","-0.015267","-0.007634","9.225781","0.021533","2.308838","-0.257202","0.0646","-0.160303","0.088525","0.0646","-0.289502"
"V","1617451534.467273","7","21","-28","-36","60","32","0.79126","0.005493","-0.611328","0.010864","-0.015267","-0.007634","-0.007634","9.241333","0.017944","2.286108","-0.240454","0.062207","-0.187817","0.118433","0.063403","-0.279932"
"V","1617451534.4574163","7","20","-35","-35","57","27","0.791321","0.005493","-0.611206","0.011047","-0.007634","-0.007634","-0.015267","9.254492","0.005981","2.286108","-0.226099","0.052637","-0.19021","0.124414","0.053833","-0.266772"
"V","1617451534.447506","7","20","-29","-35","59","31","0.791443","0.005432","-0.611084","0.01123","0","-0.007634","-0.015267","9.242529","-0.022729","2.298071","-0.236865","0.027515","-0.181836","0.114844","0.028711","-0.275146"
"V","1617451534.4374676","7","19","-28","-38","59","28","0.791504","0.00531","-0.610962","0.011353","0","-0.007634","-0.007634","9.264063","-0.043066","2.356689","-0.214136","0.00957","-0.12561","0.066992","0.00957","-0.238062"
"V","1617451534.427447","7","22","-28","-34","57","29","0.791626","0.005249","-0.610901","0.011353","0","-0.007634","-0.007634","9.283203","-0.058618","2.432056","-0.196191","-0.003589","-0.052637","0.001196","-0.003589","-0.202173"
"V","1617451534.417375","7","21","-27","-38","59","26","0.791687","0.005188","-0.610779","0.011353","-0.007634","-0.015267","-0.007634","9.268847","-0.046655","2.497852","-0.209351","0.008374","0.00957","-0.062207","0.004785","-0.19978"
"V","1617451534.4074595","7","21","-29","-36","57","31","0.791748","0.005127","-0.610657","0.011475","-0.007634","-0.022901","-0.015267","9.218603","-0.034692","2.518188","-0.258398","0.022729","0.027515","-0.092114","0.017944","-0.242847"
"V","1617451534.3974416","7","19","-31","-37","59","28","0.791931","0.005066","-0.610413","0.011597","-0.007634","-0.030534","-0.015267","9.159986","-0.04187","2.487085","-0.31582","0.017944","-0.008374","-0.071777","0.013159","-0.307446"
"V","1617451534.3874671","7","19","-31","-36","57","27","0.792175","0.005005","-0.610107","0.011841","-0.007634","-0.030534","-0.015267","9.128881","-0.052637","2.439233","-0.344531","0.010767","-0.063403","-0.026318","0.007178","-0.349316"
"V","1617451534.377408","7","22","-29","-34","58","28","0.792419","0.004883","-0.609863","0.012085","-0.007634","-0.022901","-0.015267","9.108545","-0.080151","2.374634","-0.363672","-0.010767","-0.135181","0.037085","-0.011963","-0.385205"
"V","1617451534.367532","7","22","-31","-35","60","29","0.792603","0.004761","-0.609619","0.012268","-0.007634","-0.015267","-0.015267","9.132471","-0.114844","2.341138","-0.33855","-0.04187","-0.173462","0.081348","-0.04187","-0.37085"
"V","1617451534.3573763","7","19","-31","-36","58","28","0.792664","0.004639","-0.609497","0.012451","-0.007634","0","-0.015267","9.175537","-0.145947","2.330371","-0.294287","-0.068188","-0.187817","0.10647","-0.066992","-0.331372"
"V","1617451534.347592","7","22","-31","-36","57","28","0.792664","0.004639","-0.609497","0.012512","-0.007634","0","-0.015267","9.212622","-0.155518","2.338745","-0.257202","-0.077759","-0.179443","0.108862","-0.076563","-0.293091"
"V","1617451534.3374856","7","21","-32","-38","60","28","0.792664","0.004578","-0.609497","0.012634","-0.007634","0.007634","-0.015267","9.2198","-0.145947","2.37583","-0.250024","-0.065796","-0.142358","0.07417","-0.065796","-0.277539"
"V","1617451534.3277245","7","21","-32","-36","60","28","0.792603","0.004578","-0.609558","0.012756","-0.007634","0.007634","-0.007634","9.203052","-0.143555","2.415308","-0.266772","-0.062207","-0.100488","0.029907","-0.063403","-0.282324"
"V","1617451534.3174295","7","19","-27","-38","59","31","0.792542","0.004517","-0.609619","0.012817","-0.007634","0.007634","-0.007634","9.201856","-0.144751","2.469141","-0.267969","-0.061011","-0.045459","-0.022729","-0.063403","-0.269165"
"V","1617451534.3076737","7","20","-29","-34","57","28","0.79248","0.004517","-0.609741","0.012878","-0.007634","-0.007634","-0.007634","9.176733","-0.142358","2.495459","-0.294287","-0.057422","-0.016748","-0.057422","-0.061011","-0.287109"
"V","1617451534.2974386","7","20","-29","-33","58","30","0.792542","0.004578","-0.60968","0.012878","-0.015267","-0.022901","-0.007634","9.110937","-0.110059","2.484692","-0.360083","-0.026318","-0.028711","-0.063403","-0.029907","-0.354102"
"V","1617451533.968433","7","21","-28","-34","57","27","0.792297","0.005432","-0.609985","0.01416","0.015267","0","-0.015267","9.072657","-0.150732","2.493066","-0.400757","-0.0646","-0.013159","-0.087329","-0.069385","-0.38999"
"V","1617451533.9582846","7","21","-27","-36","58","29","0.792175","0.005066","-0.610107","0.014038","0.015267","0.007634","-0.015267","9.091797","-0.161499","2.405737","-0.381616","-0.071777","-0.096899","-0.001196","-0.075366","-0.392383"
"V","1617451533.9482958","7","21","-29","-36","57","29","0.791992","0.004822","-0.610352","0.013977","0.007634","0.015267","-0.015267","9.125293","-0.139966","2.339942","-0.350513","-0.046655","-0.15791","0.0646","-0.047852","-0.378027"
"V","1617451533.938367","7","20","-31","-36","58","31","0.791748","0.004639","-0.610657","0.013916","0.007634","0.022901","-0.007634","9.176733","-0.113647","2.305249","-0.300269","-0.017944","-0.184229","0.101685","-0.017944","-0.336157"
"V","1617451533.9284732","7","21","-28","-35","59","32","0.791504","0.004517","-0.610962","0.013855","0.007634","0.022901","-0.007634","9.212622","-0.092114","2.288501","-0.265576","0.003589","-0.193799","0.119629","0.003589","-0.305054"
"V","1617451533.9181917","7","20","-29","-36","57","31","0.79126","0.004333","-0.611267","0.013794","0.007634","0.015267","-0.007634","9.212622","-0.072974","2.287305","-0.267969","0.023926","-0.187817","0.112451","0.023926","-0.30625"
"V","1617451533.9083295","7","20","-28","-35","57","29","0.791138","0.00415","-0.61145","0.013794","0.007634","0.007634","-0.007634","9.185107","-0.065796","2.28252","-0.29668","0.034692","-0.189014","0.10647","0.033496","-0.334961"
"V","1617451533.8981917","7","22","-27","-36","58","33","0.791077","0.003906","-0.611572","0.013733","0.015267","0.007634","-0.007634","9.156397","-0.078955","2.28252","-0.326587","0.023926","-0.186621","0.096899","0.021533","-0.362476"
"V","1617451533.8882835","7","22","-28","-36","59","33","0.791016","0.003601","-0.611633","0.01355","0.015267","0.007634","-0.007634","9.157593","-0.107666","2.28252","-0.325391","0","-0.184229","0.095703","-0.001196","-0.360083"
"V","1617451533.8783455","7","20","-29","-33","58","30","0.790955","0.003357","-0.611755","0.013367","0.015267","-0.007634","0","9.165967","-0.10647","2.286108","-0.318213","0.001196","-0.178247","0.092114","0","-0.351709"
"V","1617451533.8684623","7","22","-26","-34","35","30","0.791016","0.003174","-0.611633","0.013245","0.007634","-0.022901","0","9.124097","-0.088525","2.245435","-0.358887","0.020337","-0.221313","0.123218","0.017944","-0.403149"
"V","1617451533.85826","7","22","-28","-34","58","29","0.79126","0.003113","-0.611328","0.013184","0","-0.030534","-0.007634","9.088208","-0.05144","2.19519","-0.392383","0.057422","-0.278735","0.168677","0.056226","-0.449805"
"V","1617451533.8484137","7","20","-27","-36","59","31","0.791504","0.00293","-0.611023","0.013184","0.007634","-0.030534","-0.007634","9.070264","-0.056226","2.150928","-0.409131","0.055029","-0.330176","0.214136","0.053833","-0.479712"
"V","1617451533.8383255","7","21","-33","-33","59","32","0.791748","0.002625","-0.610657","0.013123","0.015267","-0.015267","-0.007634","9.07146","-0.107666","2.121021","-0.405542","0.008374","-0.368457","0.252417","0.008374","-0.485693"
"V","1617451533.8281734","7","22","-31","-38","59","29","0.791931","0.002319","-0.610474","0.013","0.015267","-0.007634","-0.007634","9.128881","-0.173462","2.123413","-0.346924","-0.053833","-0.372046","0.271558","-0.052637","-0.429468"
"V","1617451533.8182414","7","20","-29","-34","57","28","0.791992","0.002075","-0.610352","0.012756","0.007634","0","0","9.185107","-0.16748","2.177246","-0.289502","-0.046655","-0.319409","0.235669","-0.045459","-0.360083"
"V","1617451533.808337","7","21","-26","-35","62","31","0.792114","0.002136","-0.610229","0.012634","-0.007634","0","0","9.19707","-0.107666","2.255005","-0.277539","0.00957","-0.245239","0.165088","0.008374","-0.330176"
"V","1617451533.7982454","7","21","-28","-35","57","29","0.792175","0.002319","-0.610168","0.012634","-0.015267","-0.007634","0","9.179126","-0.05144","2.319604","-0.294287","0.063403","-0.183032","0.099292","0.061011","-0.331372"
"V","1617451533.7883954","7","22","-28","-35","60","31","0.792236","0.002563","-0.610046","0.012756","-0.022901","-0.015267","0","9.170752","-0.011963","2.384204","-0.301465","0.100488","-0.120825","0.037085","0.096899","-0.322998"
"V","1617451533.7783597","7","21","-29","-34","58","28","0.792358","0.002869","-0.609863","0.012878","-0.022901","-0.022901","0","9.140844","0.004785","2.40813","-0.330176","0.113647","-0.100488","0.00957","0.108862","-0.345728"
"V","1617451533.7682316","7","22","-31","-38","60","30","0.792603","0.003113","-0.609619","0.013062","-0.015267","-0.030534","0","9.121704","-0.010767","2.394971","-0.349316","0.096899","-0.120825","0.023926","0.093311","-0.369653"
"V","1617451533.758254","7","21","-29","-36","59","33","0.792786","0.003235","-0.609314","0.013123","-0.007634","-0.022901","0","9.119311","-0.056226","2.373437","-0.349316","0.049048","-0.14834","0.05144","0.045459","-0.375635"
"V","1617451533.7484114","7","21","-28","-35","58","-10","0.792969","0.003296","-0.60907","0.013123","-0.007634","-0.015267","0.007634","9.14563","-0.094507","2.350708","-0.320605","0.010767","-0.177051","0.087329","0.008374","-0.355298"
"V","1617451533.7383082","7","21","-29","-36","56","28","0.793152","0.003479","-0.608887","0.013062","-0.015267","-0.007634","0.007634","9.179126","-0.111255","2.359082","-0.287109","-0.008374","-0.173462","0.093311","-0.008374","-0.321802"
"V","1617451533.728228","7","20","-28","-38","59","29","0.793213","0.003845","-0.608826","0.013","-0.030534","0","0.007634","9.217407","-0.092114","2.388989","-0.248828","0.002393","-0.145947","0.076563","0.001196","-0.277539"
"V","1617451533.7183273","7","19","-28","-36","57","30","0.793213","0.004333","-0.608765","0.013062","-0.038168","0.007634","0.007634","9.240137","-0.039478","2.464355","-0.224902","0.047852","-0.070581","0.008374","0.045459","-0.235669"
"V","1617451533.7084746","7","20","-32","-38","59","28","0.793152","0.004883","-0.608826","0.013245","-0.038168","0.007634","0.007634","9.249707","0.001196","2.552881","-0.215332","0.082544","0.017944","-0.07417","0.077759","-0.203369"
"V","1617451533.6983385","7","20","-28","-36","62","27","0.793091","0.005371","-0.608887","0.01355","-0.030534","0.007634","0","9.253296","-0.020337","2.627051","-0.212939","0.057422","0.094507","-0.147144","0.05144","-0.18064"
"V","1617451533.6884837","7","21","-28","-35","58","33","0.792969","0.005615","-0.609009","0.013733","-0.022901","0","0","9.249707","-0.080151","2.659351","-0.216528","-0.002393","0.129199","-0.179443","-0.008374","-0.174658"
"V","1617451533.6784644","7","20","-31","-34","58","31","0.792969","0.005737","-0.60907","0.013916","-0.015267","-0.007634","-0.007634","9.241333","-0.126807","2.658154","-0.226099","-0.049048","0.129199","-0.18064","-0.055029","-0.184229"
"V","1617451533.6684115","7","22","-28","-36","59","29","0.792969","0.00592","-0.60907","0.014099","-0.015267","-0.007634","-0.007634","9.216211","-0.137573","2.636621","-0.251221","-0.061011","0.107666","-0.166284","-0.066992","-0.214136"
"V","1617451533.6584213","7","22","-31","-34","57","18","0.792969","0.006104","-0.60907","0.014282","-0.022901","-0.007634","-0.007634","9.224585","-0.114844","2.616284","-0.242847","-0.038281","0.087329","-0.144751","-0.044263","-0.211743"
"V","1617451533.6484866","7","21","-27","-37","61","28","0.792908","0.006287","-0.609131","0.014526","-0.015267","0.007634","-0.007634","9.253296","-0.094507","2.616284","-0.214136","-0.017944","0.088525","-0.139966","-0.022729","-0.183032"
"V","1617451533.6385107","7","21","-29","-35","57","32","0.792725","0.006409","-0.609314","0.014709","-0.015267","0.015267","-0.007634","9.298755","-0.108862","2.613892","-0.169873","-0.0323","0.092114","-0.131592","-0.037085","-0.139966"
"V","1617451533.6285453","7","21","-28","-35","75","28","0.79248","0.00647","-0.60968","0.014771","-0.007634","0.030534","0","9.368139","-0.131592","2.633032","-0.102881","-0.055029","0.118433","-0.13877","-0.059814","-0.068188"
"V","1617451533.6185577","7","21","-29","-37","59","29","0.792114","0.006531","-0.610107","0.014771","-0.007634","0.030534","0","9.406421","-0.131592","2.658154","-0.066992","-0.056226","0.154321","-0.163892","-0.061011","-0.023926"
"V","1617451533.6083302","7","22","-31","-34","58","31","0.791748","0.006592","-0.610596","0.014771","-0.007634","0.022901","0","9.407618","-0.124414","2.66294","-0.069385","-0.049048","0.171069","-0.18064","-0.053833","-0.022729"
"V","1617451533.5985785","7","21","-31","-34","57","31","0.791504","0.006592","-0.610962","0.014709","-0.007634","0.015267","0","9.395655","-0.10647","2.642602","-0.08374","-0.0323","0.159106","-0.173462","-0.037085","-0.039478"
"V","1617451533.5885727","7","20","-29","-36","58","31","0.79126","0.006653","-0.611206","0.014709","0","0","-0.007634","9.365747","-0.082544","2.603125","-0.114844","-0.008374","0.12561","-0.149536","-0.013159","-0.078955"
"V","1617451533.57841","7","20","-31","-36","61","31","0.791138","0.006592","-0.611389","0.014709","0.007634","-0.007634","-0.007634","9.311914","-0.08374","2.539722","-0.169873","-0.00957","0.066992","-0.10647","-0.013159","-0.147144"
"V","1617451533.568532","7","22","-31","-36","57","32","0.791138","0.006348","-0.611389","0.014709","0.015267","-0.007634","-0.015267","9.262866","-0.113647","2.44043","-0.218921","-0.034692","-0.031104","-0.023926","-0.037085","-0.218921"
"V","1617451533.558398","7","19","-31","-37","58","31","0.791138","0.005981","-0.611389","0.014709","0.022901","-0.007634","-0.022901","9.242529","-0.128003","2.368652","-0.239258","-0.044263","-0.102881","0.039478","-0.044263","-0.256006"
"V","1617451533.548514","7","22","-31","-38","57","31","0.791138","0.005493","-0.61145","0.014648","0.030534","0","-0.022901","9.213819","-0.145947","2.296875","-0.267969","-0.055029","-0.174658","0.102881","-0.053833","-0.302661"
"V","1617451533.53829","7","21","-28","-38","30","30","0.791077","0.004944","-0.611511","0.014587","0.030534","0.015267","-0.022901","9.189893","-0.143555","2.249023","-0.291895","-0.044263","-0.220117","0.139966","-0.043066","-0.337354"
"V","1617451533.5287583","7","22","-28","-36","57","30","0.790955","0.004395","-0.611694","0.014465","0.022901","0.022901","-0.022901","9.211426","-0.111255","2.25022","-0.271558","-0.004785","-0.215332","0.139966","-0.003589","-0.31582"
"V","1617451533.5182953","7","20","-34","-43","58","28","0.790649","0.003906","-0.612061","0.014343","0.030534","0.022901","-0.015267","9.223389","-0.069385","2.272949","-0.261987","0.04187","-0.183032","0.110059","0.040674","-0.299072"
"V","1617451533.5085976","7","20","-30","-34","58","28","0.790466","0.003418","-0.612366","0.01416","0.030534","0.015267","-0.015267","9.175537","-0.034692","2.276538","-0.312231","0.081348","-0.173462","0.087329","0.078955","-0.345728"
"V","1617451533.4984286","7","21","-29","-34","58","30","0.790283","0.002991","-0.61261","0.013916","0.022901","0.007634","-0.007634","9.110937","0.0323","2.280127","-0.378027","0.151929","-0.163892","0.059814","0.14834","-0.407935"
"V","1617451533.488498","7","21","-30","-37","57","29","0.790222","0.002625","-0.612671","0.013794","0.015267","-0.007634","-0.015267","9.018824","0.108862","2.264575","-0.470142","0.233276","-0.178247","0.049048","0.227295","-0.502441"
"V","1617451533.4783642","7","20","-28","-35","60","29","0.790283","0.00238","-0.612549","0.013794","0.007634","-0.015267","-0.015267","8.912354","0.168677","2.245435","-0.575415","0.29668","-0.19978","0.04187","0.289502","-0.610107"
"V","1617451533.468532","7","17","-32","-39","57","27","0.790466","0.002075","-0.612305","0.013916","0","-0.022901","-0.015267","8.845362","0.229687","2.246631","-0.641211","0.363672","-0.203369","0.027515","0.354102","-0.675903"
"V","1617451533.4585211","7","22","-27","-37","62","31","0.790649","0.00177","-0.612122","0.01416","0","-0.015267","-0.022901","8.811865","0.244043","2.252612","-0.673511","0.386401","-0.203369","0.017944","0.375635","-0.708203"
"V","1617451533.448521","7","22","-31","-61","59","31","0.790771","0.001404","-0.611938","0.014465","0.007634","-0.015267","-0.022901","8.813062","0.169873","2.255005","-0.671118","0.320605","-0.204565","0.021533","0.309839","-0.705811"
"V","1617451533.4383824","7","19","-28","-35","58","29","0.790833","0.000793","-0.611877","0.014771","0.015267","-0.007634","-0.030534","8.853735","0.05144","2.25979","-0.630444","0.215332","-0.202173","0.031104","0.204565","-0.66394"
"V","1617451533.4285572","7","21","-31","-36","59","31","0.790833","0.000183","-0.611816","0.015076","0.015267","-0.007634","-0.038168","8.914746","-0.069385","2.284912","-0.568237","0.107666","-0.177051","0.025122","0.096899","-0.595752"
"V","1617451533.4184256","7","18","-27","-35","60","27","0.790894","-0.000427","-0.611755","0.015442","0","-0.007634","-0.038168","8.967382","-0.19021","2.29209","-0.515601","0.001196","-0.172266","0.037085","-0.008374","-0.541919"
"V","1617451533.409143","7","20","-27","-37","60","29","0.790955","-0.000916","-0.611633","0.01593","-0.007634","-0.022901","-0.038168","9.035571","-0.282324","2.312427","-0.44502","-0.076563","-0.154321","0.038281","-0.084937","-0.467749"
"V","1617451533.39933","7","20","-31","-36","50","28","0.791138","-0.00116","-0.611389","0.016479","-0.022901","-0.038168","-0.038168","9.075048","-0.339746","2.306445","-0.404346","-0.123218","-0.166284","0.061011","-0.130396","-0.429468"
"V","1617451533.3893204","7","21","-29","-34","59","31","0.791504","-0.00116","-0.610962","0.017151","-0.038168","-0.038168","-0.030534","9.102564","-0.382812","2.288501","-0.374438","-0.159106","-0.194995","0.096899","-0.165088","-0.406738"
"V","1617451533.3784227","7","19","-29","-36","58","29","0.79187","-0.000977","-0.610413","0.017822","-0.045802","-0.038168","-0.030534","9.175537","-0.43186","2.288501","-0.297876","-0.203369","-0.208154","0.130396","-0.206958","-0.336157"
"V","1617451533.368648","7","20","-31","-38","57","28","0.792175","-0.000671","-0.609985","0.018494","-0.045802","-0.030534","-0.022901","9.274829","-0.447412","2.314819","-0.194995","-0.215332","-0.191406","0.141162","-0.216528","-0.23208"
"V","1617451533.359102","7","20","-28","-36","47","29","0.792419","-0.000305","-0.60968","0.019165","-0.038168","-0.015267","-0.022901","9.364551","-0.479712","2.345923","-0.104077","-0.245239","-0.16748","0.142358","-0.244043","-0.137573"
"V","1617451533.348514","7","22","-29","-38","60","32","0.792542","-0.000061","-0.609436","0.019653","-0.022901","-0.007634","-0.015267","9.457861","-0.571826","2.371045","-0.008374","-0.334961","-0.14834","0.150732","-0.331372","-0.037085"
"V","1617451533.3385775","7","19","-31","-36","61","31","0.792603","0.000061","-0.609375","0.019836","0","0","-0.007634","9.570312","-0.684277","2.418896","0.102881","-0.447412","-0.101685","0.137573","-0.440234","0.08374"
"V","1617451533.328538","7","20","-31","-34","59","29","0.792603","0.000122","-0.609375","0.019714","0.007634","-0.007634","0","9.630127","-0.771606","2.451196","0.162695","-0.537134","-0.069385","0.12561","-0.52876","0.151929"
"V","1617451533.3185291","7","22","-29","-35","59","29","0.792725","0.000244","-0.609314","0.019348","0","-0.015267","0.007634","9.639697","-0.799121","2.484692","0.172266","-0.571826","-0.038281","0.098096","-0.564648","0.168677"
"V","1617451533.3086207","7","21","-29","-38","57","32","0.792847","0.00061","-0.609131","0.018921","-0.007634","-0.022901","0.007634","9.587061","-0.736914","2.499048","0.120825","-0.520386","-0.027515","0.072974","-0.515601","0.120825"
"V","1617451533.2992227","7","22","-30","-35","58","31","0.793152","0.001038","-0.608765","0.018616","-0.015267","-0.038168","0.007634","9.465039","-0.6125","2.478711","0","-0.405542","-0.057422","0.066992","-0.403149","-0.005981"
"V","1617451533.2892106","7","21","-31","-36","63","29","0.793518","0.001526","-0.608276","0.018433","-0.015267","-0.038168","0.007634","9.380102","-0.480908","2.460767","-0.080151","-0.284717","-0.086133","0.070581","-0.283521","-0.093311"
"V","1617451533.2793908","7","22","-31","-34","60","28","0.793884","0.00177","-0.607788","0.018372","0.007634","-0.045802","0.007634","9.305933","-0.411523","2.432056","-0.151929","-0.220117","-0.126807","0.088525","-0.220117","-0.174658"
"V","1617451533.2686431","7","20","-29","-36","58","32","0.79425","0.001648","-0.607361","0.018005","0.038168","-0.038168","0.015267","9.24851","-0.455786","2.368652","-0.206958","-0.266772","-0.200977","0.147144","-0.266772","-0.246436"
"V","1617451533.258485","7","21","-31","-35","63","31","0.794617","0.001343","-0.606873","0.017212","0.053435","-0.030534","0.022901","9.24851","-0.514404","2.359082","-0.203369","-0.330176","-0.221313","0.168677","-0.328979","-0.247632"
"V","1617451533.2486582","7","19","-31","-38","57","29","0.794922","0.001038","-0.606445","0.016174","0.045802","-0.030534","0.030534","9.230566","-0.502441","2.400952","-0.217725","-0.325391","-0.189014","0.132788","-0.325391","-0.253613"
"V","1617451533.2385838","7","19","-29","-35","60","33","0.795288","0.00116","-0.606018","0.015015","0.022901","-0.022901","0.038168","9.185107","-0.35769","2.487085","-0.260791","-0.197388","-0.113647","0.044263","-0.19978","-0.277539"
"V","1617451533.2285063","7","21","-32","-35","62","32","0.795654","0.001587","-0.605591","0.01416","-0.007634","-0.038168","0.045802","9.131274","-0.080151","2.658154","-0.312231","0.062207","0.045459","-0.128003","0.053833","-0.289502"
"V","1617451533.2184756","7","22","-28","-34","59","28","0.796021","0.002319","-0.605103","0.013489","-0.015267","-0.053435","0.053435","9.017627","0.168677","2.77898","-0.423486","0.291895","0.155518","-0.269165","0.279932","-0.369653"
"V","1617451533.2087054","7","20","-32","-36","60","26","0.796509","0.002991","-0.604492","0.012817","-0.007634","-0.061069","0.061069","8.932691","0.330176","2.880664","-0.504834","0.434253","0.24165","-0.378027","0.419897","-0.424683"
"V","1617451533.198562","7","21","-31","-38","57","35","0.796997","0.00354","-0.603821","0.012146","0.007634","-0.061069","0.053435","8.871679","0.423486","2.944067","-0.56106","0.510815","0.290698","-0.442627","0.495264","-0.465356"
"V","1617451533.188598","7","22","-29","-36","59","31","0.797424","0.003784","-0.603271","0.011414","0.022901","-0.061069","0.045802","8.798706","0.470142","2.963208","-0.630444","0.545508","0.29668","-0.468945","0.529956","-0.529956"
"V","1617451533.179345","7","21","-31","-35","57","29","0.797852","0.003601","-0.602722","0.010681","0.045802","-0.053435","0.030534","8.746069","0.446216","2.896216","-0.679492","0.515601","0.216528","-0.404346","0.502441","-0.596948"
"V","1617451533.168619","7","21","-29","-34","58","29","0.798157","0.003113","-0.602356","0.009949","0.053435","-0.030534","0.022901","8.773584","0.392383","2.817261","-0.649585","0.460571","0.128003","-0.309839","0.449805","-0.592163"
"V","1617451533.1585965","7","21","-29","-35","57","31","0.798279","0.002441","-0.602234","0.009216","0.045802","-0.007634","0.015267","8.850146","0.336157","2.740698","-0.571826","0.406738","0.049048","-0.210547","0.398364","-0.53833"
"V","1617451533.1493633","7","20","-33","-37","57","31","0.798096","0.001831","-0.602417","0.008606","0.038168","0.015267","0.007634","8.933887","0.26438","2.684473","-0.489282","0.336157","-0.001196","-0.137573","0.330176","-0.472534"
"V","1617451533.139251","7","21","-29","-35","59","31","0.797852","0.001282","-0.602783","0.00824","0.015267","0.030534","-0.007634","8.962598","0.191406","2.617481","-0.462964","0.267969","-0.059814","-0.071777","0.263184","-0.462964"
"V","1617451533.1292748","7","21","-31","-37","58","28","0.797363","0.000977","-0.603394","0.008301","-0.015267","0.061069","-0.022901","9.014038","0.171069","2.585181","-0.415112","0.253613","-0.077759","-0.040674","0.248828","-0.42229"
"V","1617451533.119341","7","21","-29","-38","59","29","0.796692","0.000916","-0.604309","0.008728","-0.038168","0.068702","-0.022901","9.108545","0.19021","2.580395","-0.327783","0.278735","-0.061011","-0.033496","0.275146","-0.333765"
"V","1617451533.1092715","7","17","-31","-34","58","29","0.795898","0.001099","-0.605286","0.009399","-0.045802","0.061069","-0.022901","9.14563","0.155518","2.539722","-0.29668","0.248828","-0.077759","-0.007178","0.245239","-0.308643"
"V","1617451533.0993862","7","20","-31","-36","60","28","0.795227","0.001282","-0.606201","0.010132","-0.045802","0.053435","-0.015267","9.115723","0.078955","2.426074","-0.332568","0.178247","-0.169873","0.071777","0.174658","-0.367261"
"V","1617451533.0892456","7","21","-30","-36","59","28","0.794678","0.001526","-0.606934","0.010742","-0.030534","0.053435","-0.015267","9.115723","-0.029907","2.299268","-0.337354","0.072974","-0.279932","0.179443","0.071777","-0.399561"
"V","1617451533.0792117","7","20","-32","-38","59","29","0.794128","0.001648","-0.607666","0.01123","-0.022901","0.061069","-0.015267","9.17793","-0.144751","2.219116","-0.279932","-0.035889","-0.343335","0.258398","-0.034692","-0.358887"
"V","1617451533.069414","7","22","-37","-36","58","29","0.793518","0.001709","-0.608398","0.011658","-0.015267","0.053435","-0.015267","9.236547","-0.246436","2.164087","-0.226099","-0.133984","-0.38042","0.311035","-0.130396","-0.314624"
"V","1617451533.0595202","7","20","-31","-36","60","27","0.792969","0.001587","-0.60907","0.011902","0","0.045802","-0.015267","9.255689","-0.379224","2.104272","-0.210547","-0.260791","-0.423486","0.360083","-0.256006","-0.308643"
"V","1617451533.0493555","7","21","-29","-38","57","28","0.792603","0.001343","-0.609619","0.011963","0.007634","0.038168","-0.015267","9.253296","-0.525171","2.049243","-0.216528","-0.401953","-0.466553","0.403149","-0.397168","-0.322998"
"V","1617451533.0393438","7","21","-25","-39","58","28","0.792358","0.001404","-0.609924","0.011902","-0.015267","0.030534","-0.007634","9.213819","-0.575415","2.042065","-0.258398","-0.45459","-0.465356","0.392383","-0.451001","-0.362476"
"V","1617451533.0292482","7","20","-31","-35","57","81","0.792236","0.001831","-0.610107","0.011902","-0.045802","0.015267","0","9.161181","-0.515601","2.075562","-0.312231","-0.400757","-0.428271","0.342139","-0.398364","-0.405542"
"V","1617451533.0194817","7","21","-27","-36","59","31","0.792175","0.002808","-0.610168","0.012085","-0.083969","0.015267","0.007634","9.12649","-0.362476","2.147339","-0.346924","-0.260791","-0.355298","0.260791","-0.258398","-0.42229"
"V","1617451533.0093212","7","22","-29","-35","59","29","0.792114","0.004211","-0.610229","0.012634","-0.099237","0.015267","0.007634","9.134863","-0.173462","2.296875","-0.339746","-0.087329","-0.203369","0.111255","-0.087329","-0.379224"
"V","1617451532.9993358","7","21","-32","-35","59","26","0.791992","0.005554","-0.610352","0.013306","-0.083969","0.007634","0.015267","9.133667","-0.076563","2.436841","-0.342139","-0.003589","-0.059814","-0.028711","-0.005981","-0.345728"
"V","1617451532.9892256","7","21","-31","-34","59","31","0.791931","0.006714","-0.610413","0.013855","-0.068702","0.007634","0.015267","9.148023","-0.076563","2.506226","-0.327783","-0.014355","0.00957","-0.092114","-0.017944","-0.313428"
"V","1617451532.9793005","7","20","-29","-35","57","27","0.791809","0.007568","-0.610596","0.014282","-0.045802","0.007634","0.015267","9.213819","-0.105273","2.583984","-0.26438","-0.05144","0.090918","-0.153125","-0.057422","-0.23208"
"V","1617451532.969382","7","22","-29","-35","59","28","0.791626","0.008118","-0.610779","0.014465","-0.015267","0","0.007634","9.2521","-0.174658","2.615088","-0.226099","-0.126807","0.128003","-0.175854","-0.132788","-0.185425"
"V","1617451532.9594758","7","22","-28","-35","57","32","0.791565","0.008362","-0.61084","0.014404","-0.007634","-0.007634","0","9.220996","-0.252417","2.582788","-0.257202","-0.209351","0.096899","-0.150732","-0.215332","-0.22251"
"V","1617451532.949427","7","22","-31","-32","58","31","0.791565","0.008606","-0.61084","0.014282","-0.015267","-0.007634","0","9.191089","-0.221313","2.552881","-0.287109","-0.183032","0.066992","-0.130396","-0.187817","-0.259595"
"V","1617451532.93935","7","21","-31","-35","57","29","0.791626","0.008972","-0.610779","0.014282","-0.030534","-0.007634","0","9.163574","-0.130396","2.558862","-0.314624","-0.098096","0.071777","-0.144751","-0.102881","-0.284717"
"V","1617451532.929454","7","22","-29","-34","57","30","0.791626","0.009399","-0.610718","0.014404","-0.030534","-0.007634","0.007634","9.139648","-0.017944","2.591162","-0.33855","0.008374","0.102881","-0.185425","0","-0.300269"
"V","1617451532.9192247","7","18","-31","-36","63","24","0.791687","0.009827","-0.610657","0.014526","-0.022901","-0.007634","0.007634","9.114527","0.045459","2.629443","-0.363672","0.065796","0.139966","-0.229687","0.056226","-0.31582"
"V","1617451532.9093738","7","21","-32","-37","57","34","0.791626","0.01001","-0.610779","0.014526","0","0.007634","0.007634","9.109741","0.020337","2.659351","-0.369653","0.038281","0.172266","-0.260791","0.027515","-0.313428"
"V","1617451532.8994074","7","22","-28","-35","58","28","0.791504","0.01001","-0.610962","0.014343","0.015267","0.007634","0.007634","9.131274","-0.023926","2.688061","-0.349316","-0.007178","0.204565","-0.285913","-0.016748","-0.285913"
"V","1617451532.8893776","7","22","-28","-38","58","27","0.79126","0.009888","-0.611206","0.014038","0.015267","0.007634","0.007634","9.14563","-0.039478","2.726343","-0.334961","-0.023926","0.250024","-0.325391","-0.034692","-0.260791"
"V","1617451532.8792517","7","21","-27","-34","59","27","0.791138","0.009766","-0.611389","0.013733","0.015267","-0.007634","0.007634","9.115723","-0.020337","2.727539","-0.367261","-0.007178","0.256006","-0.339746","-0.017944","-0.290698"
"V","1617451532.8695128","7","21","-28","-38","57","30","0.791138","0.009644","-0.61145","0.013367","0.015267","-0.022901","0.007634","9.064282","0.016748","2.696435","-0.418701","0.026318","0.224902","-0.322998","0.014355","-0.34812"
"V","1617451532.8593495","7","22","-28","-35","59","28","0.791199","0.009644","-0.611328","0.013062","0.007634","-0.022901","0.015267","9.048731","0.0646","2.652173","-0.433057","0.070581","0.178247","-0.283521","0.061011","-0.373242"
"V","1617451532.8494787","7","22","-28","-37","58","28","0.791321","0.009705","-0.611206","0.012756","0","-0.022901","0.007634","9.030787","0.129199","2.619873","-0.451001","0.130396","0.143555","-0.256006","0.122021","-0.399561"
"V","1617451532.839421","7","22","-29","-36","60","32","0.791443","0.009766","-0.611023","0.012512","0","-0.015267","0.007634","9.004468","0.187817","2.56604","-0.476123","0.185425","0.084937","-0.208154","0.178247","-0.439038"
"V","1617451532.8294096","7","21","-28","-36","59","29","0.791443","0.009766","-0.611023","0.012329","0.007634","0","0.007634","9.059497","0.224902","2.555274","-0.421094","0.220117","0.07417","-0.184229","0.214136","-0.387598"
"V","1617451532.819349","7","21","-27","-37","57","31","0.79126","0.009644","-0.611267","0.012146","0.015267","0.015267","0.007634","9.143237","0.197388","2.549292","-0.33855","0.192603","0.07417","-0.162695","0.186621","-0.308643"
"V","1617451532.809508","7","21","-27","-34","60","28","0.791016","0.009277","-0.611633","0.011841","0.030534","0.030534","0","9.220996","0.12561","2.542114","-0.263184","0.123218","0.075366","-0.142358","0.118433","-0.235669"
"V","1617451532.7995353","7","21","-29","-36","73","45","0.790649","0.008911","-0.612122","0.011536","0.030534","0.022901","0","9.29397","0.07417","2.532544","-0.193799","0.07417","0.077759","-0.12561","0.069385","-0.16748"
"V","1617451532.7893312","7","22","-26","-37","57","27","0.790344","0.008484","-0.612488","0.01123","0.022901","0.007634","-0.007634","9.333447","0.045459","2.503833","-0.155518","0.047852","0.057422","-0.095703","0.044263","-0.135181"
"V","1617451532.779413","7","22","-27","-33","58","29","0.790161","0.008057","-0.612732","0.010986","0.022901","-0.015267","-0.007634","9.308325","0.025122","2.433252","-0.181836","0.031104","-0.005981","-0.039478","0.028711","-0.177051"
"V","1617451532.769492","7","21","-28","-37","57","29","0.790283","0.007629","-0.612549","0.010864","0.022901","-0.038168","-0.015267","9.220996","-0.010767","2.287305","-0.267969","0.001196","-0.156714","0.08374","0.002393","-0.297876"
"V","1617451532.759469","7","20","-29","-35","61","29","0.790588","0.00708","-0.612183","0.010681","0.030534","-0.030534","-0.015267","9.182714","-0.0646","2.17605","-0.303857","-0.045459","-0.276343","0.191406","-0.040674","-0.362476"
"V","1617451532.7494943","7","20","-27","-36","92","31","0.790894","0.00647","-0.611877","0.010437","0.038168","-0.015267","-0.007634","9.192286","-0.133984","2.093506","-0.293091","-0.108862","-0.367261","0.283521","-0.102881","-0.375635"
"V","1617451532.7396147","7","20","-29","-36","57","31","0.791016","0.00592","-0.611633","0.010132","0.030534","0.007634","-0.007634","9.23894","-0.187817","2.076758","-0.244043","-0.15791","-0.388794","0.318213","-0.150732","-0.332568"
"V","1617451532.7295294","7","21","-31","-37","57","28","0.790955","0.005493","-0.611755","0.009766","0.022901","0.022901","-0.007634","9.328662","-0.184229","2.140161","-0.155518","-0.151929","-0.322998","0.276343","-0.145947","-0.230884"
"V","1617451532.719576","7","21","-31","-38","58","31","0.790771","0.005188","-0.612","0.009521","0.022901","0.022901","0","9.358569","-0.179443","2.219116","-0.126807","-0.144751","-0.238062","0.200977","-0.139966","-0.181836"
"V","1617451532.7094097","7","22","-31","-36","60","28","0.790588","0.005005","-0.612244","0.009216","0.007634","0.022901","0","9.337036","-0.145947","2.274146","-0.150732","-0.112451","-0.178247","0.136377","-0.110059","-0.189014"
"V","1617451532.6995702","7","22","-31","-36","60","31","0.790466","0.005066","-0.612427","0.008972","0","0.007634","0","9.302343","-0.077759","2.330371","-0.186621","-0.047852","-0.117236","0.066992","-0.046655","-0.209351"
"V","1617451532.6895769","7","20","-29","-37","57","29","0.790405","0.005188","-0.612488","0.00885","-0.015267","0","0","9.244922","-0.003589","2.371045","-0.244043","0.021533","-0.075366","0.010767","0.020337","-0.25481"
"V","1617451532.6794713","7","22","-28","-34","61","28","0.790405","0.005371","-0.612549","0.00885","-0.015267","-0.007634","0.007634","9.191089","0.055029","2.369849","-0.299072","0.077759","-0.075366","-0.002393","0.076563","-0.307446"
"V","1617451532.6693196","7","20","-28","-36","123","56","0.790405","0.005493","-0.612488","0.00885","0","-0.007634","0.007634","9.156397","0.066992","2.32439","-0.332568","0.087329","-0.122021","0.0323","0.086133","-0.351709"
"V","1617451532.6594365","7","21","-29","-36","62","30","0.790466","0.005432","-0.612427","0.008789","0.007634","-0.007634","0","9.167163","0.026318","2.253808","-0.321802","0.046655","-0.193799","0.105273","0.047852","-0.360083"
"V","1617451532.6494775","7","22","-27","-36","58","29","0.790405","0.005249","-0.612488","0.008606","0.015267","0.007634","0","9.201856","-0.044263","2.189209","-0.287109","-0.021533","-0.257202","0.177051","-0.017944","-0.342139"
"V","1617451532.6392906","7","21","-29","-34","57","30","0.790344","0.004944","-0.612549","0.008362","0.022901","0.015267","0","9.241333","-0.101685","2.15332","-0.247632","-0.077759","-0.290698","0.220117","-0.07417","-0.311035"
"V","1617451532.6294825","7","22","-28","-35","57","28","0.790222","0.0047","-0.612732","0.008118","0.015267","0.022901","0","9.276026","-0.118433","2.158105","-0.214136","-0.093311","-0.282324","0.221313","-0.089722","-0.276343"
"V","1617451532.619477","7","21","-32","-36","58","29","0.790039","0.004578","-0.612976","0.007935","0.007634","0.022901","0","9.297559","-0.114844","2.213135","-0.193799","-0.089722","-0.221313","0.16748","-0.086133","-0.24165"
"V","1617451532.609615","7","21","-28","-37","58","31","0.789917","0.004517","-0.613159","0.007751","0","0.022901","0","9.297559","-0.107666","2.270557","-0.196191","-0.08374","-0.159106","0.10647","-0.081348","-0.228491"
"V","1617451532.5996647","7","21","-28","-37","57","30","0.789734","0.004639","-0.613342","0.007629","-0.015267","0.015267","0","9.29038","-0.065796","2.355493","-0.203369","-0.045459","-0.069385","0.016748","-0.045459","-0.212939"
"V","1617451532.5896394","7","22","-29","-35","61","30","0.789673","0.004883","-0.613464","0.00769","-0.022901","-0.007634","0","9.232959","0.004785","2.405737","-0.261987","0.021533","-0.016748","-0.047852","0.019141","-0.257202"
"V","1617451532.580084","7","22","-31","-35","60","29","0.789673","0.005127","-0.613403","0.007812","-0.022901","-0.015267","-0.007634","9.150415","0.075366","2.399756","-0.343335","0.089722","-0.023926","-0.062207","0.087329","-0.33855"
"V","1617451532.5702765","7","21","-29","-36","58","31","0.789795","0.00531","-0.613281","0.008057","-0.015267","-0.022901","-0.007634","9.087011","0.111255","2.354297","-0.406738","0.12561","-0.072974","-0.0323","0.123218","-0.411523"
"V","1617451532.5595908","7","20","-32","-36","57","27","0.789917","0.00531","-0.613159","0.008179","0","-0.015267","0","9.087011","0.090918","2.289697","-0.406738","0.10647","-0.139966","0.0323","0.105273","-0.428271"
"V","1617451532.549502","7","22","-27","-35","57","29","0.789917","0.005188","-0.613098","0.008118","0.015267","0","0","9.124097","0.047852","2.232275","-0.368457","0.0646","-0.198584","0.099292","0.065796","-0.405542"
"V","1617451532.5393045","7","22","-28","-36","57","30","0.789917","0.004944","-0.613159","0.007935","0.015267","0.007634","0","9.14563","0.001196","2.173657","-0.34812","0.019141","-0.256006","0.160303","0.020337","-0.400757"
"V","1617451532.5295112","7","22","-27","-36","59","29","0.789795","0.004639","-0.613281","0.00769","0.015267","0.022901","0","9.199463","-0.005981","2.179639","-0.294287","0.014355","-0.247632","0.166284","0.015552","-0.345728"
"V","1617451532.5194817","7","22","-27","-36","58","29","0.789673","0.004517","-0.613464","0.007507","0.007634","0.022901","0","9.24851","-0.004785","2.21792","-0.246436","0.015552","-0.204565","0.136377","0.016748","-0.288306"
"V","1617451532.5094004","7","22","-29","-38","62","29","0.78949","0.004456","-0.613708","0.007446","-0.007634","0.015267","-0.007634","9.243726","0.026318","2.247827","-0.252417","0.046655","-0.168677","0.099292","0.046655","-0.285913"
"V","1617451532.4996605","7","21","-28","-39","59","31","0.789429","0.004578","-0.613831","0.007507","-0.022901","-0.007634","-0.007634","9.200659","0.08374","2.274146","-0.29668","0.102881","-0.139966","0.059814","0.102881","-0.321802"
"V","1617451532.4894226","7","22","-28","-35","58","30","0.789429","0.004761","-0.613708","0.007751","-0.022901","-0.022901","-0.007634","9.139648","0.123218","2.268164","-0.356494","0.142358","-0.14834","0.052637","0.142358","-0.381616"
"V","1617451532.4793608","7","22","-28","-36","58","29","0.789612","0.004944","-0.613525","0.007996","-0.015267","-0.022901","0","9.09419","0.131592","2.221509","-0.400757","0.150732","-0.19978","0.090918","0.150732","-0.437842"
"V","1617451531.2216196","7","21","-31","-39","57","30","0.793579","0.003723","-0.608276","0.012756","-0.007634","-0.022901","-0.015267","9.128881","-0.181836","2.512207","-0.332568","-0.087329","-0.034692","-0.050244","-0.090918","-0.328979"
"V","1617451531.211539","7","22","-31","-35","57","30","0.793701","0.003662","-0.608154","0.012817","-0.007634","-0.007634","-0.007634","9.134863","-0.179443","2.448804","-0.326587","-0.082544","-0.101685","0.014355","-0.084937","-0.340942"
"V","1617451531.2014458","7","22","-29","-35","58","21","0.793701","0.003601","-0.608154","0.012878","0.007634","0.007634","0","9.173144","-0.206958","2.396167","-0.288306","-0.108862","-0.154321","0.076563","-0.110059","-0.317017"
"V","1617451531.1914766","7","22","-27","-36","60","31","0.793579","0.00354","-0.608337","0.012756","0","0.022901","0","9.203052","-0.244043","2.369849","-0.259595","-0.145947","-0.175854","0.105273","-0.145947","-0.294287"
"V","1617451531.18149","7","21","-32","-36","58","29","0.793396","0.003784","-0.608582","0.012512","-0.015267","0.030534","0.007634","9.230566","-0.186621","2.406934","-0.233276","-0.095703","-0.132788","0.069385","-0.095703","-0.258398"
"V","1617451531.171261","7","22","-29","-36","59","33","0.793152","0.00415","-0.608887","0.012451","-0.022901","0.030534","0.007634","9.230566","-0.070581","2.485889","-0.235669","0.013159","-0.046655","-0.015552","0.00957","-0.239258"
"V","1617451531.1612782","7","22","-31","-38","57","31","0.792847","0.004517","-0.609253","0.012512","-0.022901","0.022901","0.007634","9.218603","0.029907","2.555274","-0.250024","0.108862","0.031104","-0.096899","0.104077","-0.233276"
"V","1617451531.1513922","7","22","-31","-36","59","33","0.792542","0.004761","-0.609619","0.012573","-0.007634","0.015267","0","9.193481","0.070581","2.592358","-0.276343","0.145947","0.076563","-0.14834","0.139966","-0.247632"
"V","1617451531.141435","7","21","-32","-36","57","31","0.792358","0.004761","-0.609863","0.012634","0.007634","-0.007634","0","9.119311","0.029907","2.558862","-0.352905","0.10647","0.049048","-0.139966","0.099292","-0.328979"
"V","1617451531.131667","7","21","-29","-38","60","28","0.792358","0.004456","-0.609924","0.012512","0.022901","-0.022901","-0.007634","9.021215","-0.059814","2.454785","-0.451001","0.020337","-0.052637","-0.0646","0.014355","-0.448608"
"V","1617451531.121328","7","22","-31","-38","60","33","0.79248","0.004028","-0.609802","0.012268","0.022901","-0.015267","-0.007634","9.000879","-0.131592","2.348315","-0.471338","-0.046655","-0.162695","0.037085","-0.049048","-0.49646"
"V","1617451531.1114316","7","21","-31","-38","58","29","0.79248","0.003662","-0.609741","0.012024","0.015267","0","0","9.051123","-0.162695","2.286108","-0.419897","-0.075366","-0.226099","0.112451","-0.076563","-0.462964"
"V","1617451531.1015923","7","21","-28","-36","60","29","0.792419","0.003418","-0.609802","0.011841","0.015267","0.007634","-0.007634","9.12649","-0.173462","2.277734","-0.344531","-0.084937","-0.23208","0.137573","-0.084937","-0.391187"
"V","1617451531.0915096","7","22","-31","-37","59","32","0.792297","0.003235","-0.609985","0.011658","0.007634","0.015267","-0.007634","9.148023","-0.173462","2.274146","-0.324194","-0.08374","-0.23208","0.142358","-0.08374","-0.37085"
"V","1617451531.0821648","7","21","-29","-35","58","29","0.792236","0.003174","-0.610107","0.011536","0","0.015267","-0.007634","9.17793","-0.153125","2.294482","-0.295483","-0.063403","-0.209351","0.128003","-0.063403","-0.33855"
"V","1617451531.0717006","7","20","-29","-38","62","27","0.792114","0.003235","-0.610291","0.011475","-0.007634","0.015267","-0.007634","9.230566","-0.104077","2.373437","-0.244043","-0.016748","-0.12561","0.058618","-0.016748","-0.266772"
"V","1617451531.0615575","7","21","-31","-38","57","31","0.791931","0.003357","-0.610474","0.011536","-0.015267","0.007634","0","9.242529","-0.043066","2.44043","-0.233276","0.04187","-0.053833","-0.007178","0.039478","-0.239258"
"V","1617451531.051403","7","20","-32","-35","57","29","0.791931","0.003479","-0.610535","0.011597","-0.015267","-0.007634","0","9.200659","-0.016748","2.455981","-0.276343","0.066992","-0.038281","-0.034692","0.063403","-0.277539"
"V","1617451531.041367","7","20","-29","-36","58","30","0.791992","0.003662","-0.610413","0.011658","-0.015267","-0.015267","0","9.173144","-0.00957","2.472729","-0.302661","0.072974","-0.023926","-0.055029","0.068188","-0.299072"
"V","1617451531.031694","7","24","-31","-39","57","29","0.792114","0.003784","-0.610229","0.011658","-0.007634","-0.022901","0.007634","9.139648","-0.026318","2.455981","-0.334961","0.053833","-0.044263","-0.043066","0.049048","-0.334961"
"V","1617451531.02154","7","22","-31","-37","58","28","0.792297","0.003784","-0.609985","0.011597","0","-0.022901","0","9.1229","-0.065796","2.432056","-0.349316","0.013159","-0.07417","-0.016748","0.00957","-0.356494"
"V","1617451531.011551","7","21","-33","-39","57","27","0.79248","0.003784","-0.609741","0.011536","0","-0.022901","0","9.124097","-0.08374","2.409326","-0.346924","-0.003589","-0.102881","0.00957","-0.005981","-0.361279"
"V","1617451531.0013402","7","22","-28","-36","57","30","0.792664","0.003784","-0.609558","0.011414","-0.007634","-0.015267","0","9.1552","-0.08374","2.409326","-0.31582","-0.005981","-0.107666","0.022729","-0.007178","-0.332568"
"V","1617451530.992221","7","22","-31","-37","60","28","0.792725","0.003845","-0.609436","0.011353","-0.007634","-0.015267","0","9.189893","-0.08374","2.416504","-0.279932","-0.007178","-0.102881","0.027515","-0.008374","-0.29668"
"V","1617451530.9816113","7","21","-31","-38","57","30","0.792847","0.003967","-0.609314","0.011353","-0.007634","-0.007634","0","9.207837","-0.077759","2.423682","-0.260791","-0.003589","-0.099292","0.028711","-0.004785","-0.276343"
"V","1617451530.9713356","7","21","-32","-36","57","30","0.792908","0.004028","-0.609253","0.011353","-0.007634","-0.007634","0","9.215014","-0.08374","2.429663","-0.253613","-0.010767","-0.094507","0.025122","-0.011963","-0.269165"
"V","1617451530.9616432","7","21","-32","-37","60","29","0.792908","0.00415","-0.609192","0.011353","-0.007634","0","0","9.241333","-0.099292","2.432056","-0.226099","-0.027515","-0.093311","0.0323","-0.027515","-0.24165"
"V","1617451530.9512973","7","21","-29","-36","58","26","0.792908","0.004272","-0.609192","0.011353","-0.007634","0","0","9.268847","-0.100488","2.439233","-0.198584","-0.031104","-0.086133","0.0323","-0.031104","-0.212939"
"V","1617451530.9421582","7","22","-32","-36","57","28","0.792847","0.004333","-0.609253","0.011292","0","0.007634","-0.007634","9.304736","-0.095703","2.460767","-0.162695","-0.027515","-0.062207","0.017944","-0.027515","-0.172266"
"V","1617451530.932176","7","21","-31","-36","60","28","0.792786","0.004272","-0.609375","0.011292","0","0","-0.007634","9.29397","-0.102881","2.465552","-0.174658","-0.033496","-0.055029","0.008374","-0.033496","-0.181836"
"V","1617451530.921429","7","22","-31","-34","57","28","0.792786","0.004211","-0.609314","0.01123","0","-0.007634","-0.007634","9.24851","-0.105273","2.442822","-0.220117","-0.035889","-0.078955","0.020337","-0.035889","-0.23208"
"V","1617451530.9115615","7","22","-32","-38","57","23","0.792908","0.004211","-0.609253","0.01123","-0.007634","-0.007634","0","9.222193","-0.081348","2.44043","-0.246436","-0.011963","-0.08374","0.016748","-0.013159","-0.259595"
"V","1617451530.902251","7","21","-31","-52","57","31","0.792908","0.004272","-0.609192","0.01123","-0.007634","0","-0.007634","9.231763","-0.046655","2.465552","-0.235669","0.020337","-0.059814","-0.002393","0.017944","-0.242847"
"V","1617451530.892159","7","19","-31","-36","57","28","0.792908","0.004333","-0.609192","0.011292","-0.007634","0","-0.007634","9.23894","-0.033496","2.493066","-0.228491","0.033496","-0.0323","-0.027515","0.031104","-0.228491"
"V","1617451530.882151","7","22","-29","-35","62","31","0.792908","0.004272","-0.609192","0.011414","0","-0.007634","-0.007634","9.211426","-0.052637","2.495459","-0.256006","0.016748","-0.029907","-0.037085","0.013159","-0.25481"
"V","1617451530.8723054","7","20","-29","-35","57","29","0.792969","0.004211","-0.609131","0.011475","0","-0.015267","-0.007634","9.16477","-0.07417","2.487085","-0.302661","-0.002393","-0.039478","-0.039478","-0.004785","-0.301465"
"V","1617451530.862211","7","22","-31","-38","57","29","0.79303","0.004089","-0.609009","0.011475","0","-0.007634","-0.007634","9.1229","-0.088525","2.478711","-0.343335","-0.014355","-0.050244","-0.039478","-0.016748","-0.343335"
"V","1617451530.8522055","7","20","-31","-35","59","29","0.79303","0.004028","-0.609009","0.011536","-0.007634","0","-0.007634","9.133667","-0.069385","2.506226","-0.332568","0.004785","-0.022729","-0.063403","0","-0.326587"
"V","1617451530.8421762","7","19","-29","-38","58","27","0.79303","0.004089","-0.60907","0.011597","-0.007634","0","0","9.14563","-0.052637","2.521777","-0.321802","0.021533","-0.005981","-0.076563","0.016748","-0.312231"
"V","1617451530.8321154","7","19","-31","-38","61","28","0.792908","0.00415","-0.609192","0.011597","-0.007634","0","0","9.133667","-0.059814","2.506226","-0.333765","0.013159","-0.019141","-0.066992","0.008374","-0.326587"
"V","1617451530.8221138","7","18","-32","-37","57","27","0.792847","0.004211","-0.609253","0.011658","0","0","0","9.131274","-0.102881","2.470337","-0.337354","-0.028711","-0.052637","-0.034692","-0.031104","-0.33855"
"V","1617451530.812528","7","22","-33","-39","57","29","0.792786","0.00415","-0.609375","0.011597","0","0","-0.007634","9.130078","-0.14834","2.416504","-0.33855","-0.07417","-0.104077","0.014355","-0.075366","-0.352905"
"V","1617451530.80224","7","19","-28","-38","65","39","0.792725","0.004089","-0.609436","0.011597","-0.007634","0","-0.007634","9.134863","-0.163892","2.371045","-0.334961","-0.088525","-0.14834","0.058618","-0.089722","-0.360083"
"V","1617451530.7922451","7","21","-32","-40","57","27","0.792725","0.00415","-0.609497","0.011658","-0.007634","0","-0.007634","9.142041","-0.156714","2.341138","-0.327783","-0.081348","-0.177051","0.088525","-0.081348","-0.361279"
"V","1617451530.782265","7","20","-30","-37","57","31","0.792664","0.004272","-0.609497","0.011719","-0.015267","0","-0.007634","9.152807","-0.12561","2.337549","-0.317017","-0.05144","-0.179443","0.092114","-0.05144","-0.351709"
"V","1617451530.7721877","7","21","-31","-38","57","29","0.792664","0.004456","-0.609497","0.01178","-0.015267","0","-0.007634","9.142041","-0.089722","2.342334","-0.327783","-0.017944","-0.174658","0.084937","-0.017944","-0.361279"
"V","1617451530.7623496","7","22","-30","-38","57","32","0.792725","0.004639","-0.609497","0.011841","-0.007634","0","0","9.116919","-0.040674","2.350708","-0.354102","0.027515","-0.16748","0.069385","0.026318","-0.385205"
"V","1617451530.751632","7","21","-31","-39","60","28","0.792725","0.0047","-0.609436","0.011902","0","0","0","9.115723","-0.010767","2.360278","-0.354102","0.057422","-0.159106","0.061011","0.056226","-0.382812"
"V","1617451530.7422094","7","22","-28","-36","57","28","0.792664","0.004578","-0.609558","0.011841","0.015267","0.015267","0","9.159986","-0.020337","2.397363","-0.311035","0.049048","-0.119629","0.033496","0.046655","-0.331372"
"V","1617451530.7320547","7","22","-28","-35","58","30","0.79248","0.004395","-0.609741","0.011597","0.015267","0.007634","0","9.20664","-0.055029","2.421289","-0.26438","0.014355","-0.090918","0.019141","0.011963","-0.278735"
"V","1617451530.722291","7","22","-33","-36","59","27","0.792419","0.00415","-0.609863","0.011353","0.007634","-0.007634","0","9.211426","-0.075366","2.418896","-0.260791","-0.003589","-0.090918","0.020337","-0.004785","-0.275146"
"V","1617451530.7122867","7","21","-28","-38","57","29","0.79248","0.00415","-0.609802","0.011108","-0.007634","-0.015267","0","9.185107","-0.035889","2.399756","-0.287109","0.0323","-0.111255","0.0323","0.029907","-0.30625"
"V","1617451530.7022443","7","22","-31","-37","61","29","0.792603","0.004272","-0.609619","0.011047","-0.015267","-0.022901","0","9.159986","0.015552","2.387793","-0.311035","0.080151","-0.126807","0.040674","0.077759","-0.332568"
"V","1617451530.6923044","7","21","-33","-38","60","31","0.792786","0.004395","-0.609375","0.011169","-0.015267","-0.022901","0","9.167163","0.050244","2.3854","-0.301465","0.114844","-0.135181","0.050244","0.113647","-0.326587"
"V","1617451530.6822317","7","21","-28","-39","59","28","0.792908","0.004456","-0.609192","0.01123","-0.007634","-0.015267","0","9.193481","0.020337","2.362671","-0.27395","0.084937","-0.162695","0.08374","0.08374","-0.30625"
"V","1617451530.6721325","7","22","-38","-36","58","28","0.79303","0.004395","-0.60907","0.01123","0","-0.007634","0","9.234156","-0.04187","2.363867","-0.233276","0.022729","-0.163892","0.096899","0.022729","-0.266772"
"V","1617451530.6623404","7","21","-32","-36","57","29","0.793152","0.004333","-0.608948","0.011169","0","-0.007634","0","9.256885","-0.072974","2.394971","-0.210547","-0.005981","-0.136377","0.076563","-0.004785","-0.238062"
"V","1617451530.6523137","7","21","-33","-39","57","29","0.793213","0.004333","-0.608826","0.011169","-0.007634","0","-0.007634","9.266455","-0.072974","2.454785","-0.19978","-0.005981","-0.078955","0.023926","-0.005981","-0.212939"
"V","1617451530.6422508","7","21","-31","-6","58","29","0.793274","0.004456","-0.608765","0.011292","-0.022901","0","-0.007634","9.299952","-0.058618","2.546899","-0.165088","0.005981","0.00957","-0.05144","0.003589","-0.156714"
"V","1617451530.632414","7","22","-31","-35","60","31","0.793274","0.004578","-0.608704","0.011536","-0.022901","-0.015267","-0.015267","9.282007","-0.045459","2.618677","-0.183032","0.020337","0.081348","-0.12561","0.015552","-0.155518"
"V","1617451530.6223028","7","22","-31","-39","58","29","0.793396","0.004639","-0.608582","0.011841","-0.015267","-0.030534","-0.015267","9.212622","-0.068188","2.604321","-0.251221","0","0.063403","-0.12561","-0.003589","-0.226099"
"V","1617451530.6122549","7","19","-31","-39","57","26","0.79364","0.004517","-0.608276","0.012146","0","-0.038168","-0.015267","9.162378","-0.133984","2.546899","-0.300269","-0.058618","0","-0.075366","-0.062207","-0.288306"
"V","1617451530.6023364","7","22","-31","-39","57","27","0.793884","0.004272","-0.60791","0.012207","0.007634","-0.030534","-0.007634","9.154004","-0.203369","2.485889","-0.305054","-0.123218","-0.069385","-0.008374","-0.12561","-0.311035"
