"Alphabet","timestamp","user_id","flex_1","flex_2","flex_3","flex_4","flex_5","Qw","Qx","Qy","Qz","GYRx","GYRy","GYRz","ACCx","ACCy","ACCz","ACCx_body","ACCy_body","ACCz_body","ACCx_world","ACCy_world","ACCz_world"
"W","1617451603.840191","7","46","-16","-24","-24","68","0.798767","0.095276","-0.593994","0.008057","0.007634","0.007634","-0.007634","9.157593","1.269263","2.67251","-0.156714","-0.128003","-0.033496","0.001196","-0.104077","-0.175854"
"W","1617451603.8301923","7","48","-15","-26","-26","65","0.798706","0.095154","-0.594116","0.007935","0.007634","0.007634","0","9.165967","1.264477","2.659351","-0.14834","-0.131592","-0.044263","0.014355","-0.10647","-0.171069"
"W","1617451603.821043","7","44","-15","-24","-38","69","0.798584","0.095093","-0.594238","0.007812","0.007634","0.007634","0","9.167163","1.280029","2.650977","-0.14834","-0.117236","-0.050244","0.017944","-0.090918","-0.171069"
"W","1617451603.810382","7","48","-16","-27","-32","68","0.798523","0.095093","-0.59436","0.00769","0","0.007634","-0.007634","9.159986","1.30874","2.655762","-0.155518","-0.089722","-0.043066","0.005981","-0.0646","-0.172266"
"W","1617451603.8011007","7","46","-15","-26","-24","68","0.798462","0.095093","-0.594421","0.007629","-0.007634","0","-0.007634","9.159986","1.338647","2.650977","-0.156714","-0.059814","-0.045459","0.003589","-0.034692","-0.169873"
"W","1617451603.7902174","7","45","-17","-26","-24","71","0.798401","0.095093","-0.594543","0.007629","-0.007634","0","-0.007634","9.150415","1.366162","2.648584","-0.16748","-0.0323","-0.045459","-0.001196","-0.007178","-0.175854"
"W","1617451603.7803812","7","43","-17","-26","-28","63","0.79834","0.095093","-0.594604","0.007751","-0.007634","0","-0.007634","9.149219","1.381714","2.637817","-0.168677","-0.015552","-0.055029","0.003589","0.00957","-0.177051"
"W","1617451603.771037","7","45","-19","-28","-24","67","0.798279","0.095093","-0.594666","0.007874","-0.007634","0","-0.015267","9.133667","1.376929","2.637817","-0.184229","-0.019141","-0.052637","-0.001196","0.007178","-0.191406"
"W","1617451603.760905","7","48","-19","-26","-26","64","0.798279","0.094971","-0.594666","0.007996","0","0","-0.007634","9.132471","1.339844","2.639014","-0.186621","-0.052637","-0.052637","0.001196","-0.023926","-0.198584"
"W","1617451603.7503989","7","48","-15","-27","-28","68","0.798279","0.094788","-0.594727","0.007996","0","0","-0.007634","9.159986","1.31831","2.650977","-0.159106","-0.070581","-0.039478","0","-0.046655","-0.171069"
"W","1617451603.7409537","7","45","-17","-24","-25","68","0.798218","0.094727","-0.594788","0.007935","0","0","-0.007634","9.157593","1.325488","2.643799","-0.161499","-0.063403","-0.045459","0.003589","-0.038281","-0.174658"
"W","1617451603.730839","7","45","-18","-23","-27","68","0.798218","0.094666","-0.594849","0.007874","0","0","-0.007634","9.139648","1.345825","2.63064","-0.18064","-0.043066","-0.057422","0.005981","-0.014355","-0.192603"
"W","1617451603.720562","7","45","-17","-28","-25","69","0.798157","0.094604","-0.59491","0.007812","0","0","-0.007634","9.125293","1.369751","2.623462","-0.194995","-0.017944","-0.063403","0.004785","0.011963","-0.204565"
"W","1617451603.7102354","7","48","-15","-24","-26","65","0.798096","0.094604","-0.594971","0.007812","0","0","0","9.119311","1.391284","2.616284","-0.200977","0.002393","-0.069385","0.005981","0.033496","-0.209351"
"W","1617451603.7002158","7","44","-17","-27","-26","68","0.798096","0.094543","-0.595032","0.007751","0","0","0","9.119311","1.408032","2.605518","-0.202173","0.019141","-0.078955","0.013159","0.05144","-0.210547"
"W","1617451603.6903389","7","46","-15","-28","-21","70","0.798035","0.094543","-0.595093","0.007751","0","0.007634","-0.007634","9.120508","1.427173","2.604321","-0.200977","0.038281","-0.078955","0.010767","0.069385","-0.206958"
"W","1617451603.6810975","7","44","-16","-26","-28","63","0.797974","0.094421","-0.595215","0.007751","0","0.007634","-0.007634","9.134863","1.429565","2.605518","-0.187817","0.043066","-0.075366","0.010767","0.072974","-0.192603"
"W","1617451603.671099","7","43","-19","-28","-28","65","0.797852","0.094299","-0.595398","0.007751","0.007634","0.015267","-0.007634","9.1552","1.399658","2.610303","-0.169873","0.014355","-0.066992","0.011963","0.040674","-0.177051"
"W","1617451603.660896","7","44","-16","-26","-28","65","0.797668","0.094055","-0.595642","0.00769","0.007634","0.015267","-0.007634","9.188696","1.35061","2.611499","-0.137573","-0.029907","-0.059814","0.020337","-0.005981","-0.150732"
"W","1617451603.6509914","7","47","-16","-26","-24","67","0.797485","0.093872","-0.595947","0.007568","0.007634","0.022901","0","9.220996","1.313525","2.611499","-0.107666","-0.0646","-0.053833","0.027515","-0.043066","-0.12561"
"W","1617451603.6410873","7","43","-15","-26","-28","65","0.797241","0.09375","-0.596313","0.007324","0.007634","0.022901","0","9.220996","1.295581","2.601929","-0.110059","-0.08374","-0.056226","0.031104","-0.062207","-0.131592"
"W","1617451603.630974","7","47","-17","-29","-25","69","0.796997","0.093689","-0.596619","0.007141","0","0.022901","0","9.212622","1.311133","2.591162","-0.119629","-0.068188","-0.059814","0.029907","-0.045459","-0.13877"
"W","1617451603.6209986","7","45","-16","-22","-25","68","0.796814","0.093628","-0.596924","0.007019","0","0.015267","0","9.193481","1.309937","2.591162","-0.141162","-0.069385","-0.052637","0.017944","-0.045459","-0.15791"
"W","1617451603.6109326","7","42","-17","-29","-28","67","0.79657","0.093567","-0.597168","0.006897","0","0.015267","-0.007634","9.165967","1.303955","2.574414","-0.169873","-0.075366","-0.063403","0.020337","-0.046655","-0.189014"
"W","1617451603.6008708","7","44","-18","-28","-28","69","0.796448","0.093506","-0.597412","0.006775","0.007634","0.015267","-0.007634","9.139648","1.297974","2.550488","-0.198584","-0.081348","-0.082544","0.031104","-0.046655","-0.22251"
"W","1617451603.5908778","7","44","-17","-27","-27","64","0.796326","0.093384","-0.597595","0.006653","0.007634","0.007634","-0.007634","9.112134","1.293188","2.545703","-0.227295","-0.086133","-0.08374","0.025122","-0.047852","-0.250024"
"W","1617451603.5810142","7","45","-17","-24","-28","67","0.796204","0.093262","-0.597717","0.006531","0.007634","0.007634","0","9.09419","1.278833","2.536133","-0.245239","-0.099292","-0.089722","0.026318","-0.058618","-0.271558"
"W","1617451603.5709815","7","47","-16","-27","-28","71","0.796082","0.09314","-0.5979","0.006409","0.007634","0.007634","0","9.101367","1.270459","2.532544","-0.239258","-0.107666","-0.089722","0.029907","-0.066992","-0.266772"
"W","1617451603.561061","7","45","-20","-28","-25","65","0.795959","0.093079","-0.598083","0.006287","0","0.015267","0","9.13606","1.263281","2.544507","-0.205762","-0.114844","-0.07417","0.025122","-0.080151","-0.23208"
"W","1617451603.5510902","7","45","-17","-24","-26","69","0.795837","0.093079","-0.598328","0.006104","0","0.015267","0","9.16477","1.274048","2.558862","-0.178247","-0.105273","-0.055029","0.014355","-0.076563","-0.198584"
"W","1617451603.5410352","7","47","-15","-28","-24","68","0.795593","0.093201","-0.598511","0.00592","-0.007634","0.015267","0","9.173144","1.306348","2.561255","-0.169873","-0.076563","-0.045459","0.003589","-0.050244","-0.184229"
"W","1617451603.5311215","7","44","-18","-28","-26","70","0.795471","0.093384","-0.598755","0.005859","-0.007634","0.015267","0","9.169556","1.344629","2.56604","-0.175854","-0.04187","-0.035889","-0.00957","-0.016748","-0.183032"
"W","1617451603.521145","7","45","-16","-26","-25","67","0.795288","0.093506","-0.598938","0.005859","-0.007634","0.007634","0","9.151611","1.357788","2.574414","-0.194995","-0.029907","-0.022729","-0.028711","-0.004785","-0.196191"
"W","1617451603.5109572","7","47","-17","-26","-25","67","0.795166","0.093628","-0.59906","0.005798","0","0","-0.007634","9.118115","1.35061","2.563648","-0.228491","-0.039478","-0.029907","-0.031104","-0.00957","-0.230884"
"W","1617451603.5010664","7","45","-33","-26","-32","65","0.795166","0.093567","-0.599121","0.005798","0","-0.007634","-0.007634","9.078638","1.347021","2.534936","-0.269165","-0.043066","-0.057422","-0.015552","-0.004785","-0.277539"
"W","1617451603.4911382","7","48","-19","-28","-28","67","0.795166","0.093506","-0.599121","0.005798","0","-0.007634","-0.007634","9.067871","1.345825","2.522974","-0.279932","-0.043066","-0.069385","-0.007178","-0.002393","-0.290698"
"W","1617451603.4809504","7","48","-16","-24","-23","67","0.795227","0.093384","-0.59906","0.005737","0","-0.007634","0","9.063086","1.345825","2.511011","-0.283521","-0.04187","-0.08374","0.003589","0","-0.297876"
"W","1617451603.471167","7","45","-17","-26","-29","63","0.795227","0.093323","-0.598999","0.005676","0","0","-0.007634","9.06189","1.358984","2.494263","-0.284717","-0.028711","-0.101685","0.019141","0.016748","-0.301465"
"W","1617451603.461188","7","44","-17","-27","-27","68","0.795227","0.093323","-0.59906","0.005615","0","0","0","9.08462","1.367358","2.501441","-0.261987","-0.020337","-0.093311","0.016748","0.020337","-0.276343"
"W","1617451603.450986","7","45","-16","-26","-27","65","0.795227","0.093323","-0.59906","0.005615","-0.007634","0","0","9.118115","1.372144","2.501441","-0.228491","-0.015552","-0.093311","0.025122","0.021533","-0.244043"
"W","1617451603.441113","7","47","-17","-26","-24","67","0.795166","0.093323","-0.599121","0.005554","-0.007634","0","0","9.156397","1.366162","2.509815","-0.19021","-0.022729","-0.08374","0.028711","0.00957","-0.205762"
"W","1617451603.43116","7","44","-17","-28","-26","65","0.795105","0.093384","-0.599243","0.005554","-0.007634","0","0","9.195874","1.368555","2.522974","-0.151929","-0.020337","-0.068188","0.023926","0.005981","-0.165088"
"W","1617451603.4214633","7","45","-15","-24","-24","66","0.795044","0.093384","-0.599304","0.005554","0","0","-0.007634","9.223389","1.357788","2.530151","-0.12561","-0.031104","-0.058618","0.023926","-0.008374","-0.13877"
"W","1617451603.4109683","7","47","-16","-28","-29","68","0.795044","0.093384","-0.599304","0.005554","0","-0.007634","-0.007634","9.23894","1.336255","2.526562","-0.110059","-0.052637","-0.062207","0.033496","-0.029907","-0.128003"
"W","1617451603.4012249","7","50","-17","-26","-21","69","0.795044","0.093262","-0.599304","0.005554","0","-0.007634","-0.007634","9.23894","1.317114","2.531348","-0.110059","-0.070581","-0.057422","0.031104","-0.049048","-0.129199"
"W","1617451603.391183","7","43","-19","-27","-26","68","0.795166","0.09314","-0.599182","0.005554","0","-0.015267","-0.007634","9.231763","1.323096","2.546899","-0.11604","-0.062207","-0.045459","0.017944","-0.04187","-0.130396"
"W","1617451603.3810928","7","46","-13","-27","-26","69","0.795288","0.09314","-0.598999","0.005554","0","-0.015267","0","9.21023","1.342236","2.572021","-0.136377","-0.044263","-0.025122","-0.008374","-0.025122","-0.142358"
"W","1617451603.3712647","7","47","-15","-26","-25","69","0.79541","0.09314","-0.598877","0.005493","-0.007634","-0.015267","0","9.188696","1.370947","2.597144","-0.156714","-0.015552","-0.002393","-0.039478","0.001196","-0.151929"
"W","1617451603.3612418","7","44","-15","-24","-25","68","0.795471","0.093262","-0.598694","0.005493","-0.015267","-0.015267","0","9.176733","1.416406","2.637817","-0.16748","0.026318","0.033496","-0.081348","0.037085","-0.145947"
"W","1617451603.3510656","7","44","-17","-27","-29","64","0.795532","0.093445","-0.598572","0.005554","-0.015267","-0.007634","0","9.169556","1.459473","2.666528","-0.173462","0.066992","0.059814","-0.113647","0.07417","-0.13877"
"W","1617451603.3411226","7","45","-18","-28","-27","67","0.795593","0.093567","-0.598572","0.005676","-0.015267","-0.007634","0","9.159986","1.481006","2.658154","-0.184229","0.088525","0.05144","-0.111255","0.096899","-0.14834"
"W","1617451603.3310988","7","51","-16","-27","-24","67","0.795593","0.093628","-0.598511","0.005798","-0.007634","-0.007634","-0.007634","9.13606","1.464258","2.635425","-0.206958","0.071777","0.027515","-0.093311","0.087329","-0.179443"
"W","1617451603.3212838","7","45","-19","-26","-24","65","0.795654","0.093567","-0.59845","0.005859","0","-0.007634","-0.007634","9.124097","1.42478","2.616284","-0.218921","0.033496","0.007178","-0.072974","0.053833","-0.200977"
"W","1617451603.3112469","7","44","-17","-24","-24","65","0.795654","0.093567","-0.59845","0.005859","0","-0.007634","-0.007634","9.104956","1.409229","2.595947","-0.238062","0.017944","-0.011963","-0.057422","0.043066","-0.227295"
"W","1617451603.3011436","7","44","-17","-27","-28","67","0.795654","0.093567","-0.59845","0.005859","-0.007634","0","0","9.085815","1.414014","2.580395","-0.257202","0.022729","-0.027515","-0.049048","0.052637","-0.248828"
"W","1617451603.291432","7","47","-17","-26","-23","69","0.795593","0.093567","-0.598511","0.005859","-0.007634","0","0","9.08103","1.404443","2.560059","-0.261987","0.013159","-0.046655","-0.031104","0.046655","-0.259595"
"W","1617451603.2811067","7","44","-15","-28","-26","69","0.795532","0.093567","-0.598633","0.005859","-0.007634","0.015267","0","9.100171","1.400854","2.537329","-0.244043","0.00957","-0.066992","-0.005981","0.044263","-0.248828"
"W","1617451603.2713","7","43","-16","-26","-28","65","0.795349","0.093567","-0.598877","0.005859","-0.007634","0.022901","-0.007634","9.144434","1.396069","2.531348","-0.200977","0.005981","-0.066992","0.005981","0.035889","-0.208154"
"W","1617451603.2610817","7","48","-15","-26","-25","69","0.795044","0.093567","-0.599243","0.00592","0","0.022901","-0.007634","9.207837","1.369751","2.508618","-0.139966","-0.017944","-0.081348","0.039478","0.008374","-0.156714"
"W","1617451603.2511327","7","47","-19","-26","-26","65","0.7948","0.093506","-0.599609","0.005859","0.007634","0.022901","-0.007634","9.247314","1.324292","2.487085","-0.104077","-0.063403","-0.094507","0.068188","-0.035889","-0.132788"
"W","1617451603.2412536","7","47","-16","-24","-25","65","0.794556","0.093323","-0.599915","0.005798","0.007634","0.015267","-0.007634","9.244922","1.287207","2.477515","-0.107666","-0.096899","-0.096899","0.072974","-0.068188","-0.141162"
"W","1617451603.2313175","7","44","-16","-26","-28","67","0.794434","0.093201","-0.600159","0.005676","0.007634","0.007634","-0.007634","9.213819","1.271655","2.477515","-0.141162","-0.112451","-0.092114","0.061011","-0.081348","-0.174658"
"W","1617451603.2213995","7","45","-15","-26","-25","69","0.794312","0.093079","-0.600281","0.005615","0.007634","0.007634","-0.007634","9.181519","1.275244","2.464355","-0.173462","-0.107666","-0.101685","0.061011","-0.071777","-0.206958"
"W","1617451603.211065","7","42","-20","-28","-41","65","0.79425","0.092896","-0.600403","0.005554","0.007634","0","-0.007634","9.163574","1.272852","2.454785","-0.192603","-0.107666","-0.110059","0.063403","-0.068188","-0.227295"
"W","1617451603.2013712","7","45","-16","-26","-26","70","0.79425","0.092773","-0.600464","0.005493","0.007634","0","-0.007634","9.154004","1.268066","2.45","-0.203369","-0.111255","-0.113647","0.0646","-0.070581","-0.239258"
"W","1617451603.191191","7","45","-16","-22","-24","67","0.79425","0.09259","-0.600464","0.005493","0.007634","0","-0.007634","9.149219","1.252515","2.463159","-0.208154","-0.123218","-0.101685","0.052637","-0.08374","-0.24165"
"W","1617451603.181332","7","45","-17","-28","-27","68","0.794189","0.092468","-0.600525","0.005493","0","0","-0.007634","9.167163","1.230981","2.483496","-0.19021","-0.143555","-0.078955","0.038281","-0.108862","-0.221313"
"W","1617451603.1713712","7","48","-19","-27","-25","63","0.794189","0.092407","-0.600525","0.005432","0","-0.007634","-0.007634","9.17793","1.230981","2.497852","-0.179443","-0.142358","-0.065796","0.028711","-0.111255","-0.208154"
"W","1617451603.161179","7","44","-16","-26","-26","69","0.79425","0.092529","-0.600464","0.005371","-0.007634","-0.007634","-0.007634","9.150415","1.286011","2.502637","-0.205762","-0.090918","-0.062207","0.011963","-0.058618","-0.224902"
"W","1617451603.1512976","7","44","-17","-24","-28","65","0.794312","0.092651","-0.600403","0.005432","-0.015267","-0.015267","-0.007634","9.124097","1.339844","2.506226","-0.23208","-0.038281","-0.059814","-0.002393","-0.003589","-0.24165"
"W","1617451603.1414125","7","48","-17","-28","-25","69","0.794373","0.092712","-0.600281","0.005554","-0.007634","-0.007634","-0.007634","9.110937","1.364966","2.513403","-0.245239","-0.013159","-0.055029","-0.014355","0.020337","-0.250024"
"W","1617451603.131327","7","44","-17","-28","-28","68","0.794434","0.092651","-0.60022","0.005615","0","-0.007634","-0.007634","9.138453","1.34104","2.520581","-0.216528","-0.034692","-0.049048","-0.00957","-0.003589","-0.223706"
"W","1617451603.1213014","7","48","-17","-26","-26","68","0.794434","0.09259","-0.60022","0.005676","0","0","-0.007634","9.188696","1.300366","2.522974","-0.16748","-0.07417","-0.046655","0.005981","-0.047852","-0.181836"
"W","1617451603.1113791","7","45","-15","-27","-29","64","0.794373","0.092407","-0.600281","0.005615","0.007634","0","-0.007634","9.213819","1.271655","2.520581","-0.142358","-0.100488","-0.047852","0.016748","-0.076563","-0.161499"
"W","1617451603.1011295","7","49","-15","-24","-26","65","0.794373","0.092285","-0.600342","0.005493","0.007634","0","-0.007634","9.213819","1.254907","2.520581","-0.142358","-0.117236","-0.047852","0.019141","-0.093311","-0.163892"
"W","1617451603.0912738","7","43","-19","-27","-26","69","0.794373","0.092224","-0.600342","0.005371","0","-0.007634","0","9.186304","1.270459","2.516992","-0.169873","-0.101685","-0.05144","0.013159","-0.07417","-0.189014"
"W","1617451603.081266","7","45","-16","-23","-25","65","0.794434","0.092224","-0.600281","0.00531","0","-0.015267","0","9.140844","1.29917","2.499048","-0.215332","-0.07417","-0.070581","0.015552","-0.039478","-0.234473"
"W","1617451603.0711744","7","48","-15","-26","-24","68","0.794556","0.092224","-0.600159","0.005188","0","-0.015267","0","9.089404","1.323096","2.485889","-0.265576","-0.05144","-0.087329","0.014355","-0.00957","-0.283521"
"W","1617451603.0613186","7","47","-16","-27","-26","67","0.794617","0.092163","-0.600037","0.005188","0","-0.007634","0","9.077441","1.330273","2.485889","-0.276343","-0.043066","-0.089722","0.013159","0","-0.293091"
"W","1617451603.05118","7","48","-19","-26","-33","68","0.794678","0.092102","-0.599976","0.005066","0.007634","-0.007634","0","9.118115","1.311133","2.494263","-0.235669","-0.063403","-0.08374","0.020337","-0.025122","-0.25481"
"W","1617451603.0411706","7","45","-18","-25","-24","67","0.794678","0.09198","-0.599976","0.004883","0.007634","0","0","9.150415","1.301563","2.493066","-0.203369","-0.072974","-0.084937","0.0323","-0.037085","-0.226099"
"W","1617451603.0315557","7","44","-19","-27","-29","67","0.794739","0.091919","-0.599915","0.0047","0.007634","-0.007634","0","9.156397","1.301563","2.493066","-0.196191","-0.07417","-0.086133","0.034692","-0.039478","-0.220117"
"W","1617451603.0214376","7","45","-15","-27","-26","65","0.794739","0.091858","-0.599915","0.004578","0","-0.007634","0","9.144434","1.31831","2.493066","-0.208154","-0.058618","-0.086133","0.029907","-0.022729","-0.228491"
"W","1617451603.0111938","7","44","-12","-23","-27","68","0.7948","0.091919","-0.599792","0.004517","0","-0.007634","0","9.132471","1.349414","2.503833","-0.218921","-0.028711","-0.077759","0.015552","0.005981","-0.233276"
"W","1617451603.0019655","7","45","-16","-26","-25","67","0.794861","0.091858","-0.599731","0.004456","0","-0.007634","0","9.119311","1.361377","2.512207","-0.23208","-0.016748","-0.071777","0.004785","0.017944","-0.24165"
"W","1617451602.9920063","7","43","-17","-26","-28","66","0.794983","0.091797","-0.599609","0.004456","0.007634","-0.007634","-0.007634","9.106153","1.354199","2.5146","-0.244043","-0.022729","-0.072974","0.003589","0.013159","-0.25481"
"W","1617451602.981291","7","45","-15","-26","-28","64","0.795044","0.091614","-0.599548","0.004395","0.007634","-0.015267","-0.007634","9.090601","1.321899","2.516992","-0.259595","-0.053833","-0.071777","0.001196","-0.014355","-0.27395"
"W","1617451602.9718945","7","43","-17","-26","-25","67","0.795166","0.091492","-0.599426","0.004333","0.007634","-0.015267","0","9.077441","1.302759","2.540918","-0.271558","-0.071777","-0.05144","-0.017944","-0.034692","-0.282324"
"W","1617451602.9619462","7","47","-17","-25","-28","67","0.795288","0.091492","-0.599243","0.004211","0","-0.015267","0","9.079834","1.306348","2.576807","-0.267969","-0.069385","-0.020337","-0.047852","-0.037085","-0.270361"
"W","1617451602.952047","7","44","-17","9","-24","70","0.795349","0.091492","-0.599182","0.004089","0","-0.015267","0","9.082227","1.330273","2.612695","-0.265576","-0.047852","0.013159","-0.081348","-0.021533","-0.256006"
"W","1617451602.9419436","7","45","-17","-26","-27","63","0.79541","0.091553","-0.59906","0.004028","-0.007634","-0.015267","0","9.08462","1.355396","2.621069","-0.260791","-0.023926","0.019141","-0.088525","0","-0.246436"
"W","1617451602.931914","7","44","-17","-27","-22","69","0.795471","0.091614","-0.598999","0.003967","-0.007634","-0.007634","0","9.09419","1.36377","2.624658","-0.251221","-0.017944","0.021533","-0.088525","0.004785","-0.235669"
"W","1617451602.9221325","7","45","-13","-26","-26","65","0.795471","0.091675","-0.598999","0.003906","-0.007634","-0.007634","0","9.109741","1.372144","2.597144","-0.235669","-0.010767","-0.004785","-0.059814","0.014355","-0.227295"
"W","1617451602.911904","7","45","-16","-23","-25","65","0.795471","0.091736","-0.598938","0.003906","-0.007634","-0.015267","0","9.112134","1.387695","2.554077","-0.23208","0.002393","-0.049048","-0.017944","0.033496","-0.233276"
"W","1617451602.9019418","7","44","-19","-26","-26","64","0.795532","0.091858","-0.598877","0.003967","-0.015267","-0.015267","0","9.104956","1.400854","2.506226","-0.239258","0.014355","-0.098096","0.023926","0.052637","-0.251221"
"W","1617451602.8919978","7","45","-17","-27","-24","67","0.795654","0.09198","-0.598694","0.004028","-0.015267","-0.015267","0","9.1229","1.393677","2.500244","-0.220117","0.005981","-0.107666","0.039478","0.044263","-0.236865"
"W","1617451602.882027","7","47","-16","-23","-29","65","0.795715","0.092041","-0.598633","0.00415","-0.007634","-0.007634","0","9.156397","1.360181","2.501441","-0.186621","-0.026318","-0.107666","0.052637","0.00957","-0.209351"
"W","1617451602.8720655","7","48","-17","-26","-28","63","0.795776","0.092102","-0.598511","0.00415","-0.007634","-0.007634","0","9.188696","1.311133","2.505029","-0.153125","-0.076563","-0.10647","0.065796","-0.043066","-0.184229"
"W","1617451602.8620095","7","45","-17","-24","-26","65","0.795837","0.092163","-0.598389","0.004089","-0.007634","-0.007634","0.007634","9.204248","1.280029","2.505029","-0.136377","-0.108862","-0.108862","0.076563","-0.075366","-0.173462"
"W","1617451602.8521216","7","44","-16","-27","-28","67","0.795959","0.092346","-0.598267","0.003967","-0.007634","-0.007634","0.007634","9.228174","1.2896","2.539722","-0.111255","-0.104077","-0.077759","0.053833","-0.077759","-0.141162"
"W","1617451602.84195","7","43","-20","-26","-26","69","0.795959","0.09259","-0.598145","0.003784","-0.015267","-0.007634","0.007634","9.232959","1.320703","2.593555","-0.105273","-0.078955","-0.025122","0.002393","-0.062207","-0.117236"
"W","1617451602.832015","7","43","-18","-28","-30","64","0.796021","0.092896","-0.598083","0.003723","-0.022901","-0.007634","0.007634","9.216211","1.367358","2.629443","-0.120825","-0.038281","0.00957","-0.038281","-0.026318","-0.117236"
"W","1617451602.8221812","7","47","-17","-24","-26","65","0.796021","0.093323","-0.597961","0.003601","-0.022901","-0.015267","0.007634","9.183911","1.419995","2.653369","-0.151929","0.005981","0.0323","-0.07417","0.016748","-0.135181"
"W","1617451602.812004","7","45","-18","-26","-24","64","0.796082","0.09375","-0.597839","0.003601","-0.022901","-0.022901","0.007634","9.137256","1.471436","2.668921","-0.197388","0.050244","0.046655","-0.10647","0.062207","-0.16748"
"W","1617451602.802164","7","49","-17","-27","-25","68","0.796204","0.094055","-0.597595","0.003723","-0.022901","-0.022901","0.007634","9.098974","1.494165","2.67251","-0.233276","0.069385","0.045459","-0.117236","0.084937","-0.19978"
"W","1617451602.7919176","7","47","-16","-26","-29","69","0.796387","0.09436","-0.597351","0.003845","-0.015267","-0.022901","0","9.091797","1.500147","2.684473","-0.239258","0.071777","0.052637","-0.126807","0.087329","-0.202173"
"W","1617451602.7820556","7","45","-18","-26","-23","69","0.796509","0.094543","-0.597168","0.003967","-0.015267","-0.022901","0","9.114527","1.488184","2.701221","-0.215332","0.058618","0.065796","-0.130396","0.069385","-0.178247"
"W","1617451602.7721078","7","47","-19","-28","-24","65","0.796631","0.094604","-0.596985","0.004089","-0.007634","-0.015267","0","9.134863","1.460669","2.709595","-0.193799","0.031104","0.069385","-0.124414","0.039478","-0.160303"
"W","1617451602.7619543","7","45","-15","-24","-26","65","0.796692","0.094666","-0.596863","0.00415","-0.007634","-0.015267","0","9.157593","1.419995","2.692847","-0.169873","-0.00957","0.05144","-0.095703","0","-0.14834"
"W","1617451602.7519343","7","47","-16","-26","-25","67","0.796753","0.094727","-0.596802","0.004089","-0.007634","-0.007634","0","9.203052","1.386499","2.692847","-0.123218","-0.044263","0.049048","-0.076563","-0.037085","-0.110059"
"W","1617451602.742089","7","47","-16","-26","-25","70","0.796692","0.094849","-0.596802","0.004089","-0.007634","0","0","9.247314","1.393677","2.69165","-0.078955","-0.039478","0.049048","-0.063403","-0.037085","-0.066992"
"W","1617451602.7319489","7","44","-17","-28","-28","64","0.796631","0.095032","-0.596924","0.004028","-0.015267","0","0.007634","9.287989","1.434351","2.702417","-0.039478","-0.001196","0.062207","-0.069385","-0.005981","-0.020337"
"W","1617451602.7220252","7","45","-17","-28","-26","65","0.79657","0.095215","-0.596985","0.003967","-0.015267","0","0.007634","9.301147","1.483398","2.708398","-0.026318","0.043066","0.070581","-0.078955","0.033496","0"
"W","1617451602.7122226","7","43","-15","-26","-24","67","0.796448","0.095398","-0.597107","0.003906","-0.007634","0","0","9.283203","1.510913","2.702417","-0.044263","0.066992","0.068188","-0.084937","0.059814","-0.013159"
"W","1617451602.702101","7","45","-19","-28","-26","65","0.796448","0.095459","-0.597107","0.003906","-0.007634","0","0","9.265259","1.509717","2.686865","-0.062207","0.0646","0.052637","-0.075366","0.061011","-0.034692"
"W","1617451602.6920965","7","45","-17","-26","-26","68","0.796387","0.095459","-0.597168","0.003906","0","0","0","9.265259","1.497754","2.677295","-0.062207","0.052637","0.045459","-0.066992","0.050244","-0.038281"
"W","1617451602.6821506","7","48","-21","-23","-26","67","0.796326","0.095459","-0.597229","0.003906","0","0","-0.007634","9.247314","1.482202","2.659351","-0.081348","0.037085","0.028711","-0.055029","0.040674","-0.063403"
"W","1617451602.67214","7","48","-17","-26","-26","68","0.796265","0.095398","-0.597351","0.003906","0","0","-0.007634","9.217407","1.461865","2.659351","-0.112451","0.017944","0.031104","-0.063403","0.023926","-0.095703"
"W","1617451602.6620958","7","45","-16","-29","-26","68","0.796204","0.095337","-0.597412","0.003906","0","0","-0.007634","9.1875","1.433154","2.650977","-0.142358","-0.008374","0.023926","-0.062207","0.002393","-0.129199"
"W","1617451602.6521108","7","45","-19","-28","-27","70","0.796143","0.095276","-0.597595","0.003967","0","0.007634","-0.007634","9.170752","1.408032","2.635425","-0.161499","-0.031104","0.011963","-0.052637","-0.014355","-0.154321"
"W","1617451602.6421666","7","42","-16","-26","-26","67","0.796021","0.095154","-0.597717","0.003906","0.007634","0.007634","-0.007634","9.169556","1.384106","2.613892","-0.162695","-0.053833","-0.005981","-0.033496","-0.033496","-0.163892"
"W","1617451602.6322813","7","44","-17","-28","-32","67","0.795898","0.095032","-0.5979","0.003906","0.007634","0.007634","-0.007634","9.154004","1.364966","2.573218","-0.179443","-0.070581","-0.04187","-0.002393","-0.043066","-0.191406"
"W","1617451602.6221447","7","48","-15","-28","-26","66","0.795776","0.094849","-0.598022","0.003784","0.007634","0","-0.007634","9.119311","1.357788","2.531348","-0.214136","-0.076563","-0.081348","0.025122","-0.039478","-0.236865"
"W","1617451602.6122952","7","43","-17","-27","-25","65","0.795776","0.094727","-0.598145","0.003784","0","0","-0.007634","9.091797","1.37334","2.516992","-0.244043","-0.058618","-0.094507","0.026318","-0.015552","-0.265576"
"W","1617451602.6022458","7","45","-17","-26","-29","65","0.795715","0.094604","-0.598267","0.003784","0","0.007634","-0.007634","9.077441","1.379321","2.505029","-0.259595","-0.05144","-0.104077","0.031104","-0.005981","-0.282324"
"W","1617451602.592168","7","43","-17","-28","-28","64","0.795593","0.094543","-0.598389","0.003784","0","0.007634","-0.007634","9.070264","1.379321","2.496655","-0.266772","-0.050244","-0.108862","0.033496","-0.003589","-0.289502"
"W","1617451602.582119","7","45","-18","-27","-25","67","0.795532","0.094421","-0.598511","0.003784","0","0.007634","-0.007634","9.055908","1.358984","2.487085","-0.282324","-0.068188","-0.117236","0.039478","-0.017944","-0.309839"
"W","1617451602.5719664","7","45","-16","-28","-25","68","0.79541","0.094299","-0.598633","0.003723","0.007634","0.007634","-0.007634","9.049927","1.34104","2.469141","-0.289502","-0.084937","-0.131592","0.052637","-0.031104","-0.322998"
"W","1617451602.5622048","7","46","-17","-24","-29","67","0.795349","0.094177","-0.598816","0.003601","0.007634","0.007634","0","9.042749","1.330273","2.446411","-0.297876","-0.094507","-0.151929","0.070581","-0.037085","-0.337354"
"W","1617451602.5520997","7","40","-18","-28","-27","66","0.795227","0.094055","-0.598938","0.003418","0.007634","0.007634","0","9.046338","1.333862","2.442822","-0.294287","-0.090918","-0.151929","0.071777","-0.033496","-0.333765"
"W","1617451602.5422187","7","45","-16","-28","-28","65","0.795105","0.093933","-0.599121","0.003296","0.007634","0.015267","0","9.072657","1.343433","2.446411","-0.269165","-0.081348","-0.144751","0.070581","-0.028711","-0.30625"
"W","1617451602.532278","7","45","-16","-26","-25","65","0.794922","0.093811","-0.599365","0.003113","0.007634","0.022901","0","9.131274","1.333862","2.439233","-0.211743","-0.090918","-0.145947","0.089722","-0.043066","-0.253613"
"W","1617451602.522239","7","44","-17","-27","-25","65","0.794739","0.09375","-0.59967","0.00293","0.007634","0.022901","0","9.212622","1.326685","2.44043","-0.132788","-0.098096","-0.13877","0.105273","-0.059814","-0.177051"
"W","1617451602.512149","7","45","-16","-26","-25","65","0.794495","0.093628","-0.599976","0.002747","0.007634","0.015267","0","9.267652","1.313525","2.434448","-0.080151","-0.111255","-0.137573","0.120825","-0.078955","-0.128003"
"W","1617451602.5021088","7","45","-16","-23","-25","67","0.794373","0.093567","-0.600159","0.002563","0.007634","0.007634","0","9.286792","1.303955","2.423682","-0.061011","-0.122021","-0.144751","0.133984","-0.090918","-0.113647"
"W","1617451602.4922326","7","41","-16","-24","-22","68","0.794312","0.093506","-0.60022","0.00238","0","-0.007634","0","9.27124","1.30874","2.423682","-0.076563","-0.118433","-0.142358","0.128003","-0.086133","-0.126807"
"W","1617451602.4822016","7","48","-17","-26","-26","65","0.794434","0.093506","-0.600098","0.002319","0","-0.015267","0","9.211426","1.335059","2.436841","-0.136377","-0.093311","-0.132788","0.098096","-0.056226","-0.178247"
"W","1617451602.4722576","7","45","-19","-26","-29","69","0.794617","0.093567","-0.599854","0.002258","-0.007634","-0.022901","0","9.150415","1.380518","2.473926","-0.194995","-0.049048","-0.101685","0.047852","-0.010767","-0.218921"
"W","1617451602.462349","7","45","-15","-28","-24","64","0.794861","0.093628","-0.599548","0.002319","-0.007634","-0.022901","0","9.110937","1.408032","2.522974","-0.233276","-0.022729","-0.059814","-0.004785","0.011963","-0.240454"
"W","1617451602.452054","7","44","-16","-27","-30","65","0.794983","0.093628","-0.599304","0.002319","0","-0.015267","0","9.10376","1.399658","2.585181","-0.238062","-0.031104","-0.002393","-0.061011","-0.003589","-0.23208"
"W","1617451602.442188","7","47","-16","-26","-28","67","0.795105","0.093628","-0.599182","0.002258","0","-0.007634","0","9.12649","1.386499","2.627051","-0.215332","-0.045459","0.034692","-0.087329","-0.026318","-0.202173"
"W","1617451602.4322171","7","47","-17","-26","-26","69","0.795105","0.093628","-0.599182","0.002197","0","0","0","9.148023","1.387695","2.642602","-0.192603","-0.045459","0.050244","-0.095703","-0.031104","-0.175854"
"W","1617451602.4221418","7","45","-15","-24","-25","66","0.795044","0.093628","-0.599243","0.002136","0","0","0","9.16477","1.388892","2.629443","-0.177051","-0.044263","0.039478","-0.081348","-0.029907","-0.163892"
"W","1617451602.4121115","7","45","-18","-26","-28","68","0.794983","0.093628","-0.599365","0.002075","0","0","0","9.16477","1.387695","2.594751","-0.177051","-0.046655","0.007178","-0.050244","-0.027515","-0.173462"
"W","1617451602.402449","7","47","-16","-26","-28","65","0.794922","0.093628","-0.599426","0.001953","0","0","0","9.169556","1.388892","2.550488","-0.172266","-0.046655","-0.034692","-0.00957","-0.021533","-0.179443"
"W","1617451602.3921022","7","45","-16","-26","-25","67","0.794922","0.093628","-0.599426","0.001831","0","0","0","9.181519","1.393677","2.516992","-0.160303","-0.043066","-0.068188","0.023926","-0.014355","-0.177051"
"W","1617451602.3821373","7","42","-19","-26","-25","62","0.794922","0.093628","-0.599426","0.001648","0","0","0.007634","9.185107","1.408032","2.502637","-0.156714","-0.031104","-0.082544","0.037085","0","-0.174658"
"W","1617451602.3721986","7","48","-19","-26","-25","68","0.794922","0.093689","-0.599426","0.001526","0","0","0.007634","9.192286","1.422388","2.507422","-0.149536","-0.019141","-0.077759","0.033496","0.008374","-0.165088"
"W","1617451602.3622537","7","45","-16","-26","-25","67","0.794922","0.093689","-0.599426","0.001404","0","0","0.007634","9.199463","1.428369","2.5146","-0.142358","-0.014355","-0.070581","0.028711","0.011963","-0.155518"
"W","1617451602.3520916","7","45","-18","-25","-25","103","0.794861","0.093689","-0.599487","0.001221","0","0.007634","0.007634","9.232959","1.421191","2.537329","-0.107666","-0.023926","-0.045459","0.015552","-0.003589","-0.117236"
"W","1617451602.0629618","7","44","-16","-26","-26","65","0.7948","0.093567","-0.599609","0.002625","-0.007634","0.007634","-0.015267","9.150415","1.37334","2.527759","-0.194995","-0.052637","-0.052637","0.001196","-0.021533","-0.206958"
"W","1617451602.0529711","7","45","-15","-23","-25","70","0.794617","0.093384","-0.599854","0.002747","0","0.015267","-0.015267","9.211426","1.336255","2.512207","-0.135181","-0.084937","-0.063403","0.0323","-0.058618","-0.15791"
"W","1617451602.0429592","7","48","-17","-23","-30","69","0.794373","0.093262","-0.600159","0.002808","0","0.022901","-0.015267","9.264063","1.288403","2.501441","-0.084937","-0.130396","-0.066992","0.055029","-0.107666","-0.117236"
"W","1617451602.032945","7","47","-13","-22","-25","68","0.794128","0.09314","-0.600525","0.002869","0","0.022901","-0.015267","9.314306","1.246533","2.490674","-0.037085","-0.168677","-0.069385","0.075366","-0.150732","-0.077759"
"W","1617451602.023008","7","49","-13","-28","-26","69","0.793884","0.093018","-0.600891","0.002808","0","0.022901","-0.015267","9.343018","1.223804","2.49187","-0.011963","-0.19021","-0.061011","0.076563","-0.175854","-0.053833"
"W","1617451602.0130014","7","42","-16","-26","-19","33","0.79364","0.092957","-0.601196","0.002808","0","0.015267","-0.007634","9.301147","1.221411","2.484692","-0.055029","-0.191406","-0.061011","0.0646","-0.172266","-0.095703"
"W","1617451602.0031111","7","45","-16","-26","-26","68","0.793579","0.093018","-0.601318","0.002747","-0.007634","0","-0.007634","9.217407","1.251318","2.476318","-0.139966","-0.162695","-0.066992","0.043066","-0.133984","-0.173462"
"W","1617451601.9929736","7","47","-16","-24","-30","68","0.793579","0.09314","-0.601318","0.002808","-0.015267","-0.007634","-0.007634","9.118115","1.311133","2.49187","-0.239258","-0.104077","-0.050244","-0.005981","-0.068188","-0.256006"
"W","1617451601.983005","7","45","-17","-28","-26","71","0.79364","0.093262","-0.601196","0.00293","-0.015267","-0.015267","-0.007634","9.031982","1.355396","2.501441","-0.324194","-0.059814","-0.043066","-0.040674","-0.016748","-0.328979"
"W","1617451601.9731417","7","44","-16","-29","-26","68","0.793701","0.093384","-0.601074","0.003052","-0.007634","-0.015267","-0.007634","8.994898","1.391284","2.511011","-0.361279","-0.025122","-0.035889","-0.062207","0.019141","-0.35769"
"W","1617451601.9631326","7","47","-18","-26","-26","69","0.793823","0.093384","-0.600952","0.003113","-0.007634","-0.007634","-0.007634","8.993701","1.388892","2.512207","-0.361279","-0.026318","-0.038281","-0.059814","0.017944","-0.35769"
"W","1617451601.9529846","7","44","-16","-27","-26","68","0.793823","0.093323","-0.600952","0.003113","0","0","0","9.010449","1.376929","2.506226","-0.344531","-0.038281","-0.044263","-0.047852","0.005981","-0.345728"
"W","1617451601.943104","7","48","-16","-27","-25","68","0.793762","0.093262","-0.601013","0.003052","0.007634","0.007634","0","9.053515","1.347021","2.505029","-0.301465","-0.066992","-0.044263","-0.033496","-0.026318","-0.308643"
"W","1617451601.9331086","7","45","-18","-26","-29","67","0.79364","0.09314","-0.601196","0.00293","0.007634","0.015267","0","9.115723","1.337451","2.481103","-0.240454","-0.076563","-0.063403","0.002393","-0.039478","-0.256006"
"W","1617451601.9231076","7","48","-13","-26","-25","64","0.793457","0.093018","-0.60144","0.002808","0.007634","0.015267","0","9.181519","1.327881","2.454785","-0.177051","-0.084937","-0.084937","0.04187","-0.05144","-0.202173"
"W","1617451601.9130363","7","48","-16","-26","-25","67","0.793274","0.092957","-0.601746","0.002686","0","0.015267","0","9.237744","1.332666","2.410522","-0.122021","-0.080151","-0.123218","0.092114","-0.046655","-0.159106"
"W","1617451601.903097","7","49","-14","-26","-26","70","0.793091","0.092896","-0.601929","0.002563","0","0.007634","-0.007634","9.249707","1.349414","2.360278","-0.111255","-0.063403","-0.16748","0.136377","-0.023926","-0.15791"
"W","1617451601.8932238","7","48","-16","-27","-26","71","0.79303","0.092834","-0.60199","0.002502","0","0","-0.007634","9.235352","1.366162","2.310034","-0.12561","-0.046655","-0.216528","0.177051","0","-0.181836"
"W","1617451601.882983","7","45","-12","-26","-23","70","0.793091","0.092773","-0.60199","0.002563","0","-0.007634","-0.007634","9.211426","1.375732","2.296875","-0.150732","-0.035889","-0.230884","0.181836","0.015552","-0.208154"
"W","1617451601.873062","7","47","-15","-28","-25","69","0.793213","0.092712","-0.601807","0.002563","0","-0.007634","-0.007634","9.189893","1.374536","2.316016","-0.169873","-0.035889","-0.216528","0.163892","0.014355","-0.22251"
"W","1617451601.8634565","7","45","-17","-23","-25","64","0.793335","0.092651","-0.601685","0.002625","0","-0.015267","-0.007634","9.161181","1.364966","2.359082","-0.198584","-0.044263","-0.175854","0.117236","0.003589","-0.240454"
"W","1617451601.8531694","7","45","-16","-24","-26","69","0.793518","0.09259","-0.60144","0.002686","0","-0.007634","-0.007634","9.137256","1.35061","2.434448","-0.221313","-0.057422","-0.10647","0.046655","-0.015552","-0.246436"
"W","1617451601.8431048","7","48","-19","-27","-25","67","0.79364","0.092468","-0.601318","0.002625","0","-0.007634","-0.007634","9.138453","1.339844","2.537329","-0.218921","-0.066992","-0.007178","-0.045459","-0.040674","-0.220117"
"W","1617451601.833164","7","45","-15","-23","-30","67","0.79364","0.092468","-0.601318","0.002625","0","-0.007634","0","9.1552","1.338647","2.611499","-0.202173","-0.068188","0.065796","-0.110059","-0.055029","-0.185425"
"W","1617451601.8231692","7","45","-17","-25","-26","69","0.79364","0.092468","-0.601318","0.002563","0","-0.007634","0","9.140844","1.366162","2.643799","-0.216528","-0.04187","0.098096","-0.14834","-0.0323","-0.186621"
"W","1617451601.8131084","7","47","-17","-28","-24","70","0.79364","0.092529","-0.601257","0.002502","-0.007634","-0.015267","0","9.110937","1.402051","2.634228","-0.245239","-0.007178","0.087329","-0.149536","0.005981","-0.211743"
"W","1617451601.803062","7","45","-15","-22","-26","65","0.793701","0.092529","-0.601196","0.002563","-0.007634","-0.015267","0","9.08103","1.433154","2.606714","-0.275146","0.022729","0.058618","-0.133984","0.04187","-0.244043"
"W","1617451601.7931492","7","48","-19","-27","-25","71","0.793823","0.092529","-0.601074","0.002625","-0.007634","-0.022901","-0.007634","9.067871","1.443921","2.55647","-0.288306","0.034692","0.004785","-0.088525","0.063403","-0.267969"
"W","1617451601.7830367","7","47","-15","-27","-26","69","0.793884","0.092529","-0.600952","0.002686","-0.007634","-0.015267","-0.007634","9.08462","1.441528","2.505029","-0.270361","0.0323","-0.047852","-0.0323","0.066992","-0.265576"
"W","1617451601.7733784","7","47","-16","-27","-29","67","0.794006","0.092529","-0.60083","0.002808","-0.007634","-0.007634","-0.007634","9.121704","1.417603","2.466748","-0.233276","0.00957","-0.089722","0.019141","0.046655","-0.244043"
"W","1617451601.7629714","7","48","-17","-24","-24","71","0.794006","0.092407","-0.60083","0.002869","-0.007634","0","-0.007634","9.179126","1.370947","2.448804","-0.175854","-0.0323","-0.107666","0.057422","0.002393","-0.19978"
"W","1617451601.7530427","7","48","-15","-23","-28","71","0.793945","0.092407","-0.600891","0.00293","-0.007634","0.015267","-0.007634","9.264063","1.325488","2.460767","-0.090918","-0.077759","-0.094507","0.072974","-0.05144","-0.122021"
"W","1617451601.7432094","7","45","-17","-26","-26","65","0.793823","0.092346","-0.601074","0.00293","-0.007634","0.015267","-0.007634","9.333447","1.300366","2.507422","-0.023926","-0.101685","-0.043066","0.045459","-0.090918","-0.047852"
"W","1617451601.733243","7","47","-16","-27","-26","69","0.79364","0.092407","-0.601318","0.00293","-0.007634","0.015267","-0.007634","9.35498","1.291992","2.555274","-0.003589","-0.110059","0.00957","0.002393","-0.108862","-0.015552"
"W","1617451601.7232776","7","44","-16","-26","-24","39","0.793457","0.092529","-0.601501","0.002869","-0.007634","0.015267","0","9.33584","1.297974","2.604321","-0.022729","-0.10647","0.063403","-0.053833","-0.111255","-0.020337"
"W","1617451601.7132225","7","48","-15","-26","-25","69","0.793335","0.092651","-0.601685","0.002808","-0.015267","0.007634","0","9.279614","1.314722","2.643799","-0.080151","-0.092114","0.107666","-0.113647","-0.098096","-0.061011"
"W","1617451601.703056","7","45","-15","-24","-24","66","0.793213","0.092896","-0.601746","0.002808","-0.015267","-0.007634","0","9.183911","1.338647","2.665332","-0.175854","-0.071777","0.131592","-0.165088","-0.070581","-0.143555"
"W","1617451601.6932864","7","47","-16","-23","-25","70","0.793213","0.09314","-0.601746","0.002808","-0.015267","-0.015267","0","9.083423","1.357788","2.660547","-0.276343","-0.056226","0.128003","-0.191406","-0.044263","-0.238062"
"W","1617451601.6833043","7","45","-15","-26","-27","65","0.793213","0.093506","-0.601685","0.002869","-0.022901","-0.015267","0","9.010449","1.40564","2.631836","-0.34812","-0.013159","0.098096","-0.187817","0.00957","-0.308643"
"W","1617451601.6731386","7","47","-12","-26","-23","68","0.793152","0.093872","-0.601685","0.002991","-0.030534","0","0","8.992505","1.48938","2.594751","-0.366064","0.0646","0.063403","-0.168677","0.093311","-0.322998"
"W","1617451601.6631846","7","45","-17","-25","-26","65","0.79303","0.094177","-0.601868","0.003235","-0.022901","0.007634","0","9.004468","1.555176","2.536133","-0.356494","0.129199","0.00957","-0.122021","0.163892","-0.318213"
"W","1617451601.6534934","7","47","-17","-24","-25","68","0.792725","0.09436","-0.602173","0.003479","-0.015267","0.022901","-0.007634","9.066675","1.550391","2.464355","-0.295483","0.124414","-0.052637","-0.045459","0.161499","-0.277539"
"W","1617451601.6433194","7","47","-15","-26","-24","69","0.792419","0.094299","-0.6026","0.003662","0","0.030534","-0.007634","9.149219","1.482202","2.39856","-0.216528","0.059814","-0.108862","0.037085","0.098096","-0.226099"
"W","1617451601.633246","7","45","-13","-27","-28","64","0.792053","0.094055","-0.603149","0.003723","0.007634","0.038168","-0.015267","9.253296","1.38291","2.342334","-0.11604","-0.0323","-0.153125","0.118433","0.003589","-0.154321"
"W","1617451601.6233292","7","47","-17","-24","-29","69","0.791687","0.093689","-0.603699","0.003662","0.015267","0.038168","-0.015267","9.317896","1.295581","2.283716","-0.056226","-0.114844","-0.200977","0.19021","-0.075366","-0.120825"
"W","1617451601.6133344","7","47","-15","-24","-27","68","0.791382","0.093323","-0.604126","0.003601","0.015267","0.030534","-0.015267","9.343018","1.230981","2.25979","-0.033496","-0.173462","-0.215332","0.216528","-0.133984","-0.111255"
"W","1617451601.603381","7","44","-17","-28","-26","68","0.791199","0.093079","-0.604431","0.003479","0.007634","0.022901","-0.015267","9.323877","1.252515","2.276538","-0.055029","-0.149536","-0.192603","0.186621","-0.111255","-0.122021"
"W","1617451601.5932198","7","45","-17","-26","-23","65","0.791077","0.092957","-0.604614","0.00354","0","0.007634","-0.015267","9.292773","1.300366","2.302856","-0.087329","-0.098096","-0.162695","0.143555","-0.062207","-0.137573"
"W","1617451601.5831115","7","44","-16","-26","-26","69","0.791016","0.092896","-0.604675","0.003601","-0.007634","0","-0.015267","9.22937","1.339844","2.338745","-0.151929","-0.057422","-0.124414","0.08374","-0.020337","-0.184229"
"W","1617451601.5810068","7","43","-18","-26","-28","64","0.791077","0.092834","-0.604614","0.003662","-0.007634","-0.007634","-0.007634","9.161181","1.378125","2.361475","-0.218921","-0.016748","-0.104077","0.04187","0.021533","-0.238062"
"W","1617451601.5797577","7","48","-19","-26","-27","70","0.791199","0.092773","-0.604492","0.003723","0","-0.015267","-0.007634","9.106153","1.403247","2.377026","-0.27395","0.008374","-0.092114","0.013159","0.050244","-0.283521"
"W","1617451601.5532186","7","45","-17","-24","-28","66","0.791321","0.092712","-0.604309","0.003784","0","-0.007634","-0.007634","9.079834","1.412817","2.403345","-0.299072","0.019141","-0.069385","-0.015552","0.061011","-0.300269"
"W","1617451601.5432773","7","45","-15","-23","-24","68","0.791382","0.092651","-0.604248","0.003845","0","0","0","9.106153","1.417603","2.45","-0.272754","0.025122","-0.025122","-0.05144","0.056226","-0.263184"
"W","1617451601.5330887","7","47","-15","-24","-24","68","0.791321","0.092651","-0.604309","0.003845","-0.007634","0.007634","0","9.148023","1.40564","2.473926","-0.230884","0.013159","0","-0.063403","0.037085","-0.218921"
"W","1617451601.5236268","7","48","-17","-27","-27","67","0.791199","0.092651","-0.604431","0.003845","-0.007634","0.007634","-0.007634","9.176733","1.39248","2.458374","-0.203369","0.001196","-0.011963","-0.043066","0.023926","-0.197388"
"W","1617451601.5139377","7","47","-16","-26","-25","67","0.791016","0.09259","-0.604675","0.003906","-0.007634","0.015267","-0.007634","9.216211","1.376929","2.435645","-0.165088","-0.011963","-0.028711","-0.014355","0.00957","-0.166284"
"W","1617451601.5032582","7","43","-16","-27","-28","63","0.790833","0.09259","-0.60498","0.003967","0","0.015267","-0.007634","9.268847","1.344629","2.404541","-0.114844","-0.043066","-0.053833","0.025122","-0.021533","-0.129199"
"W","1617451601.493342","7","49","-17","-27","-26","65","0.790649","0.092468","-0.605225","0.003967","0","0.015267","-0.007634","9.309522","1.309937","2.36626","-0.076563","-0.075366","-0.086133","0.070581","-0.052637","-0.105273"
"W","1617451601.483391","7","48","-15","-28","-28","65","0.790527","0.092346","-0.605408","0.004028","0","0.007634","-0.015267","9.334643","1.27644","2.332764","-0.052637","-0.10647","-0.11604","0.108862","-0.081348","-0.093311"
"W","1617451601.4739316","7","45","-16","-28","-25","69","0.790466","0.092285","-0.605469","0.004028","0","0","-0.007634","9.338232","1.265674","2.312427","-0.049048","-0.11604","-0.133984","0.128003","-0.088525","-0.095703"
"W","1617451601.463239","7","48","-16","-27","-27","67","0.790527","0.092224","-0.605469","0.004028","-0.007634","-0.007634","-0.007634","9.326269","1.284814","2.317212","-0.062207","-0.095703","-0.130396","0.118433","-0.066992","-0.105273"
"W","1617451601.4539485","7","47","-13","-27","-25","68","0.790588","0.092224","-0.605286","0.004089","-0.007634","-0.015267","-0.007634","9.29397","1.321899","2.342334","-0.092114","-0.058618","-0.108862","0.086133","-0.031104","-0.123218"
"W","1617451601.4432106","7","45","-16","-27","-27","69","0.790771","0.092285","-0.605103","0.004089","-0.007634","-0.015267","-0.007634","9.255689","1.338647","2.390186","-0.129199","-0.043066","-0.065796","0.0323","-0.017944","-0.145947"
"W","1617451601.4338691","7","45","-16","-27","-28","65","0.790894","0.092285","-0.604858","0.00415","-0.007634","-0.015267","-0.007634","9.225781","1.356592","2.436841","-0.15791","-0.023926","-0.023926","-0.015552","-0.002393","-0.160303"
"W","1617451601.4233575","7","43","-17","-24","-23","65","0.791016","0.092346","-0.604736","0.004272","-0.007634","-0.015267","-0.007634","9.2198","1.362573","2.473926","-0.162695","-0.017944","0.008374","-0.049048","-0.001196","-0.155518"
"W","1617451601.413906","7","45","-18","-28","-25","65","0.791138","0.092346","-0.604614","0.004333","-0.007634","-0.015267","-0.007634","9.200659","1.369751","2.483496","-0.181836","-0.010767","0.014355","-0.061011","0.005981","-0.171069"
"W","1617451601.403906","7","45","-15","-26","-25","65","0.791199","0.092285","-0.604553","0.004456","-0.007634","-0.015267","-0.015267","9.167163","1.370947","2.445215","-0.215332","-0.007178","-0.023926","-0.033496","0.017944","-0.212939"
"W","1617451601.3933673","7","43","-15","-24","-24","68","0.79126","0.092224","-0.604492","0.004578","0","-0.007634","-0.015267","9.159986","1.36377","2.414111","-0.22251","-0.011963","-0.056226","-0.003589","0.019141","-0.228491"
"W","1617451601.3841531","7","46","-15","-24","29","69","0.79126","0.092041","-0.604492","0.0047","0.007634","-0.007634","-0.015267","9.151611","1.324292","2.387793","-0.230884","-0.046655","-0.08374","0.022729","-0.008374","-0.247632"
"W","1617451601.3739226","7","48","-16","-27","-26","67","0.791321","0.091858","-0.604431","0.004761","0.007634","-0.007634","-0.007634","9.139648","1.287207","2.365063","-0.242847","-0.080151","-0.107666","0.046655","-0.037085","-0.270361"
"W","1617451601.3639622","7","47","-17","-28","-25","69","0.791382","0.091675","-0.60437","0.0047","0","-0.015267","-0.007634","9.115723","1.277637","2.338745","-0.266772","-0.088525","-0.136377","0.068188","-0.038281","-0.301465"
"W","1617451601.3539195","7","45","-18","-28","-27","69","0.791504","0.091614","-0.604248","0.0047","0","-0.015267","-0.007634","9.101367","1.296777","2.32439","-0.279932","-0.068188","-0.154321","0.078955","-0.014355","-0.31582"
"W","1617451601.3439417","7","46","-17","-27","-27","72","0.791565","0.091614","-0.604126","0.004639","0","-0.007634","0","9.09419","1.323096","2.304053","-0.285913","-0.043066","-0.177051","0.096899","0.013159","-0.324194"
"W","1617451601.3339422","7","45","-15","-28","-25","65","0.791687","0.091614","-0.604004","0.004639","0","-0.007634","0","9.10376","1.330273","2.286108","-0.276343","-0.035889","-0.198584","0.118433","0.022729","-0.319409"
"W","1617451601.3239582","7","45","-16","-24","-30","61","0.791748","0.091553","-0.603943","0.004578","0","0","0","9.124097","1.31831","2.280127","-0.256006","-0.047852","-0.205762","0.132788","0.00957","-0.303857"
"W","1617451601.313947","7","47","-14","-27","-24","70","0.791748","0.091431","-0.603943","0.004517","0","0","0","9.162378","1.288403","2.295679","-0.217725","-0.076563","-0.19021","0.131592","-0.023926","-0.266772"
"W","1617451601.3039522","7","45","-17","-26","-24","67","0.791748","0.09137","-0.603943","0.004456","0.007634","0","0","9.201856","1.259692","2.306445","-0.178247","-0.105273","-0.18064","0.136377","-0.057422","-0.230884"
"W","1617451601.293913","7","46","-15","-26","-26","69","0.791748","0.091248","-0.603943","0.004333","0","0","0","9.220996","1.246533","2.335156","-0.15791","-0.117236","-0.151929","0.11604","-0.075366","-0.205762"
"W","1617451601.2839568","7","47","-13","-23","-27","68","0.791809","0.091248","-0.603882","0.004211","-0.007634","-0.007634","0","9.220996","1.260889","2.365063","-0.15791","-0.105273","-0.123218","0.086133","-0.068188","-0.196191"
"W","1617451601.273858","7","45","-19","-25","-28","65","0.79187","0.09137","-0.60376","0.004211","-0.015267","-0.015267","0","9.205444","1.319507","2.402148","-0.172266","-0.047852","-0.088525","0.043066","-0.015552","-0.193799"
"W","1617451601.2639773","7","47","-17","-26","-30","66","0.791992","0.091553","-0.603577","0.004211","-0.015267","-0.022901","0","9.16836","1.387695","2.444019","-0.208154","0.015552","-0.050244","-0.00957","0.044263","-0.209351"
"W","1617451601.2539012","7","45","-16","-26","-28","67","0.792175","0.091736","-0.603271","0.004333","-0.015267","-0.022901","0","9.130078","1.414014","2.478711","-0.244043","0.040674","-0.021533","-0.050244","0.068188","-0.23208"
"W","1617451601.2440634","7","44","-19","-27","-26","69","0.792419","0.091797","-0.602966","0.004395","-0.007634","-0.030534","0","9.091797","1.40564","2.513403","-0.279932","0.031104","0.004785","-0.08374","0.058618","-0.261987"
"W","1617451601.2339208","7","47","-16","-26","-28","64","0.792664","0.091797","-0.602722","0.004456","0","-0.022901","0","9.085815","1.38291","2.55647","-0.285913","0.008374","0.040674","-0.117236","0.031104","-0.260791"
"W","1617451601.2241278","7","47","-16","-28","-26","65","0.792847","0.091736","-0.602478","0.004456","0","-0.015267","0","9.119311","1.357788","2.589966","-0.250024","-0.014355","0.068188","-0.131592","0.001196","-0.22251"
"W","1617451601.2141132","7","47","-18","-27","-27","70","0.792908","0.091675","-0.602356","0.004395","0.007634","-0.015267","0","9.1552","1.333862","2.623462","-0.212939","-0.038281","0.099292","-0.14834","-0.029907","-0.183032"
"W","1617451601.2041202","7","44","-17","-26","-25","70","0.792969","0.091614","-0.602295","0.004211","0.007634","-0.007634","0","9.189893","1.311133","2.625854","-0.178247","-0.062207","0.100488","-0.136377","-0.057422","-0.153125"
"W","1617451601.1941233","7","47","-17","-27","-23","69","0.792969","0.091553","-0.602295","0.004089","0.007634","-0.007634","0","9.212622","1.305151","2.617481","-0.155518","-0.069385","0.092114","-0.122021","-0.065796","-0.133984"
"W","1617451601.1841094","7","47","-15","-27","-27","69","0.79303","0.091553","-0.602234","0.003967","0","-0.015267","0","9.213819","1.29917","2.595947","-0.153125","-0.076563","0.068188","-0.098096","-0.069385","-0.13877"
"W","1617451601.1740692","7","48","-15","-24","-28","67","0.793091","0.091492","-0.602173","0.003845","0","-0.015267","0","9.20664","1.307544","2.574414","-0.160303","-0.068188","0.045459","-0.078955","-0.056226","-0.150732"
"W","1617451601.1640897","7","47","-17","-23","-25","64","0.793152","0.091492","-0.602112","0.003784","0","-0.015267","0","9.209033","1.323096","2.549292","-0.15791","-0.053833","0.017944","-0.053833","-0.038281","-0.153125"
"W","1617451601.1541424","7","45","-18","-24","-27","67","0.793152","0.091492","-0.602051","0.003723","0","-0.007634","0","9.2198","1.33147","2.534936","-0.145947","-0.046655","0.003589","-0.037085","-0.031104","-0.144751"
"W","1617451601.144121","7","47","-15","-27","-24","68","0.793213","0.091431","-0.60199","0.003723","0.007634","-0.007634","-0.007634","9.224585","1.332666","2.527759","-0.141162","-0.044263","-0.004785","-0.028711","-0.027515","-0.142358"
"W","1617451601.1340933","7","47","-16","-26","-32","68","0.793274","0.091309","-0.601929","0.003601","0.007634","-0.007634","0","9.226977","1.315918","2.544507","-0.137573","-0.061011","0.00957","-0.039478","-0.046655","-0.136377"
"W","1617451601.124214","7","45","-16","-28","-25","69","0.793335","0.091187","-0.601929","0.003479","0.007634","-0.007634","0","9.218603","1.300366","2.567236","-0.147144","-0.075366","0.031104","-0.061011","-0.062207","-0.142358"
"W","1617451601.1141222","7","45","-17","-26","-28","66","0.793335","0.091125","-0.601868","0.003357","0.007634","-0.007634","0","9.199463","1.306348","2.605518","-0.165088","-0.070581","0.068188","-0.101685","-0.062207","-0.149536"
"W","1617451601.104154","7","48","-17","-23","-25","65","0.793335","0.091064","-0.601868","0.003235","0","-0.007634","0","9.171948","1.319507","2.622266","-0.191406","-0.057422","0.084937","-0.126807","-0.049048","-0.168677"
"W","1617451601.0940888","7","48","-15","-26","-26","69","0.793335","0.091125","-0.601868","0.003113","0","-0.007634","0","9.143237","1.342236","2.633032","-0.220117","-0.037085","0.095703","-0.147144","-0.027515","-0.19021"
"W","1617451601.0841982","7","45","-17","-26","-24","63","0.793335","0.091125","-0.601929","0.003113","-0.007634","-0.007634","-0.007634","9.114527","1.357788","2.617481","-0.250024","-0.021533","0.081348","-0.143555","-0.005981","-0.220117"
"W","1617451601.0743067","7","44","-15","-22","-25","70","0.793274","0.091125","-0.601929","0.003174","-0.007634","-0.007634","-0.007634","9.077441","1.367358","2.573218","-0.287109","-0.011963","0.037085","-0.112451","0.011963","-0.265576"
"W","1617451601.0641592","7","45","-16","-23","-27","65","0.793274","0.091125","-0.60199","0.003235","0","-0.007634","-0.007634","9.057104","1.358984","2.509815","-0.307446","-0.019141","-0.023926","-0.058618","0.016748","-0.302661"
"W","1617451601.0540702","7","47","-15","-26","-26","68","0.793274","0.091003","-0.602051","0.003235","0","0","-0.007634","9.073853","1.339844","2.453589","-0.291895","-0.035889","-0.080151","0","0.005981","-0.303857"
"W","1617451601.0441267","7","45","-18","-28","-24","70","0.793152","0.090942","-0.602173","0.003235","0","0.015267","-0.007634","9.131274","1.321899","2.411719","-0.235669","-0.052637","-0.118433","0.053833","-0.00957","-0.263184"
"W","1617451601.034068","7","45","-20","-26","-32","68","0.792969","0.09082","-0.602417","0.003235","0","0.022901","0","9.203052","1.291992","2.381812","-0.165088","-0.081348","-0.142358","0.099292","-0.040674","-0.205762"
"W","1617451601.0241275","7","45","-20","-24","-29","68","0.792725","0.090759","-0.602722","0.003113","0","0.022901","0","9.262866","1.268066","2.353101","-0.10647","-0.105273","-0.163892","0.13877","-0.068188","-0.15791"
"W","1617451601.0140002","7","45","-16","-26","-24","70","0.79248","0.09082","-0.603088","0.00293","-0.007634","0.022901","0","9.301147","1.282422","2.339942","-0.070581","-0.093311","-0.168677","0.151929","-0.058618","-0.123218"
"W","1617451601.004136","7","43","-17","-26","-28","68","0.792175","0.090942","-0.603394","0.002869","-0.015267","0.022901","0","9.296362","1.317114","2.326782","-0.076563","-0.059814","-0.173462","0.150732","-0.025122","-0.12561"
"W","1617451600.9940634","7","47","-17","-23","-26","69","0.791992","0.091187","-0.603638","0.002808","-0.015267","0.007634","0","9.258081","1.348218","2.30166","-0.11604","-0.033496","-0.192603","0.155518","0.007178","-0.163892"
"W","1617451600.9842322","7","45","-17","-27","-28","68","0.791931","0.091309","-0.60376","0.002808","-0.007634","0","0","9.21023","1.358984","2.277734","-0.165088","-0.023926","-0.214136","0.161499","0.025122","-0.215332"
"W","1617451600.9742188","7","49","-15","-26","-24","69","0.79187","0.09137","-0.60376","0.002808","-0.007634","0","0","9.199463","1.33147","2.272949","-0.175854","-0.052637","-0.217725","0.166284","0","-0.230884"
"W","1617451600.9643116","7","47","-18","-26","-26","68","0.791931","0.091431","-0.603699","0.002808","-0.007634","-0.007634","0","9.218603","1.295581","2.283716","-0.156714","-0.089722","-0.208154","0.166284","-0.040674","-0.215332"
"W","1617451600.9542496","7","46","-15","-26","-23","69","0.791992","0.091492","-0.603638","0.002747","-0.007634","-0.007634","0","9.225781","1.278833","2.308838","-0.14834","-0.108862","-0.184229","0.147144","-0.063403","-0.203369"
"W","1617451600.9441786","7","46","-16","-26","-23","65","0.792114","0.091553","-0.603455","0.002625","-0.007634","-0.007634","0","9.218603","1.278833","2.348315","-0.154321","-0.111255","-0.149536","0.113647","-0.070581","-0.200977"
"W","1617451600.9341958","7","45","-17","-27","-24","63","0.792175","0.091736","-0.603333","0.002563","-0.015267","-0.007634","0","9.222193","1.309937","2.402148","-0.149536","-0.08374","-0.096899","0.061011","-0.05144","-0.179443"
"W","1617451600.9242227","7","45","-20","-14","-26","65","0.792297","0.092041","-0.603149","0.002563","-0.022901","-0.007634","0","9.213819","1.388892","2.457178","-0.156714","-0.00957","-0.045459","0.001196","0.013159","-0.162695"
"W","1617451600.9140894","7","44","-15","-27","-24","68","0.792358","0.092346","-0.603027","0.002686","-0.022901","-0.015267","0","9.198267","1.449902","2.500244","-0.171069","0.046655","-0.004785","-0.046655","0.0646","-0.15791"
"W","1617451600.9042656","7","47","-16","-26","-26","67","0.792419","0.092651","-0.602905","0.002869","-0.022901","-0.015267","0","9.162378","1.484595","2.52417","-0.205762","0.078955","0.016748","-0.081348","0.096899","-0.18064"
"W","1617451600.8941767","7","46","-17","-28","-28","67","0.792542","0.092834","-0.602661","0.003113","-0.015267","-0.022901","-0.007634","9.10376","1.491772","2.540918","-0.263184","0.086133","0.028711","-0.108862","0.107666","-0.230884"
"W","1617451600.8843143","7","45","-17","-27","-26","65","0.792725","0.092896","-0.602478","0.003357","-0.015267","-0.030534","-0.015267","9.065478","1.471436","2.552881","-0.301465","0.066992","0.035889","-0.124414","0.092114","-0.269165"
"W","1617451600.8742073","7","42","-17","-27","-26","68","0.792908","0.092773","-0.602234","0.003601","0","-0.022901","-0.015267","9.077441","1.419995","2.555274","-0.288306","0.020337","0.0323","-0.111255","0.045459","-0.263184"
"W","1617451600.864134","7","44","-17","-26","-25","68","0.79303","0.09259","-0.602051","0.003784","0","-0.022901","-0.007634","9.115723","1.349414","2.557666","-0.248828","-0.044263","0.029907","-0.090918","-0.021533","-0.235669"
"W","1617451600.8542044","7","44","-17","-24","-24","65","0.793152","0.092468","-0.601929","0.003845","0","-0.015267","-0.007634","9.139648","1.29917","2.534936","-0.223706","-0.092114","0.003589","-0.053833","-0.066992","-0.224902"
"W","1617451600.8442073","7","45","-15","-23","-26","67","0.793274","0.092346","-0.601807","0.003784","0","-0.015267","-0.007634","9.158789","1.264477","2.507422","-0.204565","-0.12561","-0.026318","-0.015552","-0.096899","-0.218921"
"W","1617451600.834164","7","45","-16","-26","-28","69","0.793335","0.092346","-0.601746","0.003784","0","-0.007634","0","9.183911","1.262085","2.49187","-0.179443","-0.129199","-0.043066","0.005981","-0.100488","-0.19978"
"W","1617451600.8242123","7","44","-17","-26","-26","67","0.793335","0.092407","-0.601685","0.003723","-0.007634","0","0","9.201856","1.294385","2.488281","-0.160303","-0.098096","-0.047852","0.011963","-0.071777","-0.179443"
"W","1617451600.814411","7","44","-19","-27","-28","67","0.793335","0.092529","-0.601746","0.003723","-0.007634","0","0","9.217407","1.327881","2.499048","-0.145947","-0.065796","-0.035889","0.001196","-0.043066","-0.15791"
"W","1617451600.804066","7","46","-19","-24","-28","69","0.793274","0.09259","-0.601746","0.003723","-0.007634","0","0","9.241333","1.34104","2.495459","-0.120825","-0.053833","-0.038281","0.008374","-0.033496","-0.132788"
"W","1617451600.7941842","7","45","-17","-26","-25","67","0.793213","0.092651","-0.601807","0.003723","0","0","0","9.260473","1.34104","2.506226","-0.101685","-0.055029","-0.026318","0.002393","-0.038281","-0.111255"
"W","1617451600.7841437","7","45","-16","-28","-29","68","0.793213","0.092651","-0.601868","0.003723","0","-0.007634","0","9.272436","1.339844","2.513403","-0.090918","-0.056226","-0.017944","-0.001196","-0.04187","-0.099292"
"W","1617451600.774496","7","43","-18","-26","-29","69","0.793274","0.092712","-0.601746","0.003662","0","-0.015267","0","9.249707","1.357788","2.52417","-0.112451","-0.039478","-0.00957","-0.016748","-0.025122","-0.114844"
"W","1617451600.764143","7","43","-19","-29","-26","65","0.793396","0.092773","-0.601562","0.003601","-0.007634","-0.022901","0","9.21023","1.388892","2.542114","-0.150732","-0.010767","0.003589","-0.043066","0.004785","-0.143555"
"W","1617451600.7541575","7","42","-16","-28","-28","64","0.793579","0.092834","-0.601379","0.003601","-0.007634","-0.022901","0","9.186304","1.418799","2.563648","-0.173462","0.016748","0.020337","-0.068188","0.031104","-0.15791"
"W","1617451600.744264","7","43","-17","-27","-29","63","0.793701","0.092957","-0.601135","0.00354","-0.007634","-0.022901","0","9.179126","1.458276","2.605518","-0.178247","0.053833","0.057422","-0.110059","0.062207","-0.147144"
"W","1617451600.73411","7","45","-19","-27","-28","65","0.793823","0.093079","-0.600952","0.00354","-0.007634","-0.015267","0","9.182714","1.486987","2.634228","-0.173462","0.080151","0.082544","-0.135181","0.08374","-0.131592"
"W","1617451600.7240946","7","43","-16","-28","-30","65","0.793884","0.09314","-0.600891","0.00354","-0.007634","-0.007634","0","9.195874","1.496558","2.642602","-0.160303","0.088525","0.088525","-0.13877","0.089722","-0.117236"
"W","1617451600.7142506","7","44","-15","-30","-22","68","0.793884","0.09314","-0.600891","0.003479","0","0","0","9.216211","1.485791","2.631836","-0.139966","0.076563","0.077759","-0.120825","0.077759","-0.101685"
"W","1617451600.7042325","7","45","-19","-27","-29","68","0.793823","0.093018","-0.601013","0.003479","0.007634","0","-0.007634","9.244922","1.461865","2.591162","-0.112451","0.055029","0.039478","-0.07417","0.059814","-0.088525"
"W","1617451600.6940658","7","47","-17","-26","-28","69","0.793701","0.092834","-0.601135","0.003418","0.007634","0","-0.007634","9.254492","1.431958","2.513403","-0.102881","0.027515","-0.033496","0","0.04187","-0.102881"
"W","1617451600.6843357","7","45","-16","-27","-28","66","0.79364","0.092651","-0.601318","0.003418","0.007634","0","-0.015267","9.266455","1.40564","2.433252","-0.093311","0.003589","-0.111255","0.078955","0.029907","-0.117236"
"W","1617451600.6748624","7","44","-19","-26","-23","67","0.793518","0.092468","-0.60144","0.003479","0.007634","0.007634","-0.015267","9.270044","1.380518","2.353101","-0.089722","-0.015552","-0.189014","0.156714","0.021533","-0.136377"
"W","1617451600.664871","7","42","-19","-24","-24","68","0.793457","0.092163","-0.601562","0.003601","0.007634","0.015267","-0.015267","9.268847","1.349414","2.313623","-0.092114","-0.040674","-0.226099","0.193799","0.003589","-0.151929"
"W","1617451600.6549296","7","45","-17","-26","-26","69","0.793396","0.091858","-0.601746","0.003662","0.007634","0.015267","-0.015267","9.29038","1.300366","2.313623","-0.072974","-0.08374","-0.223706","0.202173","-0.040674","-0.13877"
"W","1617451600.6448853","7","42","-17","-26","-28","64","0.793274","0.091614","-0.601929","0.003662","0.007634","0.015267","-0.015267","9.299952","1.260889","2.349512","-0.0646","-0.119629","-0.184229","0.171069","-0.082544","-0.12561"
"W","1617451600.6340978","7","43","-19","-26","-26","68","0.793152","0.09137","-0.602112","0.003662","0.007634","0.015267","-0.015267","9.276026","1.250122","2.422485","-0.089722","-0.126807","-0.107666","0.092114","-0.098096","-0.130396"
"W","1617451600.624221","7","43","-17","-26","-26","67","0.793091","0.091248","-0.602234","0.003601","0.007634","0.007634","-0.015267","9.20664","1.260889","2.494263","-0.160303","-0.114844","-0.033496","0.001196","-0.090918","-0.177051"
"W","1617451600.6149285","7","47","-17","-26","-27","68","0.79303","0.091125","-0.602295","0.00354","0","0","-0.007634","9.133667","1.294385","2.534936","-0.233276","-0.080151","0.007178","-0.061011","-0.055029","-0.23208"
"W","1617451600.6049182","7","44","-18","-26","-27","64","0.79303","0.091064","-0.602295","0.00354","0","-0.007634","-0.007634","9.063086","1.344629","2.548096","-0.303857","-0.028711","0.020337","-0.099292","0","-0.288306"
"W","1617451600.594983","7","41","-19","-28","38","65","0.793091","0.091125","-0.602295","0.00354","-0.007634","-0.015267","-0.007634","8.988916","1.399658","2.534936","-0.379224","0.023926","0.005981","-0.112451","0.061011","-0.356494"
"W","1617451600.5849166","7","47","-16","-28","-28","75","0.793091","0.091064","-0.602234","0.003662","-0.007634","-0.015267","-0.007634","8.936279","1.428369","2.490674","-0.430664","0.055029","-0.037085","-0.088525","0.104077","-0.41272"
"W","1617451600.5747986","7","42","-17","-28","-25","64","0.793091","0.091003","-0.602234","0.003784","0","-0.007634","-0.007634","8.944654","1.431958","2.438037","-0.423486","0.061011","-0.089722","-0.037085","0.11604","-0.418701"
"W","1617451600.1251633","7","44","-21","-26","-24","65","0.796021","0.091003","-0.598389","0.007019","-0.007634","-0.022901","-0.007634","9.087011","1.314722","2.605518","-0.260791","-0.022729","-0.014355","-0.057422","0.004785","-0.25481"
"W","1617451600.1152542","7","44","-16","-27","-28","68","0.796143","0.091003","-0.598145","0.00708","-0.007634","-0.022901","-0.007634","9.057104","1.33147","2.601929","-0.288306","-0.004785","-0.022729","-0.058618","0.026318","-0.281128"
"W","1617451600.1051283","7","45","-15","-24","-24","65","0.796265","0.090942","-0.598022","0.007202","0","-0.015267","-0.007634","9.07146","1.325488","2.610303","-0.27395","-0.008374","-0.016748","-0.061011","0.020337","-0.266772"
"W","1617451600.095137","7","47","-19","-27","-26","65","0.796326","0.090881","-0.5979","0.007202","0","-0.007634","0","9.109741","1.307544","2.606714","-0.234473","-0.026318","-0.023926","-0.040674","0","-0.233276"
"W","1617451600.085129","7","47","-15","-26","-26","69","0.796387","0.09082","-0.5979","0.007141","0","-0.007634","0","9.150415","1.293188","2.597144","-0.194995","-0.040674","-0.033496","-0.017944","-0.015552","-0.19978"
"W","1617451600.0752437","7","45","-17","-26","-28","67","0.796387","0.090759","-0.5979","0.00708","0","0","0","9.193481","1.283618","2.585181","-0.150732","-0.049048","-0.046655","0.007178","-0.026318","-0.162695"
"W","1617451600.0651295","7","43","-16","-27","-25","69","0.796387","0.090759","-0.5979","0.007019","0","0","0","9.215014","1.2896","2.567236","-0.129199","-0.044263","-0.0646","0.029907","-0.020337","-0.145947"
"W","1617451600.0550349","7","48","-17","-27","-29","67","0.796326","0.090698","-0.597961","0.006958","0","0","-0.007634","9.216211","1.296777","2.546899","-0.128003","-0.037085","-0.082544","0.045459","-0.010767","-0.14834"
"W","1617451600.0453937","7","47","-16","-27","-25","67","0.796387","0.090698","-0.597961","0.006958","0","-0.007634","-0.007634","9.204248","1.296777","2.52417","-0.141162","-0.037085","-0.10647","0.0646","-0.005981","-0.16748"
"W","1617451600.035118","7","47","-20","-27","-27","69","0.796387","0.090576","-0.5979","0.006958","0","-0.007634","-0.007634","9.186304","1.283618","2.497852","-0.15791","-0.047852","-0.133984","0.087329","-0.010767","-0.192603"
"W","1617451600.02535","7","43","-17","-27","-28","67","0.796509","0.090454","-0.597778","0.006958","0.007634","-0.007634","-0.007634","9.181519","1.259692","2.496655","-0.162695","-0.070581","-0.13877","0.093311","-0.0323","-0.200977"
"W","1617451600.015007","7","45","-16","-27","-28","68","0.79657","0.090332","-0.597656","0.006897","0","-0.007634","-0.007634","9.191089","1.2573","2.53374","-0.151929","-0.071777","-0.104077","0.063403","-0.039478","-0.181836"
"W","1617451600.0051136","7","45","-17","-27","-27","67","0.796692","0.090332","-0.597595","0.006836","-0.007634","-0.007634","0","9.173144","1.296777","2.583984","-0.169873","-0.033496","-0.056226","0.008374","-0.007178","-0.18064"
"W","1617451599.9953167","7","28","-17","-26","-26","67","0.796753","0.090393","-0.597473","0.006836","-0.007634","-0.007634","0","9.143237","1.33147","2.628247","-0.198584","0","-0.014355","-0.043066","0.020337","-0.192603"
"W","1617451599.9851685","7","43","-17","-26","-28","67","0.796753","0.090454","-0.597412","0.006897","-0.007634","-0.007634","0","9.101367","1.338647","2.650977","-0.239258","0.005981","0.005981","-0.07417","0.027515","-0.224902"
"W","1617451599.9752476","7","45","-13","-26","-27","68","0.796814","0.090454","-0.597412","0.006897","0","-0.007634","0","9.085815","1.321899","2.664136","-0.256006","-0.00957","0.019141","-0.089722","0.011963","-0.239258"
"W","1617451599.966056","7","44","-17","-27","-26","64","0.796814","0.090393","-0.597412","0.006897","0","-0.007634","-0.007634","9.078638","1.300366","2.650977","-0.263184","-0.029907","0.005981","-0.076563","-0.004785","-0.252417"
"W","1617451599.9551742","7","45","-16","-26","-39","64","0.796753","0.090332","-0.597412","0.006836","0","-0.007634","0","9.072657","1.296777","2.605518","-0.267969","-0.033496","-0.038281","-0.035889","0","-0.269165"
"W","1617451599.9456534","7","47","-18","-27","-27","67","0.796753","0.090271","-0.597473","0.006775","0","0","-0.007634","9.070264","1.287207","2.558862","-0.271558","-0.043066","-0.08374","0.005981","-0.002393","-0.287109"
"W","1617451599.935312","7","45","-18","-26","-26","68","0.796692","0.09021","-0.597534","0.006775","0","0","-0.007634","9.090601","1.294385","2.525366","-0.251221","-0.034692","-0.11604","0.04187","0.007178","-0.275146"
"W","1617451599.9254951","7","45","-17","-26","-24","67","0.796631","0.09021","-0.597656","0.006775","-0.007634","0.007634","0","9.133667","1.300366","2.489478","-0.209351","-0.028711","-0.149536","0.084937","0.014355","-0.242847"
"W","1617451599.915439","7","45","-15","-23","-27","69","0.796448","0.090332","-0.5979","0.006714","-0.007634","0.015267","0.007634","9.185107","1.311133","2.469141","-0.159106","-0.019141","-0.163892","0.112451","0.021533","-0.197388"
"W","1617451599.9050496","7","43","-17","-27","-28","68","0.796265","0.090454","-0.598145","0.006592","-0.007634","0.022901","0.007634","9.236547","1.29917","2.470337","-0.110059","-0.034692","-0.156714","0.120825","0","-0.150732"
"W","1617451599.8960626","7","44","-19","-28","-24","65","0.796021","0.090576","-0.59845","0.006531","-0.007634","0.022901","0","9.241333","1.290796","2.481103","-0.10647","-0.045459","-0.13877","0.10647","-0.013159","-0.144751"
"W","1617451599.8858678","7","43","-16","-26","-25","67","0.795715","0.090698","-0.598755","0.006531","-0.015267","0.022901","0","9.277222","1.295581","2.503833","-0.071777","-0.04187","-0.10647","0.084937","-0.016748","-0.101685"
"W","1617451599.875594","7","45","-19","-27","-26","68","0.795471","0.09082","-0.599121","0.006531","-0.007634","0.015267","0","9.289185","1.288403","2.522974","-0.063403","-0.050244","-0.078955","0.062207","-0.031104","-0.087329"
"W","1617451599.8660734","7","47","-18","-28","-27","67","0.795349","0.090881","-0.599304","0.006531","-0.007634","0","-0.007634","9.236547","1.272852","2.515796","-0.117236","-0.066992","-0.082544","0.052637","-0.040674","-0.142358"
"W","1617451599.8551898","7","48","-17","-24","-24","68","0.795349","0.090881","-0.599243","0.006592","-0.007634","-0.015267","-0.007634","9.161181","1.259692","2.511011","-0.191406","-0.078955","-0.088525","0.039478","-0.044263","-0.216528"
"W","1617451599.8459375","7","47","-19","-24","-26","65","0.795471","0.090881","-0.59906","0.006653","-0.007634","-0.022901","-0.007634","9.132471","1.252515","2.532544","-0.218921","-0.086133","-0.070581","0.015552","-0.05144","-0.239258"
"W","1617451599.8359337","7","43","-17","-27","-23","68","0.795654","0.091003","-0.598816","0.006775","-0.015267","-0.022901","-0.007634","9.115723","1.271655","2.56604","-0.234473","-0.066992","-0.043066","-0.016748","-0.035889","-0.244043"
"W","1617451599.8258734","7","47","-17","-28","-27","68","0.795776","0.091125","-0.598572","0.006836","-0.015267","-0.022901","0","9.101367","1.309937","2.600732","-0.246436","-0.031104","-0.011963","-0.053833","-0.003589","-0.24165"
"W","1617451599.8153164","7","45","-16","-29","-24","65","0.795959","0.091309","-0.598389","0.006958","-0.015267","-0.015267","0","9.087011","1.333862","2.622266","-0.259595","-0.008374","0.003589","-0.075366","0.015552","-0.247632"
"W","1617451599.8058052","7","44","-19","-26","-28","66","0.796082","0.091431","-0.598206","0.007019","-0.007634","-0.015267","0","9.067871","1.344629","2.64978","-0.277539","0","0.026318","-0.102881","0.022729","-0.257202"
"W","1617451599.7959228","7","45","-19","-27","-28","65","0.796082","0.091492","-0.598145","0.007141","-0.007634","-0.007634","-0.007634","9.063086","1.34104","2.684473","-0.282324","-0.002393","0.061011","-0.137573","0.015552","-0.252417"
"W","1617451599.7859943","7","44","-20","-28","-28","64","0.796082","0.091492","-0.598206","0.007263","-0.007634","0","-0.007634","9.095386","1.33147","2.703613","-0.251221","-0.010767","0.081348","-0.147144","0.001196","-0.218921"
"W","1617451599.7759058","7","45","-19","-26","-25","65","0.796021","0.091553","-0.598267","0.007263","-0.007634","-0.007634","-0.007634","9.100171","1.325488","2.69165","-0.246436","-0.016748","0.070581","-0.133984","-0.002393","-0.217725"
"W","1617451599.7660682","7","45","-18","-27","-29","67","0.795959","0.091553","-0.598328","0.007324","0","-0.007634","-0.007634","9.078638","1.319507","2.646191","-0.267969","-0.022729","0.026318","-0.098096","0","-0.251221"
"W","1617451599.7559774","7","41","-16","-24","-28","68","0.795959","0.091492","-0.598389","0.007324","0","-0.007634","-0.007634","9.073853","1.309937","2.587573","-0.27395","-0.031104","-0.029907","-0.045459","0","-0.272754"
"W","1617451599.7459545","7","45","-17","-24","-28","65","0.795959","0.091431","-0.598389","0.007324","0","-0.007634","-0.007634","9.089404","1.288403","2.530151","-0.258398","-0.05144","-0.087329","0.015552","-0.010767","-0.276343"
"W","1617451599.7359374","7","44","-18","-24","-28","65","0.795959","0.091248","-0.598389","0.007324","0.007634","0","-0.007634","9.12649","1.259692","2.4823","-0.221313","-0.077759","-0.135181","0.07417","-0.033496","-0.257202"
"W","1617451599.7259543","7","71","-19","-27","-25","65","0.795898","0.091125","-0.59845","0.007263","0.007634","0.007634","-0.007634","9.175537","1.219019","2.45","-0.172266","-0.117236","-0.166284","0.123218","-0.071777","-0.223706"
"W","1617451599.716055","7","44","-17","-26","-26","65","0.795898","0.091003","-0.598511","0.007141","0.007634","0.007634","-0.007634","9.2198","1.191504","2.448804","-0.129199","-0.143555","-0.16748","0.139966","-0.101685","-0.186621"
"W","1617451599.7059104","7","44","-18","-24","-27","64","0.795837","0.090881","-0.598633","0.007019","0","0.007634","0","9.260473","1.185522","2.479907","-0.089722","-0.149536","-0.133984","0.119629","-0.117236","-0.141162"
"W","1617451599.6960528","7","41","-16","-26","-27","68","0.795776","0.090942","-0.598694","0.006897","-0.007634","0.007634","0","9.277222","1.211841","2.52417","-0.072974","-0.12561","-0.088525","0.077759","-0.101685","-0.110059"
"W","1617451599.6859336","7","43","-19","-28","-25","65","0.795715","0.091064","-0.598755","0.006775","-0.015267","0","0","9.278418","1.281226","2.564844","-0.071777","-0.058618","-0.045459","0.029907","-0.043066","-0.088525"
"W","1617451599.6760018","7","45","-15","-26","-28","66","0.795654","0.091309","-0.598755","0.006775","-0.015267","0","0","9.259277","1.354199","2.615088","-0.089722","0.00957","0.004785","-0.029907","0.016748","-0.082544"
"W","1617451599.6659548","7","45","-17","-26","-28","69","0.795654","0.091492","-0.598755","0.006836","-0.015267","-0.007634","0","9.215014","1.394873","2.644995","-0.133984","0.047852","0.035889","-0.077759","0.053833","-0.111255"
"W","1617451599.6560557","7","45","-15","-26","-28","65","0.795715","0.091675","-0.598633","0.006836","-0.007634","-0.015267","0","9.152807","1.40564","2.650977","-0.194995","0.055029","0.039478","-0.099292","0.066992","-0.16748"
"W","1617451599.646062","7","44","-15","-26","-25","68","0.795837","0.091675","-0.59845","0.006897","0","-0.022901","0","9.101367","1.393677","2.633032","-0.245239","0.044263","0.016748","-0.089722","0.0646","-0.22251"
"W","1617451599.6359398","7","44","-16","14","-30","65","0.796021","0.091614","-0.598267","0.006958","0","-0.022901","0","9.064282","1.370947","2.612695","-0.282324","0.022729","-0.007178","-0.075366","0.050244","-0.267969"
"W","1617451599.6261528","7","45","-18","-26","-26","69","0.796204","0.091553","-0.598022","0.006897","0","-0.015267","0","9.048731","1.354199","2.589966","-0.295483","0.005981","-0.035889","-0.050244","0.039478","-0.289502"
"W","1617451599.6161585","7","43","-17","-30","-26","65","0.796265","0.091431","-0.597961","0.006897","0","-0.007634","0","9.06189","1.344629","2.586377","-0.282324","-0.001196","-0.040674","-0.040674","0.0323","-0.279932"
"W","1617451599.6060283","7","41","-17","-23","-24","69","0.796265","0.09137","-0.597961","0.006836","0","0","0","9.106153","1.339844","2.576807","-0.238062","-0.005981","-0.050244","-0.019141","0.025122","-0.240454"
"W","1617451599.59598","7","45","-17","-27","-23","65","0.796143","0.091309","-0.598083","0.006775","0","0.007634","0","9.161181","1.329077","2.561255","-0.183032","-0.015552","-0.063403","0.00957","0.011963","-0.192603"
"W","1617451599.586059","7","44","-15","-26","12","63","0.795959","0.091309","-0.598328","0.006775","-0.007634","0.015267","-0.007634","9.20664","1.321899","2.544507","-0.13877","-0.022729","-0.07417","0.033496","0.002393","-0.154321"
"W","1617451599.575884","7","45","-15","-23","-25","69","0.795776","0.091248","-0.598572","0.006775","-0.007634","0.015267","-0.007634","9.232959","1.317114","2.522974","-0.114844","-0.026318","-0.089722","0.055029","0","-0.136377"
"W","1617451599.5663683","7","48","-17","-27","-26","68","0.795654","0.091187","-0.598816","0.006897","-0.007634","0.007634","-0.015267","9.235352","1.301563","2.479907","-0.114844","-0.039478","-0.128003","0.093311","-0.007178","-0.14834"
"W","1617451599.5558994","7","49","-32","-27","-30","69","0.795593","0.091125","-0.598877","0.007019","-0.007634","-0.007634","-0.015267","9.228174","1.2896","2.447608","-0.122021","-0.047852","-0.159106","0.122021","-0.00957","-0.165088"
"W","1617451599.5460365","7","45","-17","-26","-29","65","0.795654","0.091064","-0.598816","0.007141","0","-0.007634","-0.015267","9.2198","1.280029","2.444019","-0.130396","-0.056226","-0.165088","0.126807","-0.016748","-0.175854"
"W","1617451599.5360427","7","49","-13","-30","-26","67","0.795776","0.090942","-0.598694","0.007202","0","-0.015267","-0.007634","9.21023","1.280029","2.458374","-0.139966","-0.053833","-0.154321","0.113647","-0.015552","-0.181836"
"W","1617451599.5260403","7","47","-16","-26","-23","67","0.795898","0.090942","-0.598511","0.007263","-0.007634","-0.015267","0","9.216211","1.2896","2.495459","-0.132788","-0.043066","-0.120825","0.081348","-0.010767","-0.163892"
"W","1617451599.5159943","7","44","-15","-26","-24","65","0.796021","0.091003","-0.598328","0.007263","-0.007634","-0.007634","0","9.2198","1.291992","2.546899","-0.128003","-0.04187","-0.072974","0.037085","-0.016748","-0.147144"
"W","1617451599.505963","7","49","-16","-26","-22","71","0.796143","0.091125","-0.598206","0.007263","-0.015267","-0.007634","0","9.204248","1.311133","2.597144","-0.142358","-0.025122","-0.026318","-0.011963","-0.005981","-0.145947"
"W","1617451599.4962587","7","49","-17","-28","-26","63","0.796143","0.091309","-0.598083","0.007263","-0.015267","-0.007634","0","9.188696","1.337451","2.634228","-0.156714","-0.001196","0.008374","-0.05144","0.011963","-0.147144"
"W","1617451599.486102","7","45","-17","-26","-24","71","0.796143","0.091492","-0.598083","0.007324","-0.015267","-0.007634","0","9.173144","1.364966","2.644995","-0.172266","0.022729","0.020337","-0.070581","0.035889","-0.155518"
"W","1617451599.4760845","7","47","-15","-21","-26","67","0.796143","0.091675","-0.598022","0.007507","-0.015267","-0.007634","-0.007634","9.148023","1.396069","2.628247","-0.196191","0.052637","0.002393","-0.063403","0.069385","-0.178247"
"W","1617451599.466077","7","45","-16","-27","-24","65","0.796143","0.091797","-0.598022","0.00769","-0.015267","-0.007634","-0.007634","9.130078","1.41521","2.57561","-0.215332","0.071777","-0.049048","-0.022729","0.098096","-0.208154"
"W","1617451599.4560597","7","45","-13","-26","-22","69","0.796143","0.091858","-0.598022","0.007935","-0.015267","-0.007634","-0.007634","9.144434","1.400854","2.532544","-0.200977","0.059814","-0.092114","0.022729","0.092114","-0.208154"
"W","1617451599.4462855","7","44","-17","-26","-23","69","0.796143","0.091858","-0.598022","0.008179","-0.007634","0","-0.015267","9.179126","1.364966","2.493066","-0.166284","0.026318","-0.131592","0.07417","0.062207","-0.19021"
"W","1617451599.436252","7","45","-15","-26","-27","69","0.796143","0.091797","-0.598022","0.008423","-0.007634","0","-0.015267","9.207837","1.312329","2.477515","-0.13877","-0.020337","-0.147144","0.102881","0.015552","-0.173462"
"W","1617451599.4260912","7","45","-19","-28","-26","63","0.796082","0.091675","-0.598083","0.008545","0","0.007634","-0.015267","9.240137","1.258496","2.476318","-0.10647","-0.070581","-0.147144","0.117236","-0.035889","-0.149536"
"W","1617451599.4162064","7","44","-16","-26","-26","69","0.796082","0.091553","-0.598206","0.008606","0","0.007634","-0.007634","9.253296","1.217822","2.509815","-0.095703","-0.108862","-0.112451","0.092114","-0.080151","-0.135181"
"W","1617451599.4061112","7","44","-17","-25","-25","64","0.796021","0.091492","-0.598267","0.008606","0","0.007634","-0.007634","9.230566","1.184326","2.552881","-0.118433","-0.141162","-0.066992","0.046655","-0.11604","-0.149536"
"W","1617451599.3960898","7","44","-10","-24","-24","69","0.795959","0.091553","-0.598328","0.008545","-0.007634","0","0","9.189893","1.191504","2.600732","-0.159106","-0.136377","-0.017944","-0.010767","-0.114844","-0.174658"
"W","1617451599.386092","7","45","-16","-27","-27","67","0.795898","0.091675","-0.598389","0.008423","-0.007634","0","0","9.137256","1.235767","2.631836","-0.211743","-0.094507","0.014355","-0.061011","-0.07417","-0.210547"
"W","1617451599.3761437","7","49","-16","-28","-26","68","0.795837","0.091736","-0.598389","0.008362","0","0","0","9.110937","1.259692","2.661743","-0.236865","-0.072974","0.045459","-0.100488","-0.055029","-0.223706"
"W","1617451599.3661835","7","44","-18","-26","-27","67","0.795837","0.091736","-0.59845","0.008301","0","-0.007634","-0.007634","9.083423","1.265674","2.667725","-0.265576","-0.066992","0.05144","-0.114844","-0.047852","-0.247632"
"W","1617451599.3563287","7","47","-16","-26","-23","67","0.795837","0.091675","-0.59845","0.00824","0","-0.015267","-0.007634","9.057104","1.271655","2.639014","-0.291895","-0.061011","0.022729","-0.095703","-0.034692","-0.279932"
"W","1617451599.3461049","7","45","-16","-24","-25","65","0.795898","0.091614","-0.598389","0.00824","0","-0.015267","-0.007634","9.075048","1.272852","2.609107","-0.27395","-0.058618","-0.007178","-0.063403","-0.029907","-0.270361"
"W","1617451599.3362966","7","43","-17","-26","-38","63","0.795959","0.091553","-0.598328","0.00824","0","-0.007634","-0.007634","9.108545","1.268066","2.581592","-0.240454","-0.063403","-0.037085","-0.025122","-0.0323","-0.247632"
"W","1617451599.326094","7","45","-13","-22","-25","65","0.796021","0.091492","-0.598267","0.008179","0","-0.007634","0","9.146826","1.260889","2.56604","-0.200977","-0.070581","-0.053833","0.002393","-0.040674","-0.215332"
"W","1617451599.316372","7","47","-16","-24","-25","68","0.796021","0.091431","-0.598267","0.008118","0","0","0","9.179126","1.260889","2.552881","-0.168677","-0.069385","-0.066992","0.023926","-0.040674","-0.187817"
"W","1617451599.306212","7","46","-17","-28","-25","64","0.796021","0.09137","-0.598267","0.007996","0","0","0","9.21023","1.263281","2.564844","-0.137573","-0.068188","-0.055029","0.021533","-0.044263","-0.154321"
"W","1617451599.2960036","7","49","-17","-26","-24","65","0.795959","0.09137","-0.598328","0.007874","0","0.007634","0","9.228174","1.264477","2.594751","-0.119629","-0.068188","-0.023926","-0.002393","-0.05144","-0.129199"
"W","1617451599.286064","7","43","-16","-26","-25","64","0.795898","0.09137","-0.59845","0.007751","0","0","0","9.220996","1.282422","2.613892","-0.128003","-0.05144","-0.002393","-0.027515","-0.037085","-0.129199"
"W","1617451599.2762194","7","45","-15","-27","-25","67","0.795837","0.09137","-0.598511","0.007629","-0.007634","0","0","9.191089","1.30874","2.618677","-0.15791","-0.026318","0.002393","-0.043066","-0.010767","-0.153125"
"W","1617451599.266029","7","43","-15","-26","42","75","0.795837","0.091431","-0.598511","0.007629","-0.007634","-0.007634","-0.007634","9.146826","1.34104","2.612695","-0.202173","0.003589","-0.001196","-0.056226","0.022729","-0.192603"
"W","1617451599.2562685","7","47","-16","-24","-28","69","0.795898","0.091431","-0.59845","0.00769","-0.007634","-0.015267","-0.007634","9.104956","1.355396","2.594751","-0.244043","0.019141","-0.021533","-0.050244","0.045459","-0.235669"
"W","1617451599.2462263","7","44","-13","-26","-26","69","0.795959","0.091431","-0.598389","0.007751","-0.007634","-0.015267","-0.007634","9.069067","1.356592","2.582788","-0.279932","0.020337","-0.034692","-0.047852","0.05144","-0.272754"
"W","1617451599.2360551","7","45","-19","-26","-27","69","0.796021","0.091309","-0.598267","0.007874","0","-0.015267","-0.007634","9.054712","1.337451","2.55647","-0.293091","0.004785","-0.063403","-0.022729","0.04187","-0.295483"
"W","1617451599.2261982","7","48","-16","-26","-26","71","0.796082","0.091187","-0.598267","0.007874","0","-0.007634","-0.007634","9.067871","1.309937","2.527759","-0.279932","-0.020337","-0.093311","0.010767","0.020337","-0.294287"
"W","1617451599.2162344","7","43","-19","-27","-26","68","0.796082","0.091064","-0.598267","0.007874","0","0","-0.007634","9.095386","1.290796","2.494263","-0.252417","-0.037085","-0.128003","0.053833","0.007178","-0.279932"
"W","1617451599.2061248","7","48","-15","-22","-26","65","0.796021","0.090942","-0.598267","0.007874","0","0.007634","-0.007634","9.138453","1.281226","2.500244","-0.209351","-0.044263","-0.120825","0.059814","-0.003589","-0.236865"
"W","1617451599.1960888","7","45","-15","-24","-25","68","0.795959","0.090881","-0.598389","0.007812","0","0.007634","-0.007634","9.17793","1.272852","2.530151","-0.171069","-0.052637","-0.088525","0.04187","-0.021533","-0.193799"
"W","1617451599.1870496","7","42","-16","-24","-26","69","0.795898","0.090759","-0.598572","0.007751","0","0.007634","-0.007634","9.195874","1.260889","2.550488","-0.154321","-0.063403","-0.065796","0.026318","-0.037085","-0.172266"
"W","1617451599.1763697","7","44","-16","-27","-25","71","0.795776","0.090698","-0.598694","0.007751","0","0.007634","-0.007634","9.191089","1.248926","2.557666","-0.160303","-0.07417","-0.055029","0.015552","-0.049048","-0.177051"
"W","1617451599.1668837","7","45","-19","-28","-26","64","0.795715","0.090637","-0.598755","0.007751","0","0","-0.007634","9.186304","1.241748","2.555274","-0.165088","-0.080151","-0.056226","0.015552","-0.053833","-0.183032"
"W","1617451599.1570134","7","44","-17","-26","-28","68","0.795715","0.090576","-0.598816","0.007812","0","-0.007634","-0.007634","9.17793","1.236963","2.546899","-0.174658","-0.08374","-0.063403","0.020337","-0.055029","-0.193799"
"W","1617451599.146288","7","43","-17","-26","-26","64","0.795776","0.090515","-0.598755","0.007812","0","-0.015267","-0.007634","9.169556","1.250122","2.528955","-0.183032","-0.069385","-0.08374","0.035889","-0.037085","-0.205762"
"W","1617451599.136853","7","44","-16","-28","-24","62","0.795837","0.090454","-0.598633","0.007874","-0.007634","-0.015267","-0.007634","9.150415","1.269263","2.505029","-0.200977","-0.049048","-0.110059","0.052637","-0.011963","-0.227295"
"W","1617451599.1262443","7","45","-17","-27","-25","68","0.795959","0.090454","-0.59845","0.007935","-0.007634","-0.015267","-0.007634","9.138453","1.283618","2.502637","-0.211743","-0.033496","-0.11604","0.053833","0.004785","-0.236865"
"W","1617451599.116326","7","44","-17","-23","-23","69","0.796143","0.090454","-0.598267","0.008057","-0.007634","-0.015267","-0.007634","9.138453","1.297974","2.527759","-0.210547","-0.017944","-0.095703","0.0323","0.016748","-0.228491"
"W","1617451599.1068282","7","46","-17","-27","-24","64","0.796265","0.090454","-0.598022","0.008179","-0.015267","-0.015267","-0.007634","9.138453","1.319507","2.567236","-0.208154","0.003589","-0.061011","-0.001196","0.0323","-0.214136"
"W","1617451599.0963151","7","43","-18","-28","-28","65","0.796387","0.090515","-0.5979","0.008301","-0.007634","-0.015267","-0.007634","9.152807","1.33147","2.619873","-0.193799","0.015552","-0.011963","-0.045459","0.034692","-0.185425"
"W","1617451599.086958","7","44","-16","-26","-25","67","0.796448","0.090576","-0.597839","0.008362","-0.007634","-0.007634","0","9.159986","1.313525","2.647388","-0.186621","-0.002393","0.013159","-0.0646","0.013159","-0.174658"
"W","1617451599.0769303","7","42","-17","-26","-25","68","0.796509","0.090576","-0.597717","0.008423","0","-0.015267","-0.007634","9.149219","1.284814","2.661743","-0.196191","-0.029907","0.025122","-0.075366","-0.014355","-0.184229"
"W","1617451599.0669658","7","44","-17","-27","-26","65","0.79657","0.090515","-0.597656","0.008423","0","-0.015267","-0.007634","9.125293","1.26687","2.650977","-0.220117","-0.046655","0.011963","-0.068188","-0.026318","-0.212939"
"W","1617451599.057006","7","44","-20","-27","-28","69","0.796631","0.090515","-0.597595","0.008423","-0.007634","-0.015267","-0.007634","9.104956","1.275244","2.624658","-0.240454","-0.038281","-0.014355","-0.050244","-0.011963","-0.238062"
"W","1617451599.0469308","7","43","-17","-27","-28","63","0.796692","0.090576","-0.597473","0.008484","-0.007634","-0.007634","-0.007634","9.101367","1.297974","2.600732","-0.242847","-0.016748","-0.040674","-0.028711","0.011963","-0.244043"
"W","1617451599.0368829","7","47","-18","-28","-25","65","0.796753","0.090637","-0.597412","0.008545","-0.015267","-0.007634","-0.007634","9.101367","1.312329","2.579199","-0.242847","-0.002393","-0.063403","-0.008374","0.029907","-0.248828"
"W","1617451599.0269291","7","43","-15","-28","-25","67","0.796753","0.090637","-0.597412","0.008728","-0.007634","0","-0.007634","9.118115","1.303955","2.560059","-0.226099","-0.008374","-0.082544","0.014355","0.025122","-0.238062"
"W","1617451599.016868","7","45","-19","-28","-28","65","0.796692","0.090637","-0.597473","0.00885","-0.007634","0","-0.007634","9.154004","1.26687","2.546899","-0.19021","-0.044263","-0.094507","0.040674","-0.010767","-0.211743"
"W","1617451599.0068605","7","45","-17","-24","-26","67","0.796631","0.090637","-0.597534","0.008911","-0.007634","0.007634","-0.007634","9.191089","1.211841","2.543311","-0.154321","-0.098096","-0.096899","0.059814","-0.065796","-0.185425"
"W","1617451598.9968815","7","35","-15","-24","-26","65","0.796509","0.090637","-0.597717","0.008911","-0.007634","0.007634","-0.007634","9.225781","1.187915","2.560059","-0.120825","-0.122021","-0.075366","0.05144","-0.096899","-0.150732"
"W","1617451598.987067","7","48","-24","-26","-28","65","0.796387","0.090698","-0.597839","0.008911","-0.007634","0.007634","-0.007634","9.24851","1.1927","2.586377","-0.098096","-0.118433","-0.045459","0.028711","-0.099292","-0.120825"
"W","1617451598.976894","7","43","-16","-26","-26","67","0.796265","0.09082","-0.598022","0.008911","-0.015267","0","-0.007634","9.231763","1.214233","2.59834","-0.117236","-0.098096","-0.029907","0.005981","-0.080151","-0.132788"
"W","1617451598.9669597","7","45","-9","-28","-29","64","0.796204","0.090942","-0.598022","0.008972","-0.015267","-0.007634","-0.007634","9.186304","1.239355","2.582788","-0.161499","-0.07417","-0.044263","0.004785","-0.050244","-0.175854"
"W","1617451598.957044","7","40","-17","-28","-24","68","0.796265","0.091125","-0.598022","0.009094","-0.015267","-0.015267","-0.007634","9.131274","1.271655","2.574414","-0.217725","-0.043066","-0.052637","-0.005981","-0.013159","-0.227295"
"W","1617451598.946957","7","43","-17","-26","-28","65","0.796326","0.091248","-0.5979","0.009216","-0.015267","-0.015267","-0.007634","9.083423","1.294385","2.563648","-0.26438","-0.021533","-0.065796","-0.00957","0.013159","-0.271558"
"W","1617451598.9369326","7","45","-19","-27","-24","68","0.796448","0.091309","-0.597717","0.009399","-0.007634","-0.015267","-0.007634","9.06189","1.301563","2.561255","-0.284717","-0.013159","-0.072974","-0.00957","0.025122","-0.291895"
"W","1617451598.9268775","7","43","-18","-28","-26","67","0.79657","0.09137","-0.597534","0.009521","-0.007634","-0.015267","0","9.072657","1.290796","2.568433","-0.272754","-0.023926","-0.069385","-0.008374","0.011963","-0.281128"
"W","1617451598.9167898","7","44","-17","-26","-26","63","0.796631","0.09137","-0.597412","0.009583","-0.007634","-0.007634","0","9.119311","1.27644","2.585181","-0.224902","-0.037085","-0.055029","-0.007178","-0.005981","-0.233276"
"W","1617451598.907131","7","44","-18","-26","-25","67","0.796692","0.091431","-0.597351","0.009583","-0.007634","-0.007634","0","9.169556","1.27644","2.592358","-0.174658","-0.038281","-0.049048","0.001196","-0.013159","-0.184229"
"W","1617451598.8969502","7","43","-17","-26","-29","68","0.796692","0.091553","-0.59729","0.009521","-0.007634","-0.007634","0","9.215014","1.291992","2.604321","-0.128003","-0.025122","-0.038281","0.002393","-0.005981","-0.135181"
"W","1617451598.887047","7","47","-18","-26","-26","69","0.796692","0.091675","-0.59729","0.009521","-0.015267","-0.007634","0","9.247314","1.315918","2.615088","-0.095703","-0.003589","-0.026318","-0.001196","0.00957","-0.098096"
"W","1617451598.8769262","7","47","-17","-28","-30","63","0.796753","0.091797","-0.597229","0.009583","-0.007634","-0.007634","0","9.256885","1.31831","2.624658","-0.086133","-0.002393","-0.019141","-0.005981","0.008374","-0.087329"
"W","1617451598.8672185","7","47","-17","-27","-29","68","0.796753","0.091919","-0.597168","0.009644","-0.007634","-0.007634","-0.007634","9.2521","1.306348","2.628247","-0.089722","-0.015552","-0.015552","-0.008374","-0.003589","-0.090918"
"W","1617451598.8571837","7","42","-16","-24","-28","64","0.796875","0.09198","-0.597046","0.009705","-0.007634","-0.015267","-0.007634","9.222193","1.287207","2.628247","-0.119629","-0.034692","-0.019141","-0.010767","-0.019141","-0.123218"
"W","1617451598.8471262","7","43","-20","-27","-28","68","0.796997","0.09198","-0.596863","0.009766","0","-0.022901","-0.007634","9.188696","1.269263","2.629443","-0.151929","-0.052637","-0.021533","-0.015552","-0.033496","-0.156714"
"W","1617451598.8370426","7","45","-19","-27","-28","65","0.797119","0.091919","-0.59668","0.009827","0","-0.022901","-0.007634","9.158789","1.238159","2.63064","-0.18064","-0.082544","-0.025122","-0.016748","-0.059814","-0.189014"
"W","1617451598.8269236","7","44","-17","-26","-27","65","0.797302","0.091858","-0.596436","0.009827","0","-0.022901","-0.007634","9.109741","1.250122","2.643799","-0.228491","-0.069385","-0.017944","-0.039478","-0.043066","-0.230884"
"W","1617451598.817073","7","42","-18","-26","-24","67","0.797485","0.091858","-0.596191","0.009827","0","-0.015267","0","9.100171","1.272852","2.670117","-0.235669","-0.047852","0.002393","-0.063403","-0.025122","-0.229687"
"W","1617451598.8069968","7","46","-17","-28","-25","67","0.797607","0.091858","-0.596069","0.009766","-0.007634","-0.015267","0","9.102564","1.305151","2.708398","-0.233276","-0.016748","0.037085","-0.100488","0","-0.214136"
"W","1617451598.7971792","7","42","-18","-27","-27","65","0.797668","0.091919","-0.596008","0.009766","-0.007634","-0.007634","0","9.097778","1.335059","2.734717","-0.236865","0.011963","0.062207","-0.128003","0.023926","-0.206958"
"W","1617451598.7869313","7","45","-15","-27","-29","69","0.797668","0.091919","-0.595947","0.009766","-0.007634","-0.007634","0","9.089404","1.339844","2.745483","-0.245239","0.016748","0.071777","-0.141162","0.027515","-0.211743"
"W","1617451598.7769449","7","45","13","-28","-22","65","0.797668","0.091919","-0.595947","0.009766","0","-0.007634","-0.007634","9.076245","1.338647","2.72395","-0.258398","0.015552","0.050244","-0.124414","0.031104","-0.229687"
"W","1617451598.767062","7","43","-15","-28","-27","69","0.797668","0.091858","-0.595947","0.009827","0","-0.007634","-0.007634","9.077441","1.305151","2.684473","-0.257202","-0.015552","0.010767","-0.082544","0.005981","-0.244043"
"W","1617451598.757207","7","45","-16","-28","-68","68","0.797668","0.091736","-0.595947","0.009827","0","-0.007634","-0.007634","9.091797","1.271655","2.646191","-0.242847","-0.046655","-0.026318","-0.039478","-0.017944","-0.244043"
"W","1617451598.7469645","7","45","-17","-24","-24","68","0.797668","0.091614","-0.596008","0.009827","0.007634","0","-0.007634","9.1229","1.258496","2.60791","-0.211743","-0.058618","-0.0646","0.007178","-0.027515","-0.226099"
"W","1617451598.736983","7","45","-19","-27","-28","61","0.797607","0.091492","-0.596069","0.009766","0","0","0","9.134863","1.253711","2.574414","-0.200977","-0.062207","-0.096899","0.040674","-0.026318","-0.226099"
"W","1617451598.7271812","7","44","-16","-24","-26","68","0.797607","0.091492","-0.596069","0.009644","0","0","0","9.131274","1.270459","2.557666","-0.203369","-0.046655","-0.113647","0.053833","-0.008374","-0.230884"
"W","1617451598.7170467","7","45","-16","-30","-26","69","0.797607","0.091431","-0.59613","0.009521","0","0","0","9.134863","1.286011","2.554077","-0.200977","-0.031104","-0.11604","0.055029","0.005981","-0.226099"
"W","1617451598.7071393","7","42","-18","-24","-26","63","0.797546","0.091431","-0.596191","0.00946","0","0.007634","0","9.161181","1.291992","2.580395","-0.174658","-0.026318","-0.088525","0.035889","0.003589","-0.193799"
"W","1617451598.6970432","7","45","-21","-28","-26","69","0.797485","0.091431","-0.596313","0.009277","0","0.015267","0","9.192286","1.286011","2.610303","-0.144751","-0.033496","-0.056226","0.015552","-0.00957","-0.156714"
"W","1617451598.6869657","7","43","-19","-29","-24","65","0.797302","0.091431","-0.596497","0.009216","0","0.015267","0","9.21023","1.283618","2.635425","-0.126807","-0.037085","-0.026318","-0.005981","-0.020337","-0.132788"
"W","1617451598.6769795","7","45","-16","-27","-28","69","0.79718","0.09137","-0.59668","0.009094","0","0.007634","0","9.203052","1.280029","2.647388","-0.135181","-0.040674","-0.00957","-0.023926","-0.025122","-0.136377"
"W","1617451598.667097","7","43","-17","-26","-25","68","0.797119","0.09137","-0.596802","0.009094","0","-0.007634","-0.007634","9.154004","1.272852","2.624658","-0.185425","-0.047852","-0.029907","-0.017944","-0.023926","-0.19021"
"W","1617451598.6570742","7","43","-19","-25","-28","65","0.797119","0.09137","-0.596802","0.009033","0","-0.015267","-0.007634","9.10376","1.268066","2.591162","-0.235669","-0.052637","-0.063403","0","-0.019141","-0.248828"
"W","1617451598.6471174","7","44","-20","-27","-32","67","0.797241","0.091309","-0.596619","0.009094","-0.007634","-0.015267","-0.007634","9.066675","1.282422","2.569629","-0.271558","-0.037085","-0.089722","0.010767","0.002393","-0.287109"
"W","1617451598.6370547","7","41","-19","-27","-26","67","0.797363","0.091309","-0.596497","0.009094","-0.007634","-0.015267","-0.007634","9.054712","1.295581","2.549292","-0.283521","-0.023926","-0.112451","0.027515","0.020337","-0.303857"
"W","1617451598.277945","7","44","-15","-26","-29","69","0.797852","0.091492","-0.595825","0.009216","0","0","-0.007634","9.157593","1.229785","2.578003","-0.175854","-0.093311","-0.099292","0.053833","-0.058618","-0.206958"
"W","1617451598.2679284","7","43","-16","-28","-23","65","0.797791","0.091492","-0.595825","0.009216","0","0","-0.007634","9.16836","1.239355","2.578003","-0.163892","-0.082544","-0.098096","0.055029","-0.050244","-0.193799"
"W","1617451598.2578945","7","44","-17","-27","-25","68","0.797791","0.091431","-0.595886","0.009216","-0.007634","0","-0.007634","9.175537","1.260889","2.580395","-0.15791","-0.061011","-0.095703","0.05144","-0.029907","-0.184229"
"W","1617451598.24778","7","44","-16","-24","-27","67","0.797791","0.091431","-0.595886","0.009277","-0.007634","-0.007634","-0.007634","9.163574","1.280029","2.585181","-0.169873","-0.040674","-0.090918","0.04187","-0.00957","-0.191406"
"W","1617451598.2379117","7","43","-16","-26","-28","68","0.797791","0.091492","-0.595825","0.009338","-0.007634","-0.007634","-0.007634","9.146826","1.288403","2.588769","-0.186621","-0.0323","-0.087329","0.0323","0","-0.205762"
"W","1617451598.227998","7","48","-17","-24","-26","65","0.797852","0.091492","-0.595825","0.009399","-0.007634","-0.007634","-0.007634","9.137256","1.286011","2.585181","-0.196191","-0.034692","-0.092114","0.034692","0","-0.216528"
"W","1617451598.217842","7","45","-16","-27","-26","69","0.797852","0.091431","-0.595764","0.009399","0","-0.007634","-0.007634","9.146826","1.272852","2.595947","-0.185425","-0.046655","-0.082544","0.029907","-0.014355","-0.204565"
"W","1617451598.208079","7","45","-16","-23","-23","70","0.797913","0.091431","-0.595703","0.009399","-0.007634","-0.007634","0","9.1552","1.274048","2.616284","-0.177051","-0.045459","-0.063403","0.014355","-0.017944","-0.191406"
"W","1617451598.197958","7","47","-7","-27","-27","69","0.797974","0.091492","-0.595581","0.009399","-0.007634","-0.007634","-0.007634","9.134863","1.294385","2.635425","-0.196191","-0.026318","-0.046655","-0.008374","0","-0.202173"
"W","1617451598.1879568","7","45","-19","-26","-24","65","0.798035","0.091492","-0.59552","0.009521","-0.007634","-0.007634","-0.007634","9.12649","1.309937","2.659351","-0.204565","-0.00957","-0.025122","-0.033496","0.013159","-0.202173"
"W","1617451598.178016","7","45","-17","-24","-26","67","0.798096","0.091492","-0.595459","0.009583","-0.007634","-0.007634","-0.007634","9.138453","1.300366","2.668921","-0.192603","-0.017944","-0.016748","-0.037085","0.002393","-0.19021"
"W","1617451598.1680243","7","45","-16","-27","-24","69","0.798096","0.091431","-0.595398","0.009705","0","-0.015267","-0.007634","9.149219","1.280029","2.659351","-0.18064","-0.035889","-0.027515","-0.021533","-0.013159","-0.184229"
"W","1617451598.157875","7","45","-18","-26","-26","69","0.798218","0.09137","-0.595337","0.009827","0","-0.015267","-0.007634","9.149219","1.253711","2.635425","-0.181836","-0.061011","-0.053833","0.004785","-0.033496","-0.194995"
"W","1617451598.147971","7","41","-17","-29","-32","65","0.798279","0.091248","-0.595215","0.009888","0","-0.015267","-0.007634","9.161181","1.23457","2.618677","-0.168677","-0.077759","-0.072974","0.028711","-0.049048","-0.19021"
"W","1617451598.137957","7","45","-19","-26","-26","64","0.798401","0.091187","-0.595093","0.009888","0","-0.015267","-0.007634","9.185107","1.221411","2.648584","-0.144751","-0.089722","-0.046655","0.013159","-0.066992","-0.161499"
"W","1617451598.1278267","7","44","-21","-26","-24","67","0.798523","0.091125","-0.59491","0.009888","0","-0.015267","-0.007634","9.169556","1.227393","2.671314","-0.15791","-0.082544","-0.028711","-0.008374","-0.061011","-0.168677"
"W","1617451598.1181014","7","47","-16","-26","-24","68","0.798645","0.091125","-0.594788","0.009888","-0.007634","-0.015267","0","9.16836","1.2573","2.71438","-0.159106","-0.053833","0.010767","-0.049048","-0.039478","-0.155518"
"W","1617451598.1077898","7","45","-19","-24","-28","65","0.798706","0.091248","-0.594666","0.009888","-0.007634","-0.015267","0","9.157593","1.295581","2.75625","-0.168677","-0.016748","0.050244","-0.094507","-0.008374","-0.14834"
"W","1617451598.0980778","7","44","-15","-28","-38","68","0.798767","0.09137","-0.594543","0.009888","-0.015267","-0.015267","0","9.140844","1.342236","2.794531","-0.184229","0.026318","0.086133","-0.13877","0.028711","-0.147144"
"W","1617451598.0879495","7","44","-16","-26","-25","67","0.798828","0.091492","-0.594482","0.009949","-0.015267","-0.007634","0","9.12649","1.390088","2.813672","-0.198584","0.072974","0.104077","-0.165088","0.072974","-0.149536"
"W","1617451598.0778751","7","43","-19","-27","-30","65","0.798828","0.091614","-0.594482","0.01001","-0.007634","-0.007634","0","9.124097","1.408032","2.810083","-0.200977","0.089722","0.100488","-0.165088","0.090918","-0.150732"
"W","1617451598.067944","7","45","-19","-28","-26","68","0.798767","0.091614","-0.594543","0.010132","-0.007634","-0.007634","-0.007634","9.124097","1.384106","2.767017","-0.200977","0.066992","0.058618","-0.122021","0.07417","-0.165088"
"W","1617451598.0581234","7","47","-17","-27","-24","69","0.798706","0.091553","-0.594666","0.010254","0","0","-0.007634","9.131274","1.33147","2.697632","-0.196191","0.016748","-0.007178","-0.052637","0.034692","-0.185425"
"W","1617451598.048035","7","43","-17","-26","-24","64","0.798584","0.09137","-0.594788","0.010315","0","0","-0.015267","9.156397","1.268066","2.637817","-0.171069","-0.040674","-0.063403","0.014355","-0.013159","-0.185425"
"W","1617451598.0379455","7","43","-20","-27","-23","69","0.798523","0.091125","-0.59491","0.010376","0.007634","0.007634","-0.015267","9.194677","1.205859","2.601929","-0.133984","-0.099292","-0.098096","0.065796","-0.069385","-0.16748"
"W","1617451598.02815","7","45","-17","-26","-26","65","0.798462","0.090942","-0.595032","0.010437","0.007634","0.007634","-0.015267","9.218603","1.159204","2.583984","-0.111255","-0.141162","-0.113647","0.092114","-0.110059","-0.155518"
"W","1617451598.0178654","7","45","-19","-28","-28","65","0.798401","0.090759","-0.595154","0.010376","0","0.007634","-0.015267","9.237744","1.148438","2.587573","-0.093311","-0.150732","-0.107666","0.093311","-0.122021","-0.137573"
"W","1617451598.0080242","7","43","-19","-24","-28","68","0.79834","0.090698","-0.595276","0.010376","0","0.007634","-0.007634","9.237744","1.163989","2.622266","-0.094507","-0.133984","-0.070581","0.055029","-0.111255","-0.126807"
"W","1617451597.9981103","7","43","-21","-52","-27","64","0.798279","0.090698","-0.595337","0.010315","-0.007634","0.007634","-0.007634","9.212622","1.219019","2.655762","-0.119629","-0.078955","-0.035889","0.008374","-0.061011","-0.133984"
"W","1617451597.988068","7","45","-16","-27","-29","63","0.798218","0.090759","-0.595398","0.010376","-0.007634","0","-0.007634","9.170752","1.258496","2.690454","-0.162695","-0.039478","0","-0.04187","-0.023926","-0.159106"
"W","1617451597.9779613","7","48","-17","-27","-23","71","0.798218","0.09082","-0.595398","0.010437","-0.007634","-0.007634","-0.007634","9.11333","1.278833","2.719165","-0.220117","-0.019141","0.028711","-0.088525","-0.002393","-0.203369"
"W","1617451597.9682071","7","43","-19","-26","-26","65","0.798157","0.090881","-0.595459","0.010498","-0.007634","-0.007634","-0.007634","9.067871","1.2896","2.722754","-0.265576","-0.00957","0.033496","-0.107666","0.00957","-0.244043"
"W","1617451597.9580224","7","43","-18","-28","-30","67","0.798157","0.09082","-0.595459","0.01062","-0.007634","-0.007634","-0.007634","9.041553","1.281226","2.708398","-0.291895","-0.015552","0.019141","-0.100488","0.007178","-0.27395"
"W","1617451597.9481144","7","44","-17","-26","-27","69","0.798096","0.090759","-0.59552","0.010681","0","0","-0.007634","9.02959","1.254907","2.679688","-0.303857","-0.039478","-0.007178","-0.075366","-0.00957","-0.295483"
"W","1617451597.9379385","7","44","-19","-27","-28","67","0.798035","0.090637","-0.595642","0.010742","0.007634","0.007634","-0.007634","9.036768","1.219019","2.653369","-0.297876","-0.072974","-0.031104","-0.046655","-0.039478","-0.301465"
"W","1617451597.9281223","7","43","-16","-26","-28","69","0.797852","0.090515","-0.595886","0.010681","0.007634","0.015267","-0.007634","9.057104","1.193897","2.616284","-0.279932","-0.095703","-0.062207","-0.00957","-0.058618","-0.295483"
"W","1617451597.9180813","7","44","-16","-26","-30","68","0.797668","0.090393","-0.596191","0.010559","0.007634","0.015267","0","9.087011","1.18313","2.569629","-0.252417","-0.10647","-0.102881","0.037085","-0.0646","-0.282324"
"W","1617451597.9079711","7","43","-18","-29","-30","67","0.797485","0.090271","-0.596497","0.010315","0.007634","0.022901","0","9.109741","1.175952","2.544507","-0.23208","-0.113647","-0.122021","0.062207","-0.070581","-0.269165"
"W","1617451597.8981714","7","43","-17","-24","-29","67","0.797241","0.090332","-0.596802","0.010132","0","0.022901","0","9.127686","1.199878","2.507422","-0.215332","-0.092114","-0.151929","0.093311","-0.046655","-0.258398"
"W","1617451597.888001","7","43","-19","-25","-28","69","0.796997","0.090454","-0.597107","0.01001","-0.007634","0.015267","0","9.149219","1.241748","2.476318","-0.194995","-0.053833","-0.174658","0.11604","-0.007178","-0.239258"
"W","1617451597.8781087","7","43","-17","-27","-26","67","0.796814","0.090576","-0.59729","0.009949","-0.015267","0.015267","0","9.1552","1.277637","2.447608","-0.19021","-0.020337","-0.198584","0.136377","0.027515","-0.236865"
"W","1617451597.868114","7","45","-15","-24","-25","41","0.796692","0.090698","-0.597473","0.01001","-0.007634","0.007634","0","9.152807","1.275244","2.422485","-0.193799","-0.022729","-0.218921","0.154321","0.028711","-0.246436"
"W","1617451597.858114","7","43","-19","-32","-25","63","0.796631","0.090637","-0.597534","0.009949","0","0","-0.007634","9.16477","1.232178","2.409326","-0.181836","-0.065796","-0.230884","0.174658","-0.010767","-0.244043"
"W","1617451597.8480177","7","47","-16","-30","-27","68","0.796692","0.090515","-0.597473","0.009888","0.007634","0","-0.007634","9.183911","1.186719","2.416504","-0.162695","-0.110059","-0.224902","0.18064","-0.057422","-0.229687"
"W","1617451597.8379629","7","48","-17","-28","-26","68","0.796753","0.090454","-0.597412","0.009766","0","0","-0.007634","9.204248","1.1927","2.471533","-0.142358","-0.105273","-0.172266","0.135181","-0.063403","-0.196191"
"W","1617451597.8280816","7","45","-18","-27","-24","67","0.796814","0.090393","-0.597351","0.009705","0","-0.007634","0","9.209033","1.232178","2.554077","-0.136377","-0.065796","-0.090918","0.055029","-0.037085","-0.162695"
"W","1617451597.818087","7","29","-17","-27","-22","65","0.796875","0.090393","-0.597229","0.009583","0","-0.007634","0","9.194677","1.258496","2.635425","-0.149536","-0.040674","-0.011963","-0.026318","-0.023926","-0.150732"
"W","1617451597.808031","7","44","-16","-26","-75","64","0.796936","0.090454","-0.597107","0.009521","-0.007634","-0.015267","0","9.171948","1.278833","2.707202","-0.171069","-0.021533","0.056226","-0.099292","-0.013159","-0.150732"
"W","1617451597.7981105","7","45","-17","-26","-30","66","0.797058","0.090576","-0.596985","0.00946","-0.015267","-0.015267","0","9.131274","1.30874","2.738306","-0.211743","0.003589","0.08374","-0.139966","0.00957","-0.178247"
"W","1617451597.7881854","7","43","-17","-26","-27","64","0.797119","0.090759","-0.596863","0.009521","-0.015267","-0.015267","0","9.089404","1.348218","2.740698","-0.252417","0.040674","0.08374","-0.156714","0.050244","-0.211743"
"W","1617451597.7780142","7","45","-16","-24","-26","68","0.79718","0.090942","-0.596741","0.009644","-0.015267","-0.015267","0","9.063086","1.358984","2.716773","-0.277539","0.050244","0.058618","-0.141162","0.065796","-0.24165"
"W","1617451597.7683284","7","47","-16","-27","-24","70","0.797241","0.091003","-0.59668","0.009827","-0.007634","-0.015267","-0.007634","9.059497","1.326685","2.684473","-0.281128","0.019141","0.023926","-0.105273","0.040674","-0.258398"
"W","1617451597.7581134","7","44","-17","-26","-26","68","0.797241","0.090881","-0.59668","0.009949","0","-0.007634","-0.015267","9.085815","1.256104","2.636621","-0.25481","-0.046655","-0.022729","-0.045459","-0.017944","-0.25481"
"W","1617451597.7481585","7","41","-17","-26","-24","67","0.797241","0.090698","-0.596741","0.010071","0.007634","0","-0.015267","9.14563","1.1927","2.59834","-0.196191","-0.10647","-0.061011","0.014355","-0.076563","-0.216528"
"W","1617451597.7380595","7","45","-17","-24","-26","68","0.79718","0.090515","-0.596802","0.01001","0.007634","0","-0.007634","9.203052","1.153223","2.585181","-0.13877","-0.143555","-0.071777","0.045459","-0.11604","-0.169873"
"W","1617451597.7280018","7","44","-16","-28","-28","66","0.797119","0.090393","-0.596863","0.009949","0","0.007634","-0.007634","9.241333","1.158008","2.581592","-0.100488","-0.137573","-0.07417","0.057422","-0.113647","-0.133984"
"W","1617451597.7181406","7","47","-16","-26","-30","68","0.797119","0.090393","-0.596924","0.009827","0","0","0","9.2521","1.202271","2.60791","-0.090918","-0.094507","-0.047852","0.029907","-0.076563","-0.111255"
"W","1617451597.7081747","7","44","-19","-24","-26","68","0.797058","0.090515","-0.596985","0.009766","-0.007634","0","0","9.236547","1.268066","2.64021","-0.10647","-0.031104","-0.013159","-0.013159","-0.017944","-0.108862"
"W","1617451597.698207","7","44","-16","-24","-23","67","0.797119","0.090637","-0.596924","0.009705","-0.007634","-0.007634","0","9.19707","1.325488","2.67251","-0.145947","0.022729","0.016748","-0.059814","0.0323","-0.130396"
"W","1617451597.6880522","7","44","-16","-24","-24","65","0.797119","0.09082","-0.596863","0.009705","-0.007634","-0.007634","0","9.14563","1.364966","2.698828","-0.196191","0.058618","0.04187","-0.102881","0.068188","-0.16748"
"W","1617451597.678089","7","47","-19","-23","-27","64","0.79718","0.090881","-0.596802","0.009705","-0.007634","-0.007634","0","9.106153","1.376929","2.721558","-0.235669","0.069385","0.063403","-0.136377","0.080151","-0.197388"
"W","1617451597.6681068","7","43","-18","-24","-25","64","0.79718","0.090881","-0.596741","0.009705","0","-0.007634","0","9.100171","1.349414","2.720361","-0.240454","0.04187","0.062207","-0.132788","0.052637","-0.205762"
"W","1617451597.658031","7","48","-15","-28","-24","68","0.79718","0.090759","-0.596802","0.009705","0.007634","-0.007634","-0.007634","9.106153","1.311133","2.690454","-0.235669","0.005981","0.0323","-0.098096","0.021533","-0.214136"
"W","1617451597.648122","7","47","-16","-27","-26","67","0.79718","0.090576","-0.596802","0.009644","0.007634","0","-0.007634","9.125293","1.278833","2.656958","-0.216528","-0.022729","0","-0.058618","-0.001196","-0.209351"
"W","1617451597.6382065","7","46","-15","-26","-28","67","0.797119","0.090332","-0.596924","0.009644","0.007634","0","-0.007634","9.14563","1.250122","2.611499","-0.197388","-0.047852","-0.044263","-0.008374","-0.021533","-0.205762"
"W","1617451597.6280153","7","45","-15","-24","-20","69","0.797058","0.090149","-0.597046","0.009583","0.007634","0.007634","-0.007634","9.17793","1.233374","2.572021","-0.165088","-0.062207","-0.081348","0.037085","-0.0323","-0.186621"
"W","1617451597.618938","7","45","-15","-26","-26","68","0.796936","0.089966","-0.597229","0.00946","0.007634","0.015267","-0.007634","9.19707","1.236963","2.546899","-0.147144","-0.057422","-0.102881","0.062207","-0.026318","-0.174658"
"W","1617451597.608245","7","45","-16","-26","-26","69","0.796814","0.089844","-0.597412","0.009399","0","0.015267","-0.007634","9.212622","1.245337","2.536133","-0.133984","-0.046655","-0.110059","0.071777","-0.015552","-0.162695"
"W","1617451597.5981405","7","47","-17","-26","-28","67","0.796692","0.089783","-0.597595","0.009338","0","0.015267","-0.007634","9.223389","1.250122","2.548096","-0.124414","-0.04187","-0.093311","0.057422","-0.014355","-0.14834"
