"Alphabet","timestamp","user_id","flex_1","flex_2","flex_3","flex_4","flex_5","Qw","Qx","Qy","Qz","GYRx","GYRy","GYRz","ACCx","ACCy","ACCz","ACCx_body","ACCy_body","ACCz_body","ACCx_world","ACCy_world","ACCz_world"
"X","1617451681.601092","7","41","5","61","59","37","0.861877","0.08728","-0.499084","-0.022461","-0.015267","0.045802","-0.022901","8.047437","1.771704","4.537524","-0.344531","0.076563","-0.230884","0.022729","0.147144","-0.393579"
"X","1617451681.5913205","7","41","8","63","63","39","0.861389","0.087097","-0.499878","-0.022156","0","0.045802","-0.022901","8.043848","1.752563","4.469336","-0.35769","0.0646","-0.283521","0.063403","0.143555","-0.43186"
"X","1617451681.581149","7","40","8","62","59","41","0.861084","0.08667","-0.500549","-0.021973","0.022901","0.038168","-0.022901","8.053418","1.68916","4.407129","-0.356494","0.010767","-0.334961","0.111255","0.096899","-0.465356"
"X","1617451681.571087","7","41","8","61","58","39","0.860779","0.08606","-0.501099","-0.021973","0.030534","0.022901","-0.022901","8.048633","1.585083","4.335351","-0.368457","-0.082544","-0.397168","0.163892","0.014355","-0.521582"
"X","1617451681.561165","7","39","7","59","63","41","0.860657","0.085327","-0.501404","-0.022034","0.030534","0.015267","-0.022901","8.031885","1.467847","4.275537","-0.388794","-0.187817","-0.452197","0.206958","-0.080151","-0.583789"
"X","1617451681.5512412","7","38","5","61","61","39","0.860657","0.084656","-0.501587","-0.022095","0.030534","0.007634","-0.022901","8.025904","1.379321","4.243237","-0.398364","-0.265576","-0.484497","0.234473","-0.151929","-0.619678"
"X","1617451681.5413218","7","39","8","34","62","39","0.860657","0.084106","-0.501648","-0.022156","0.022901","0","-0.022901","8.021118","1.312329","4.21333","-0.404346","-0.324194","-0.514404","0.259595","-0.205762","-0.649585"
"X","1617451681.5311017","7","38","5","38","61","40","0.860718","0.083679","-0.501648","-0.022156","0.015267","0","-0.022901","8.04624","1.260889","4.201367","-0.379224","-0.368457","-0.52876","0.287109","-0.251221","-0.642407"
"X","1617451681.5212982","7","39","8","61","62","39","0.860779","0.083374","-0.501648","-0.022156","0.007634","0","-0.015267","8.079737","1.239355","4.209741","-0.346924","-0.384009","-0.521582","0.29668","-0.272754","-0.613696"
"X","1617451681.5112307","7","42","3","63","59","37","0.860779","0.083313","-0.501526","-0.022156","0","0","-0.007634","8.118017","1.225","4.233667","-0.30625","-0.398364","-0.498853","0.297876","-0.294287","-0.569434"
"X","1617451681.5012383","7","42","5","61","63","27","0.86084","0.083374","-0.501465","-0.022156","-0.007634","0","-0.007634","8.159887","1.241748","4.264771","-0.26438","-0.381616","-0.468945","0.291895","-0.285913","-0.516797"
"X","1617451681.491209","7","32","8","62","63","37","0.86084","0.083618","-0.501404","-0.022156","-0.015267","-0.007634","0","8.192187","1.274048","4.306641","-0.230884","-0.354102","-0.427075","0.271558","-0.267969","-0.462964"
"X","1617451681.4811604","7","39","0","60","60","37","0.860901","0.084045","-0.501282","-0.022156","-0.022901","-0.007634","0.007634","8.181421","1.333862","4.328174","-0.240454","-0.301465","-0.407935","0.247632","-0.216528","-0.453394"
"X","1617451681.4711387","7","40","7","60","59","42","0.860962","0.084534","-0.501038","-0.022217","-0.022901","-0.015267","0.007634","8.177832","1.406836","4.362866","-0.239258","-0.236865","-0.375635","0.216528","-0.156714","-0.425879"
"X","1617451681.461182","7","39","1","61","58","40","0.861084","0.085083","-0.500793","-0.022278","-0.022901","-0.015267","0.015267","8.17544","1.47981","4.39397","-0.239258","-0.174658","-0.34812","0.19021","-0.098096","-0.403149"
"X","1617451681.451002","7","39","5","62","60","39","0.861145","0.085571","-0.500549","-0.022461","-0.022901","-0.015267","0.022901","8.173047","1.549194","4.423877","-0.236865","-0.114844","-0.320605","0.165088","-0.043066","-0.378027"
"X","1617451681.441275","7","39","6","61","64","39","0.861267","0.086243","-0.500244","-0.022644","-0.038168","-0.015267","0.022901","8.199366","1.64729","4.481299","-0.205762","-0.029907","-0.266772","0.129199","0.029907","-0.309839"
"X","1617451681.431275","7","40","7","62","60","37","0.861328","0.086975","-0.500061","-0.022827","-0.045802","-0.007634","0.030534","8.248413","1.765723","4.544702","-0.154321","0.072974","-0.205762","0.096899","0.117236","-0.218921"
"X","1617451681.4212062","7","40","5","61","58","39","0.861328","0.087769","-0.499878","-0.022949","-0.045802","-0.007634","0.022901","8.311816","1.866211","4.627246","-0.087329","0.159106","-0.123218","0.055029","0.183032","-0.10647"
"X","1617451681.411238","7","41","5","60","60","37","0.861328","0.088562","-0.499695","-0.022949","-0.045802","-0.015267","0.015267","8.38479","1.941577","4.72893","-0.010767","0.221313","-0.022729","0.002393","0.221313","0.017944"
"X","1617451681.4013157","7","39","4","60","58","39","0.861389","0.089294","-0.499512","-0.022766","-0.038168","-0.022901","0.015267","8.450586","1.976269","4.848559","0.056226","0.245239","0.094507","-0.065796","0.221313","0.136377"
"X","1617451681.3910909","7","43","7","63","62","41","0.861511","0.089783","-0.499146","-0.022644","-0.030534","-0.030534","0.007634","8.504419","1.957129","4.962207","0.114844","0.218921","0.203369","-0.129199","0.173462","0.235669"
"X","1617451681.3812563","7","40","7","61","64","37","0.861755","0.090088","-0.498779","-0.022522","-0.015267","-0.038168","0.007634","8.549878","1.915259","5.060303","0.163892","0.172266","0.294287","-0.18064","0.108862","0.313428"
"X","1617451681.371334","7","38","7","62","60","39","0.862","0.09021","-0.498352","-0.022461","-0.007634","-0.038168","0","8.578588","1.861426","5.138062","0.197388","0.117236","0.364868","-0.221313","0.040674","0.367261"
"X","1617451681.3613102","7","36","7","61","59","40","0.862183","0.090332","-0.497864","-0.0224","-0.007634","-0.038168","0","8.564234","1.829126","5.190698","0.19021","0.08374","0.409131","-0.260791","0.002393","0.376831"
"X","1617451681.3510578","7","40","5","61","62","37","0.862427","0.090515","-0.497498","-0.022339","-0.015267","-0.038168","-0.007634","8.517578","1.850659","5.213428","0.147144","0.101685","0.424683","-0.29668","0.023926","0.350513"
"X","1617451681.3414416","7","39","1","62","58","40","0.86261","0.09082","-0.497131","-0.022156","-0.022901","-0.030534","-0.007634","8.446997","1.916455","5.201465","0.081348","0.163892","0.406738","-0.317017","0.095703","0.29668"
"X","1617451681.331297","7","39","3","62","63","40","0.862671","0.091003","-0.497009","-0.021851","-0.015267","-0.015267","-0.007634","8.383594","1.965503","5.16438","0.017944","0.212939","0.368457","-0.319409","0.156714","0.233276"
"X","1617451681.321319","7","40","8","62","62","40","0.86261","0.091064","-0.49707","-0.021667","-0.007634","-0.007634","-0.007634","8.327368","1.900903","5.073462","-0.037085","0.149536","0.278735","-0.266772","0.113647","0.130396"
"X","1617451681.31143","7","41","5","60","63","40","0.862549","0.091064","-0.497192","-0.021606","-0.007634","-0.007634","-0.007634","8.281909","1.890137","4.976562","-0.084937","0.139966","0.184229","-0.208154","0.123218","0.04187"
"X","1617451681.3012516","7","38","7","59","63","40","0.862488","0.091003","-0.497314","-0.021484","-0.007634","0","-0.007634","8.252002","1.898511","4.885644","-0.11604","0.149536","0.095703","-0.14834","0.14834","-0.025122"
"X","1617451681.2918794","7","38","5","62","60","37","0.862366","0.090942","-0.497498","-0.021423","0","0.007634","-0.015267","8.247217","1.887744","4.813867","-0.123218","0.141162","0.027515","-0.093311","0.149536","-0.065796"
"X","1617451681.2814374","7","38","5","61","61","39","0.862244","0.090759","-0.497803","-0.021301","0","0.015267","-0.015267","8.256787","1.866211","4.763623","-0.117236","0.124414","-0.016748","-0.050244","0.13877","-0.086133"
"X","1617451681.2720554","7","41","7","60","59","40","0.862122","0.090576","-0.498047","-0.021179","0","0.015267","-0.015267","8.261572","1.8698","4.737305","-0.11604","0.131592","-0.039478","-0.031104","0.14834","-0.094507"
"X","1617451681.2612183","7","41","4","61","62","40","0.862","0.090332","-0.498352","-0.020996","0","0.015267","-0.022901","8.266357","1.87937","4.750464","-0.11604","0.147144","-0.021533","-0.046655","0.161499","-0.08374"
"X","1617451681.25203","7","39","7","61","62","39","0.861816","0.090149","-0.498657","-0.020752","-0.007634","0.007634","-0.022901","8.247217","1.887744","4.780371","-0.13877","0.161499","0.013159","-0.089722","0.173462","-0.08374"
"X","1617451681.2412295","7","38","5","62","60","39","0.861816","0.089966","-0.498779","-0.020508","0","-0.007634","-0.015267","8.196973","1.88894","4.776782","-0.191406","0.168677","0.010767","-0.113647","0.187817","-0.128003"
"X","1617451681.2320924","7","40","6","60","60","40","0.861816","0.089722","-0.49884","-0.020264","0.007634","-0.007634","-0.015267","8.179029","1.855444","4.768408","-0.210547","0.141162","0.002393","-0.114844","0.163892","-0.154321"
"X","1617451681.2213871","7","38","5","62","59","39","0.861816","0.089355","-0.498901","-0.02002","0.015267","0","-0.015267","8.193384","1.788452","4.749268","-0.198584","0.082544","-0.015552","-0.089722","0.107666","-0.162695"
"X","1617451681.2122257","7","39","9","62","60","37","0.861755","0.088867","-0.499023","-0.019958","0.015267","0.007634","-0.015267","8.22688","1.713086","4.73252","-0.166284","0.016748","-0.031104","-0.056226","0.040674","-0.154321"
"X","1617451681.2021277","7","40","1","58","62","37","0.861694","0.08844","-0.499207","-0.019897","0.007634","0.007634","-0.022901","8.275928","1.678394","4.734912","-0.119629","-0.00957","-0.026318","-0.035889","0.008374","-0.11604"
"X","1617451681.1919065","7","39","8","61","63","40","0.861572","0.088135","-0.499451","-0.019775","0.007634","0.007634","-0.022901","8.28789","1.658057","4.726538","-0.111255","-0.022729","-0.031104","-0.027515","-0.003589","-0.113647"
"X","1617451681.1820238","7","40","8","60","57","38","0.861511","0.087891","-0.499695","-0.019592","0","0.007634","-0.022901","8.28789","1.63772","4.707397","-0.114844","-0.037085","-0.046655","-0.014355","-0.015552","-0.126807"
"X","1617451681.172093","7","40","8","60","62","39","0.861389","0.087585","-0.499878","-0.019409","0.007634","0.015267","-0.022901","8.304639","1.607813","4.699023","-0.100488","-0.061011","-0.05144","-0.002393","-0.040674","-0.120825"
"X","1617451681.1621456","7","40","5","60","48","58","0.861267","0.087341","-0.500183","-0.019287","0.007634","0.015267","-0.022901","8.323779","1.583887","4.703809","-0.086133","-0.078955","-0.04187","-0.002393","-0.061011","-0.10647"
"X","1617451681.1521585","7","38","6","58","58","38","0.861206","0.087036","-0.500427","-0.019165","0.015267","0.007634","-0.015267","8.338135","1.559961","4.714575","-0.075366","-0.096899","-0.028711","-0.007178","-0.082544","-0.094507"
"X","1617451681.142071","7","39","-11","60","61","37","0.861145","0.08667","-0.500549","-0.019165","0.015267","-0.007634","-0.015267","8.315405","1.542017","4.701416","-0.100488","-0.107666","-0.039478","-0.00957","-0.088525","-0.123218"
"X","1617451681.1320126","7","39","-6","61","63","41","0.861206","0.086365","-0.500488","-0.019165","0.015267","-0.015267","-0.015267","8.305835","1.506128","4.675097","-0.108862","-0.13877","-0.068188","0.011963","-0.113647","-0.149536"
"X","1617451681.1220665","7","40","3","60","39","37","0.861267","0.085999","-0.500366","-0.019226","0.022901","-0.015267","-0.015267","8.308228","1.448706","4.657153","-0.105273","-0.191406","-0.089722","0.034692","-0.163892","-0.165088"
"X","1617451681.1121378","7","38","5","60","62","38","0.861389","0.085571","-0.500244","-0.019287","0.022901","-0.015267","-0.015267","8.311816","1.398462","4.639209","-0.100488","-0.234473","-0.111255","0.057422","-0.204565","-0.178247"
"X","1617451681.1020358","7","40","5","60","59","39","0.861511","0.085266","-0.500122","-0.019348","0.015267","-0.007634","-0.007634","8.324976","1.378125","4.655957","-0.087329","-0.251221","-0.098096","0.053833","-0.223706","-0.163892"
"X","1617451681.0921054","7","39","7","61","60","39","0.861633","0.085022","-0.5","-0.01947","0.007634","-0.007634","-0.007634","8.314209","1.375732","4.65835","-0.096899","-0.250024","-0.099292","0.050244","-0.221313","-0.172266"
"X","1617451681.0819857","7","39","6","60","60","37","0.861694","0.084961","-0.499878","-0.019531","0.007634","-0.007634","-0.007634","8.311816","1.394873","4.665527","-0.098096","-0.230884","-0.094507","0.044263","-0.203369","-0.16748"
"X","1617451681.0719504","7","40","6","61","62","39","0.861694","0.084839","-0.499878","-0.019653","0.007634","0","-0.007634","8.308228","1.409229","4.66792","-0.100488","-0.215332","-0.092114","0.039478","-0.187817","-0.166284"
"X","1617451681.062076","7","41","7","60","68","38","0.861694","0.084778","-0.499878","-0.019775","0.015267","-0.007634","0","8.292676","1.417603","4.657153","-0.11604","-0.206958","-0.104077","0.04187","-0.175854","-0.184229"
"X","1617451681.0522206","7","40","5","60","63","39","0.861755","0.084656","-0.499817","-0.020081","0.015267","-0.015267","0.007634","8.269946","1.41521","4.629639","-0.13877","-0.210547","-0.132788","0.055029","-0.173462","-0.217725"
"X","1617451681.042103","7","41","6","59","60","40","0.861877","0.084534","-0.499634","-0.020386","0.015267","-0.015267","0.007634","8.237646","1.414014","4.59375","-0.168677","-0.212939","-0.173462","0.075366","-0.16748","-0.26438"
"X","1617451681.032014","7","41","7","63","60","35","0.862","0.084412","-0.49939","-0.020752","0.015267","-0.015267","0.007634","8.208936","1.428369","4.559058","-0.193799","-0.19978","-0.212939","0.095703","-0.145947","-0.302661"
"X","1617451681.022051","7","41","7","61","60","37","0.862122","0.084351","-0.499146","-0.021118","0.007634","-0.015267","0.007634","8.19458","1.445117","4.539917","-0.204565","-0.186621","-0.236865","0.110059","-0.129199","-0.321802"
"X","1617451681.0120318","7","40","6","60","62","40","0.862244","0.08429","-0.498962","-0.021362","0.007634","-0.007634","0.007634","8.192187","1.454687","4.543506","-0.204565","-0.178247","-0.236865","0.110059","-0.120825","-0.319409"
"X","1617451681.0020697","7","42","7","63","58","39","0.862366","0.084229","-0.498779","-0.021606","0.007634","-0.015267","0.007634","8.19458","1.459473","4.548291","-0.19978","-0.174658","-0.235669","0.111255","-0.118433","-0.314624"
"X","1617451680.9919956","7","39","8","60","60","41","0.862427","0.084229","-0.498596","-0.021851","0.007634","-0.015267","0.007634","8.186206","1.470239","4.545898","-0.205762","-0.166284","-0.24165","0.112451","-0.108862","-0.321802"
"X","1617451680.982046","7","40","7","62","61","40","0.862549","0.084229","-0.498413","-0.022156","0.007634","-0.015267","0.007634","8.188599","1.483398","4.545898","-0.19978","-0.156714","-0.245239","0.118433","-0.099292","-0.317017"
"X","1617451680.9720273","7","40","7","63","60","37","0.862732","0.084229","-0.498047","-0.022461","0.007634","-0.030534","0.015267","8.163477","1.503735","4.545898","-0.220117","-0.13877","-0.252417","0.112451","-0.077759","-0.334961"
"X","1617451680.9622166","7","39","6","59","64","39","0.862976","0.084229","-0.49762","-0.022827","0.015267","-0.038168","0.015267","8.131177","1.513306","4.543506","-0.247632","-0.133984","-0.263184","0.107666","-0.068188","-0.362476"
"X","1617451680.9519408","7","39","5","60","59","36","0.863342","0.084229","-0.497009","-0.023254","0.015267","-0.045802","0.022901","8.085718","1.516895","4.550683","-0.285913","-0.133984","-0.267969","0.092114","-0.063403","-0.398364"
"X","1617451680.942224","7","39","5","61","61","35","0.863708","0.084229","-0.496277","-0.023804","0.015267","-0.045802","0.022901","8.042651","1.543213","4.566236","-0.318213","-0.113647","-0.266772","0.072974","-0.039478","-0.42229"
"X","1617451680.932104","7","40","5","60","58","37","0.864075","0.08429","-0.495605","-0.024292","0.007634","-0.045802","0.022901","8.017529","1.594653","4.596143","-0.334961","-0.068188","-0.248828","0.046655","0.004785","-0.419897"
"X","1617451680.922213","7","40","6","60","64","41","0.864441","0.084473","-0.494934","-0.024719","0","-0.038168","0.022901","8.00437","1.664038","4.653564","-0.339746","-0.005981","-0.204565","0.002393","0.061011","-0.391187"
"X","1617451680.91207","7","40","6","60","59","37","0.864746","0.084717","-0.494385","-0.025146","0","-0.038168","0.022901","7.991211","1.728638","4.714575","-0.345728","0.049048","-0.153125","-0.046655","0.110059","-0.361279"
"X","1617451680.9020925","7","38","5","58","60","37","0.86499","0.0849","-0.493896","-0.025452","-0.007634","-0.038168","0.022901","7.988818","1.780078","4.771997","-0.342139","0.093311","-0.105273","-0.087329","0.14834","-0.326587"
"X","1617451680.8921995","7","41","5","61","63","38","0.865234","0.085083","-0.493408","-0.025696","-0.007634","-0.038168","0.015267","7.9948","1.81477","4.827026","-0.328979","0.123218","-0.058618","-0.122021","0.169873","-0.287109"
"X","1617451680.8820615","7","41","4","61","62","37","0.865479","0.085205","-0.492981","-0.02594","-0.007634","-0.038168","0.015267","8.005567","1.839893","4.877271","-0.313428","0.143555","-0.016748","-0.150732","0.183032","-0.248828"
"X","1617451680.872122","7","40","7","58","61","39","0.865662","0.085327","-0.492554","-0.026062","-0.007634","-0.038168","0.015267","8.030688","1.851856","4.904785","-0.282324","0.151929","0.002393","-0.151929","0.185425","-0.211743"
"X","1617451680.8620608","7","40","4","62","60","39","0.865906","0.085449","-0.492188","-0.026245","-0.007634","-0.030534","0.015267","8.070166","1.861426","4.907178","-0.238062","0.15791","-0.001196","-0.126807","0.185425","-0.174658"
"X","1617451680.852068","7","40","5","60","57","39","0.866028","0.085632","-0.491882","-0.026367","-0.007634","-0.022901","0.015267","8.126391","1.870996","4.896411","-0.178247","0.162695","-0.016748","-0.082544","0.184229","-0.130396"
"X","1617451680.84222","7","38","5","60","61","39","0.86615","0.085815","-0.491638","-0.026489","-0.007634","-0.015267","0.015267","8.181421","1.8698","4.856934","-0.119629","0.156714","-0.061011","-0.014355","0.177051","-0.104077"
"X","1617451680.832166","7","39","6","60","60","40","0.866211","0.085999","-0.491516","-0.026611","-0.007634","-0.015267","0.007634","8.235254","1.855444","4.818652","-0.0646","0.13877","-0.100488","0.046655","0.156714","-0.080151"
"X","1617451680.8221235","7","39","7","60","63","41","0.866272","0.086121","-0.491394","-0.026733","-0.015267","-0.007634","0.007634","8.289087","1.844678","4.806689","-0.008374","0.124414","-0.114844","0.088525","0.137573","-0.04187"
"X","1617451680.8120985","7","56","6","60","60","40","0.866333","0.086304","-0.491211","-0.026733","-0.015267","-0.015267","0.007634","8.327368","1.826733","4.801904","0.031104","0.102881","-0.122021","0.11604","0.111255","-0.016748"
"X","1617451680.8021734","7","40","5","62","62","38","0.866394","0.086487","-0.491028","-0.026794","-0.015267","-0.022901","0.007634","8.34292","1.806396","4.810278","0.049048","0.078955","-0.11604","0.120825","0.084937","-0.002393"
"X","1617451680.7921228","7","41","5","59","59","36","0.866638","0.086609","-0.490601","-0.026794","-0.007634","-0.030534","0.007634","8.330957","1.770508","4.830615","0.04187","0.040674","-0.104077","0.108862","0.046655","-0.00957"
"X","1617451680.782108","7","41","4","58","62","39","0.866882","0.086792","-0.490112","-0.026855","-0.007634","-0.038168","0.007634","8.309423","1.723853","4.853345","0.027515","-0.008374","-0.089722","0.090918","0","-0.022729"
"X","1617451680.772103","7","38","4","60","59","39","0.867249","0.086853","-0.489502","-0.027039","0","-0.038168","0.015267","8.283106","1.696338","4.879663","0.008374","-0.038281","-0.075366","0.069385","-0.028711","-0.037085"
"X","1617451680.762164","7","39","3","58","61","41","0.867554","0.086975","-0.488892","-0.027344","0.007634","-0.030534","0.015267","8.262769","1.69873","4.933496","-0.003589","-0.04187","-0.0323","0.026318","-0.035889","-0.026318"
"X","1617451680.7522123","7","39","8","63","60","42","0.867798","0.087097","-0.488403","-0.02771","0.007634","-0.030534","0.022901","8.234057","1.733423","5.001685","-0.025122","-0.013159","0.025122","-0.033496","-0.011963","-0.00957"
"X","1617451680.742169","7","39","7","59","61","39","0.868042","0.087219","-0.487976","-0.028076","0","-0.030534","0.015267","8.19458","1.796826","5.069873","-0.058618","0.044263","0.084937","-0.104077","0.040674","0.001196"
"X","1617451680.7322264","7","40","4","46","62","40","0.868225","0.087463","-0.487549","-0.028381","-0.007634","-0.022901","0.015267","8.168262","1.875781","5.150024","-0.078955","0.11604","0.159106","-0.18064","0.104077","0.034692"
"X","1617451680.722381","7","41","-17","59","63","40","0.868347","0.087646","-0.487305","-0.028564","-0.007634","-0.022901","0.007634","8.159887","1.939185","5.237353","-0.08374","0.173462","0.24165","-0.25481","0.150732","0.08374"
"X","1617451680.712283","7","39","6","60","63","40","0.868469","0.087769","-0.487061","-0.028625","-0.007634","-0.022901","0.007634","8.149121","1.959522","5.313916","-0.092114","0.191406","0.314624","-0.321802","0.160303","0.117236"
"X","1617451680.702232","7","39","5","62","59","39","0.86853","0.08783","-0.486877","-0.028625","-0.007634","-0.015267","0","8.153906","1.949951","5.376123","-0.084937","0.18064","0.373242","-0.368457","0.142358","0.150732"
"X","1617451680.692384","7","42","6","60","62","39","0.868591","0.08783","-0.486816","-0.028442","-0.007634","-0.015267","-0.007634","8.181421","1.934399","5.409619","-0.056226","0.16748","0.405542","-0.38042","0.120825","0.189014"
"X","1617451680.6821628","7","43","6","62","60","39","0.86853","0.08783","-0.486877","-0.028259","-0.007634","-0.007634","-0.015267","8.211329","1.9021","5.40603","-0.027515","0.136377","0.403149","-0.361279","0.087329","0.206958"
"X","1617451680.6721032","7","40","5","61","59","38","0.86853","0.087708","-0.487","-0.028015","0","-0.007634","-0.015267","8.225683","1.849463","5.359375","-0.015552","0.088525","0.35769","-0.314624","0.044263","0.184229"
"X","1617451680.6621487","7","41","4","61","58","41","0.868469","0.087463","-0.487122","-0.027832","0.007634","-0.007634","-0.015267","8.228076","1.782471","5.286401","-0.015552","0.027515","0.287109","-0.252417","-0.005981","0.137573"
"X","1617451680.6521342","7","39","5","63","58","35","0.868408","0.087219","-0.487305","-0.02771","0.007634","0","-0.022901","8.241236","1.741797","5.205054","-0.004785","-0.007178","0.208154","-0.178247","-0.0323","0.100488"
"X","1617451680.642338","7","41","6","62","62","42","0.868286","0.086853","-0.487549","-0.027588","0.015267","0.007634","-0.022901","8.23645","1.717871","5.114136","-0.013159","-0.022729","0.120825","-0.108862","-0.034692","0.045459"
"X","1617451680.632129","7","41","5","62","57","36","0.868164","0.086548","-0.487854","-0.027527","0.015267","0.015267","-0.015267","8.218506","1.701123","5.032788","-0.035889","-0.034692","0.044263","-0.055029","-0.034692","-0.013159"
"X","1617451680.6222076","7","40","9","62","60","41","0.868042","0.086121","-0.488159","-0.027527","0.022901","0.015267","-0.015267","8.190991","1.680786","4.955029","-0.066992","-0.046655","-0.027515","-0.00957","-0.033496","-0.077759"
"X","1617451680.61228","7","40","7","63","63","38","0.86792","0.085693","-0.488403","-0.027588","0.022901","0.007634","-0.015267","8.16228","1.658057","4.896411","-0.099292","-0.063403","-0.082544","0.020337","-0.038281","-0.136377"
"X","1617451680.6021795","7","39","7","63","60","39","0.867859","0.085266","-0.488647","-0.027649","0.015267","0.007634","-0.015267","8.134766","1.648486","4.859326","-0.130396","-0.065796","-0.117236","0.033496","-0.0323","-0.18064"
"X","1617451680.592241","7","39","7","72","61","37","0.867798","0.0849","-0.48877","-0.02771","0.015267","0.007634","-0.015267","8.113233","1.644897","4.833008","-0.153125","-0.0646","-0.142358","0.043066","-0.026318","-0.211743"
"X","1617451680.5821822","7","39","5","62","60","39","0.867737","0.084534","-0.488953","-0.027771","0.015267","0.007634","-0.015267","8.112036","1.629346","4.806689","-0.156714","-0.07417","-0.166284","0.062207","-0.0323","-0.228491"
"X","1617451680.5723093","7","41","4","62","59","39","0.867676","0.084229","-0.489136","-0.027771","0.015267","0.007634","-0.015267","8.108447","1.601831","4.782763","-0.163892","-0.095703","-0.187817","0.077759","-0.050244","-0.250024"
"X","1617451680.5624735","7","41","7","61","62","41","0.867615","0.083984","-0.489258","-0.027771","0.007634","0","-0.015267","8.089307","1.565942","4.750464","-0.184229","-0.128003","-0.218921","0.094507","-0.075366","-0.288306"
"X","1617451680.552148","7","39","7","59","62","40","0.867615","0.083679","-0.489258","-0.027771","0.007634","0","-0.015267","8.071362","1.533643","4.713379","-0.202173","-0.155518","-0.256006","0.118433","-0.095703","-0.326587"
"X","1617451680.54238","7","40","7","62","63","42","0.867676","0.083435","-0.489258","-0.02771","0.007634","0","-0.015267","8.049829","1.504932","4.670312","-0.224902","-0.179443","-0.300269","0.144751","-0.111255","-0.372046"
"X","1617451680.533043","7","39","5","60","64","41","0.867676","0.083252","-0.489258","-0.027649","0","0","-0.015267","8.051025","1.485791","4.641602","-0.223706","-0.194995","-0.328979","0.171069","-0.123218","-0.388794"
"X","1617451680.5223372","7","39","6","60","60","36","0.867676","0.08313","-0.489319","-0.027588","0","0.007634","-0.015267","8.054614","1.459473","4.624854","-0.221313","-0.217725","-0.345728","0.186621","-0.144751","-0.399561"
"X","1617451680.5130153","7","39","6","60","61","39","0.867615","0.083008","-0.489441","-0.027527","0","0.007634","-0.015267","8.080933","1.44751","4.630835","-0.196191","-0.227295","-0.337354","0.192603","-0.15791","-0.375635"
"X","1617451680.5028248","7","39","3","62","59","39","0.867554","0.083008","-0.489502","-0.027466","-0.007634","0.007634","-0.007634","8.108447","1.445117","4.636817","-0.169873","-0.229687","-0.330176","0.200977","-0.165088","-0.349316"
"X","1617451680.4930515","7","38","7","60","59","39","0.867554","0.083069","-0.489563","-0.027466","-0.007634","0","-0.007634","8.127588","1.440332","4.648779","-0.151929","-0.235669","-0.317017","0.19978","-0.174658","-0.328979"
"X","1617451680.4823732","7","39","4","60","62","39","0.867554","0.08313","-0.489563","-0.027405","-0.007634","0","0","8.155103","1.436743","4.64519","-0.124414","-0.239258","-0.320605","0.216528","-0.181836","-0.307446"
"X","1617451680.4728131","7","41","7","60","61","39","0.867554","0.083313","-0.489502","-0.027405","-0.015267","0","0","8.186206","1.429565","4.641602","-0.092114","-0.248828","-0.325391","0.238062","-0.193799","-0.284717"
"X","1617451680.4631748","7","39","7","58","62","39","0.867615","0.083557","-0.489441","-0.027466","-0.015267","-0.007634","0","8.211329","1.428369","4.63562","-0.065796","-0.256006","-0.332568","0.258398","-0.203369","-0.267969"
"X","1617451680.4529972","7","40","6","62","59","37","0.867615","0.083862","-0.489258","-0.027527","-0.022901","-0.007634","0","8.234057","1.440332","4.636817","-0.039478","-0.248828","-0.332568","0.271558","-0.19978","-0.244043"
"X","1617451680.443057","7","40","7","61","61","40","0.867676","0.08429","-0.489136","-0.027527","-0.022901","-0.007634","0.007634","8.250806","1.471436","4.676294","-0.021533","-0.224902","-0.294287","0.247632","-0.183032","-0.205762"
"X","1617451680.4330173","7","41","6","60","62","41","0.867798","0.084778","-0.488831","-0.027527","-0.030534","-0.015267","0.007634","8.254395","1.509717","4.727735","-0.013159","-0.194995","-0.246436","0.209351","-0.160303","-0.169873"
"X","1617451680.422977","7","38","7","60","62","42","0.86792","0.085449","-0.488525","-0.027527","-0.038168","-0.015267","0.015267","8.250806","1.577905","4.823438","-0.013159","-0.13877","-0.155518","0.130396","-0.114844","-0.113647"
"X","1617451680.4130647","7","41","6","61","63","40","0.868042","0.086121","-0.488098","-0.027466","-0.038168","-0.022901","0.015267","8.235254","1.644897","4.945459","-0.021533","-0.082544","-0.038281","0.023926","-0.072974","-0.05144"
"X","1617451680.40304","7","39","8","60","60","37","0.868225","0.086792","-0.487732","-0.027466","-0.030534","-0.022901","0.015267","8.199366","1.692749","5.079443","-0.052637","-0.046655","0.089722","-0.101685","-0.049048","-0.005981"
"X","1617451680.39308","7","40","5","61","57","39","0.868408","0.087341","-0.487366","-0.027527","-0.022901","-0.030534","0.015267","8.155103","1.723853","5.230176","-0.092114","-0.025122","0.234473","-0.246436","-0.040674","0.037085"
"X","1617451680.3829634","7","39","4","61","63","39","0.86853","0.087769","-0.486938","-0.027649","-0.022901","-0.030534","0.015267","8.097681","1.746582","5.348608","-0.143555","-0.010767","0.346924","-0.369653","-0.034692","0.053833"
"X","1617451680.3729365","7","41","5","59","62","39","0.868713","0.088257","-0.486572","-0.027771","-0.022901","-0.030534","0.015267","8.029492","1.777686","5.423975","-0.206958","0.00957","0.416309","-0.462964","-0.014355","0.039478"
"X","1617451680.362922","7","40","4","60","62","37","0.868774","0.088684","-0.486328","-0.027832","-0.022901","-0.022901","0.015267","7.982837","1.812378","5.451489","-0.248828","0.035889","0.441431","-0.507227","0.011963","0.022729"
"X","1617451680.3529248","7","39","5","61","57","39","0.868774","0.089172","-0.486328","-0.027893","-0.022901","-0.007634","0.015267","7.988818","1.831519","5.417993","-0.242847","0.046655","0.409131","-0.476123","0.026318","0.013159"
"X","1617451680.3430717","7","39","7","60","57","41","0.868591","0.089539","-0.486511","-0.027893","-0.022901","0","0.007634","8.023511","1.815967","5.325879","-0.209351","0.025122","0.321802","-0.384009","0.010767","-0.005981"
"X","1617451680.332982","7","39","1","59","60","39","0.868347","0.089905","-0.486938","-0.027893","-0.022901","0.015267","0.007634","8.076147","1.788452","5.177539","-0.161499","-0.007178","0.183032","-0.239258","-0.008374","-0.043066"
"X","1617451680.3232234","7","40","5","59","63","41","0.868042","0.09021","-0.487427","-0.027954","-0.022901","0.030534","0.007634","8.138354","1.780078","5.014844","-0.104077","-0.021533","0.029907","-0.078955","-0.010767","-0.075366"
"X","1617451680.3130033","7","42","5","58","61","37","0.867615","0.090576","-0.488098","-0.028015","-0.022901","0.038168","0.007634","8.201757","1.78606","4.849756","-0.047852","-0.021533","-0.119629","0.077759","0","-0.104077"
"X","1617451680.3030045","7","39","4","53","62","38","0.867188","0.090942","-0.48877","-0.028137","-0.022901","0.045802","0.007634","8.242432","1.807593","4.705005","-0.014355","-0.007178","-0.250024","0.205762","0.026318","-0.13877"
"X","1617451680.2930453","7","40","6","58","62","39","0.86676","0.091309","-0.489441","-0.028198","-0.022901","0.045802","0.007634","8.256787","1.839893","4.605713","-0.007178","0.017944","-0.334961","0.281128","0.062207","-0.171069"
"X","1617451680.2829514","7","39","7","61","64","39","0.866455","0.091553","-0.48999","-0.02832","-0.007634","0.038168","0.007634","8.230469","1.849463","4.567431","-0.039478","0.021533","-0.362476","0.288306","0.072974","-0.210547"
"X","1617451680.2729554","7","39","5","59","59","40","0.866211","0.091614","-0.490356","-0.028564","0","0.022901","0.015267","8.168262","1.848267","4.575806","-0.105273","0.017944","-0.345728","0.239258","0.076563","-0.258398"
"X","1617451680.2630055","7","39","3","61","62","39","0.866089","0.091675","-0.490479","-0.028931","0.007634","0.007634","0.015267","8.084521","1.861426","4.640405","-0.189014","0.026318","-0.278735","0.13877","0.088525","-0.294287"
"X","1617451680.2531316","7","39","6","62","62","38","0.86615","0.091675","-0.490479","-0.029297","0","-0.007634","0.015267","8.000781","1.904492","4.739697","-0.272754","0.065796","-0.18064","0.010767","0.12561","-0.307446"
"X","1617451680.2429817","7","40","5","61","62","39","0.866211","0.091797","-0.490234","-0.029663","0","-0.022901","0.022901","7.943359","1.964307","4.831811","-0.325391","0.119629","-0.092114","-0.093311","0.174658","-0.297876"
"X","1617451680.2330563","7","38","5","58","62","39","0.866394","0.09198","-0.489929","-0.029968","-0.007634","-0.030534","0.022901","7.926611","2.01814","4.886841","-0.33855","0.16748","-0.04187","-0.145947","0.217725","-0.27395"
"X","1617451680.2229698","7","38","5","60","60","37","0.866516","0.092163","-0.489624","-0.030273","-0.007634","-0.022901","0.022901","7.967285","2.048047","4.907178","-0.293091","0.191406","-0.027515","-0.135181","0.23208","-0.223706"
"X","1617451680.2130766","7","39","5","62","58","37","0.866577","0.092407","-0.489441","-0.030579","-0.015267","-0.015267","0.022901","8.047437","2.086328","4.892822","-0.209351","0.22251","-0.044263","-0.078955","0.253613","-0.155518"
"X","1617451680.2029812","7","39","4","60","62","39","0.866516","0.092712","-0.489441","-0.030762","-0.022901","0","0.015267","8.139551","2.137769","4.866504","-0.11604","0.267969","-0.068188","-0.011963","0.288306","-0.080151"
"X","1617451680.1929886","7","41","5","62","59","37","0.866455","0.093018","-0.489502","-0.030823","-0.022901","0.007634","0.007634","8.218506","2.173657","4.840186","-0.037085","0.297876","-0.093311","0.049048","0.308643","-0.020337"
"X","1617451680.1831532","7","43","5","58","62","41","0.866272","0.09314","-0.489746","-0.030762","-0.015267","0.022901","0","8.280713","2.162891","4.837793","0.020337","0.285913","-0.089722","0.075366","0.288306","0.026318"
"X","1617451680.1729922","7","40","5","62","62","39","0.86615","0.093079","-0.490112","-0.03064","-0.007634","0.022901","-0.007634","8.322583","2.099487","4.848559","0.057422","0.224902","-0.072974","0.082544","0.221313","0.053833"
"X","1617451680.163069","7","43","5","61","62","39","0.865967","0.092896","-0.490417","-0.030579","0.007634","0.015267","-0.007634","8.345312","2.022925","4.862915","0.076563","0.151929","-0.052637","0.077759","0.144751","0.066992"
"X","1617451680.1529298","7","41","6","60","60","40","0.865906","0.09259","-0.490601","-0.030579","0.007634","0.007634","-0.007634","8.363256","1.957129","4.903589","0.092114","0.090918","-0.010767","0.052637","0.076563","0.088525"
"X","1617451680.142946","7","38","5","60","62","39","0.865906","0.092346","-0.490662","-0.03064","0.007634","-0.007634","-0.007634","8.341723","1.920044","4.950244","0.069385","0.057422","0.035889","0.002393","0.040674","0.087329"
"X","1617451680.1330454","7","38","7","63","58","39","0.865967","0.092102","-0.49054","-0.030701","0.007634","-0.022901","-0.007634","8.302246","1.91167","4.978955","0.031104","0.052637","0.061011","-0.037085","0.038281","0.065796"
"X","1617451680.1230402","7","41","5","61","62","40","0.86615","0.09198","-0.490295","-0.030701","0","-0.022901","-0.007634","8.281909","1.909277","4.988525","0.013159","0.052637","0.065796","-0.050244","0.040674","0.053833"
"X","1617451680.1130486","7","38","6","62","60","41","0.866333","0.091858","-0.48999","-0.03064","0","-0.022901","-0.007634","8.290283","1.890137","4.992114","0.025122","0.035889","0.062207","-0.040674","0.022729","0.058618"
"X","1617451680.0431333","7","41","9","61","64","37","0.86615","0.090393","-0.490601","-0.029907","0","0","-0.022901","8.176636","1.672412","4.859326","-0.098096","-0.149536","-0.062207","0.007178","-0.124414","-0.141162"
"X","1617451680.0330153","7","38","4","61","60","39","0.86615","0.090271","-0.490662","-0.029785","0","-0.007634","-0.022901","8.115625","1.653271","4.836596","-0.160303","-0.165088","-0.084937","-0.003589","-0.128003","-0.208154"
"X","1617451680.0231156","7","40","7","62","60","39","0.86615","0.090088","-0.490662","-0.029602","0","-0.007634","-0.022901","8.080933","1.648486","4.824634","-0.196191","-0.165088","-0.096899","-0.011963","-0.122021","-0.244043"
"X","1617451680.0130389","7","41","5","61","62","39","0.866211","0.089966","-0.490662","-0.029419","0","-0.007634","-0.015267","8.071362","1.64729","4.821045","-0.206958","-0.162695","-0.101685","-0.013159","-0.117236","-0.25481"
"X","1617451680.003072","7","39","6","61","61","39","0.866211","0.089844","-0.490662","-0.029236","0","0","-0.015267","8.074951","1.64729","4.806689","-0.203369","-0.159106","-0.11604","0","-0.112451","-0.258398"
"X","1617451679.99319","7","40","5","63","61","37","0.86615","0.089783","-0.490723","-0.029175","-0.007634","0","-0.015267","8.108447","1.655664","4.807886","-0.169873","-0.14834","-0.112451","0.013159","-0.107666","-0.227295"
"X","1617451679.9830415","7","39","7","62","60","40","0.866089","0.089783","-0.490845","-0.029053","-0.007634","0","-0.007634","8.151514","1.666431","4.817456","-0.129199","-0.136377","-0.101685","0.025122","-0.102881","-0.184229"
"X","1617451679.9730675","7","39","3","60","61","37","0.866089","0.089844","-0.490906","-0.028992","-0.007634","0","-0.007634","8.17544","1.674805","4.822241","-0.10647","-0.129199","-0.095703","0.031104","-0.099292","-0.161499"
"X","1617451679.9633543","7","39","5","59","63","41","0.866089","0.089905","-0.490845","-0.02887","-0.015267","-0.007634","-0.007634","8.182617","1.685571","4.831811","-0.098096","-0.117236","-0.086133","0.026318","-0.089722","-0.147144"
"X","1617451679.9531105","7","41","7","59","63","37","0.866089","0.090027","-0.490845","-0.028809","-0.007634","-0.007634","-0.007634","8.177832","1.68916","4.841382","-0.102881","-0.11604","-0.076563","0.016748","-0.089722","-0.145947"
"X","1617451679.9432118","7","41","5","70","60","41","0.86615","0.090088","-0.490784","-0.028748","-0.007634","-0.007634","-0.007634","8.176636","1.67002","4.85813","-0.104077","-0.135181","-0.061011","0.003589","-0.110059","-0.142358"
"X","1617451679.9331305","7","42","4","61","62","39","0.86615","0.090088","-0.490723","-0.028748","0","-0.007634","0","8.17185","1.65686","4.882056","-0.107666","-0.14834","-0.038281","-0.016748","-0.12561","-0.136377"
"X","1617451679.923097","7","42","8","62","63","40","0.866211","0.090088","-0.490662","-0.028809","0","-0.007634","0","8.164673","1.660449","4.90957","-0.113647","-0.145947","-0.011963","-0.04187","-0.12561","-0.128003"
"X","1617451679.9131725","7","39","6","60","57","38","0.866211","0.090149","-0.490601","-0.028931","-0.007634","-0.007634","0","8.167066","1.702319","4.933496","-0.110059","-0.105273","0.00957","-0.061011","-0.088525","-0.10647"
"X","1617451679.903195","7","39","5","61","60","40","0.866211","0.090332","-0.49054","-0.028992","-0.007634","-0.007634","0","8.16228","1.778882","4.946655","-0.113647","-0.0323","0.022729","-0.076563","-0.017944","-0.089722"
"X","1617451679.8931377","7","39","7","60","60","39","0.866211","0.090515","-0.49054","-0.029053","-0.015267","-0.007634","0","8.155103","1.84707","4.939477","-0.120825","0.029907","0.015552","-0.076563","0.043066","-0.088525"
"X","1617451679.8831751","7","39","-1","60","60","36","0.86615","0.090637","-0.490601","-0.029053","-0.007634","0","0","8.15271","1.885352","4.920337","-0.123218","0.066992","0","-0.065796","0.082544","-0.090918"
"X","1617451679.87307","7","41","7","59","60","39","0.866089","0.090698","-0.490723","-0.029114","0","0.007634","0","8.169458","1.882959","4.907178","-0.108862","0.062207","-0.010767","-0.049048","0.076563","-0.084937"
"X","1617451679.8632162","7","43","6","62","59","39","0.865967","0.090637","-0.490845","-0.029175","0","0","0.007634","8.174243","1.853052","4.880859","-0.104077","0.033496","-0.034692","-0.025122","0.05144","-0.098096"
"X","1617451679.85315","7","37","-7","60","60","39","0.865967","0.090576","-0.490906","-0.029297","0","-0.007634","0","8.159887","1.817163","4.840186","-0.119629","-0.001196","-0.07417","0.001196","0.023926","-0.137573"
"X","1617451679.8439908","7","40","7","60","58","40","0.865967","0.090576","-0.490906","-0.029419","-0.007634","-0.007634","0","8.150317","1.796826","4.804297","-0.129199","-0.022729","-0.110059","0.027515","0.00957","-0.16748"
"X","1617451679.8331711","7","40","7","61","62","40","0.866028","0.090637","-0.490845","-0.029358","-0.015267","-0.007634","-0.007634","8.156299","1.811182","4.797119","-0.122021","-0.00957","-0.119629","0.039478","0.022729","-0.163892"
"X","1617451679.8234422","7","45","8","62","61","40","0.865967","0.090698","-0.490845","-0.029175","-0.015267","0","-0.015267","8.170654","1.833911","4.795923","-0.107666","0.013159","-0.119629","0.045459","0.043066","-0.14834"
"X","1617451679.8132691","7","40","8","61","62","38","0.865967","0.090698","-0.490967","-0.028992","-0.007634","0.007634","-0.015267","8.190991","1.833911","4.795923","-0.089722","0.014355","-0.117236","0.052637","0.040674","-0.131592"
"X","1617451679.80323","7","38","3","60","60","39","0.865845","0.090698","-0.49115","-0.028809","-0.007634","0.015267","-0.007634","8.216113","1.813574","4.81626","-0.066992","-0.002393","-0.093311","0.044263","0.017944","-0.102881"
"X","1617451679.7932863","7","40","5","58","63","39","0.865784","0.090576","-0.491333","-0.028748","0","0.007634","-0.007634","8.224487","1.804004","4.841382","-0.061011","-0.00957","-0.065796","0.025122","0.007178","-0.086133"
"X","1617451679.7834432","7","41","7","61","64","39","0.865723","0.090576","-0.491394","-0.028748","-0.007634","0","0","8.199366","1.812378","4.861719","-0.087329","-0.001196","-0.044263","-0.005981","0.015552","-0.095703"
"X","1617451679.7738929","7","40","8","63","62","37","0.865723","0.090637","-0.491333","-0.028748","-0.007634","-0.015267","0","8.15271","1.8375","4.876074","-0.132788","0.021533","-0.029907","-0.043066","0.043066","-0.123218"
"X","1617451679.7632914","7","40","4","63","62","40","0.865784","0.090698","-0.491211","-0.028748","0","-0.015267","-0.007634","8.102466","1.844678","4.878467","-0.181836","0.028711","-0.029907","-0.068188","0.056226","-0.162695"
"X","1617451679.75396","7","38","7","60","60","37","0.865906","0.090576","-0.491028","-0.028687","0","-0.015267","0","8.06897","1.823145","4.862915","-0.212939","0.00957","-0.049048","-0.068188","0.044263","-0.202173"
"X","1617451679.743882","7","42","5","61","60","41","0.866028","0.090454","-0.490906","-0.028687","0.007634","-0.015267","0","8.067774","1.776489","4.848559","-0.212939","-0.034692","-0.066992","-0.050244","0.003589","-0.218921"
"X","1617451679.7339594","7","41","4","61","62","33","0.866089","0.090271","-0.490784","-0.028748","0.007634","-0.007634","-0.007634","8.092896","1.735815","4.835401","-0.186621","-0.072974","-0.082544","-0.022729","-0.034692","-0.211743"
"X","1617451679.7239068","7","40","5","60","60","37","0.86615","0.09021","-0.490723","-0.028809","0","-0.007634","-0.007634","8.137158","1.714282","4.834204","-0.142358","-0.093311","-0.086133","0.003589","-0.059814","-0.18064"
"X","1617451679.713831","7","39","4","58","58","39","0.86615","0.090271","-0.490662","-0.028809","-0.007634","-0.007634","-0.007634","8.17185","1.719067","4.840186","-0.10647","-0.089722","-0.080151","0.016748","-0.062207","-0.145947"
"X","1617451679.703967","7","39","5","60","62","36","0.86615","0.090332","-0.490662","-0.028748","-0.015267","0","-0.007634","8.199366","1.723853","4.841382","-0.078955","-0.086133","-0.078955","0.029907","-0.063403","-0.122021"
"X","1617451679.6938603","7","40","9","61","59","41","0.86615","0.090454","-0.490723","-0.028625","-0.007634","0","-0.007634","8.214917","1.729834","4.846167","-0.0646","-0.080151","-0.072974","0.031104","-0.059814","-0.105273"
"X","1617451679.6839828","7","41","5","60","60","39","0.866089","0.090515","-0.490784","-0.028564","-0.007634","0.007634","-0.007634","8.231665","1.73103","4.865308","-0.047852","-0.080151","-0.052637","0.022729","-0.0646","-0.081348"
"X","1617451679.6738758","7","39","5","62","60","36","0.865967","0.090576","-0.490967","-0.028564","0","0.007634","0","8.24602","1.741797","4.908374","-0.035889","-0.069385","-0.004785","-0.010767","-0.062207","-0.045459"
"X","1617451679.663967","7","39","5","59","58","38","0.865906","0.090637","-0.491028","-0.028625","0","-0.015267","0","8.192187","1.770508","4.90957","-0.089722","-0.043066","-0.002393","-0.04187","-0.028711","-0.084937"
"X","1617451679.6538932","7","40","4","59","58","37","0.865967","0.090698","-0.490906","-0.028748","-0.007634","-0.015267","0.007634","8.12998","1.81477","4.873682","-0.150732","-0.001196","-0.040674","-0.04187","0.023926","-0.147144"
"X","1617451679.6438644","7","41","5","60","60","37","0.866028","0.09082","-0.490784","-0.028809","-0.007634","-0.015267","0.007634","8.113233","1.862622","4.846167","-0.165088","0.043066","-0.070581","-0.026318","0.07417","-0.166284"
"X","1617451679.6333263","7","39","5","60","59","38","0.866089","0.090942","-0.490723","-0.028931","-0.007634","-0.007634","0.007634","8.126391","1.892529","4.807886","-0.151929","0.069385","-0.110059","0.011963","0.102881","-0.169873"
"X","1617451679.6239753","7","41","4","61","60","37","0.866028","0.090942","-0.490784","-0.028992","-0.007634","0.007634","0.007634","8.168262","1.903296","4.77439","-0.110059","0.080151","-0.141162","0.059814","0.111255","-0.14834"
"X","1617451679.6138742","7","39","8","62","61","39","0.865967","0.091003","-0.490906","-0.029114","-0.007634","0.007634","0","8.210132","1.906885","4.749268","-0.069385","0.081348","-0.165088","0.101685","0.110059","-0.12561"
"X","1617451679.603158","7","39","5","58","59","38","0.865906","0.091003","-0.491028","-0.029175","-0.007634","0.007634","0","8.238843","1.896118","4.740893","-0.04187","0.070581","-0.171069","0.122021","0.096899","-0.107666"
"X","1617451679.5937922","7","41","7","61","61","41","0.865845","0.091003","-0.491089","-0.029175","-0.007634","0.007634","0","8.261572","1.868603","4.74209","-0.020337","0.043066","-0.16748","0.130396","0.065796","-0.092114"
"X","1617451679.5838482","7","39","5","61","61","37","0.865784","0.090942","-0.491211","-0.029175","-0.007634","0","-0.007634","8.274732","1.82793","4.755249","-0.008374","0.003589","-0.153125","0.12561","0.023926","-0.082544"
"X","1617451679.5738575","7","42","4","60","59","40","0.865784","0.090881","-0.491211","-0.029114","-0.007634","-0.007634","-0.015267","8.262769","1.788452","4.777978","-0.020337","-0.033496","-0.130396","0.101685","-0.013159","-0.088525"
"X","1617451679.5716422","7","39","4","62","62","37","0.865845","0.09082","-0.491089","-0.028931","-0.007634","-0.015267","-0.015267","8.231665","1.76333","4.811475","-0.050244","-0.056226","-0.099292","0.061011","-0.034692","-0.101685"
"X","1617451679.5697236","7","39","6","62","61","37","0.866028","0.09082","-0.490845","-0.028687","-0.007634","-0.022901","-0.015267","8.186206","1.742993","4.847363","-0.093311","-0.07417","-0.068188","0.011963","-0.050244","-0.12561"
"X","1617451679.544153","7","39","7","59","64","39","0.866211","0.09082","-0.490479","-0.028503","-0.007634","-0.022901","-0.015267","8.149121","1.732227","4.876074","-0.126807","-0.082544","-0.045459","-0.022729","-0.057422","-0.144751"
"X","1617451679.534268","7","40","5","58","63","39","0.866394","0.09082","-0.490234","-0.02832","-0.007634","-0.022901","-0.007634","8.12998","1.723853","4.911963","-0.143555","-0.089722","-0.015552","-0.057422","-0.065796","-0.144751"
"X","1617451679.5241072","7","40","6","62","61","39","0.866516","0.09082","-0.48999","-0.028259","-0.007634","-0.022901","0","8.126391","1.725049","4.931104","-0.144751","-0.088525","-0.001196","-0.069385","-0.065796","-0.13877"
"X","1617451679.5139","7","39","8","62","64","39","0.866577","0.090942","-0.489807","-0.02832","-0.007634","-0.015267","0","8.146729","1.728638","4.938281","-0.122021","-0.087329","0.002393","-0.061011","-0.068188","-0.117236"
"X","1617451679.5042212","7","38","4","58","59","39","0.866638","0.091064","-0.489685","-0.028442","-0.007634","-0.015267","0.007634","8.169458","1.751367","4.943067","-0.096899","-0.068188","0.004785","-0.05144","-0.053833","-0.090918"
"X","1617451679.4940352","7","40","4","60","61","39","0.866699","0.091187","-0.489563","-0.028564","-0.007634","-0.015267","0.007634","8.174243","1.788452","4.95144","-0.090918","-0.033496","0.011963","-0.055029","-0.021533","-0.076563"
"X","1617451679.483854","7","39","6","58","59","39","0.86676","0.09137","-0.489441","-0.028625","-0.007634","-0.007634","0","8.186206","1.826733","4.975366","-0.076563","0","0.033496","-0.068188","0.005981","-0.046655"
"X","1617451679.4739325","7","39","5","61","62","39","0.86676","0.091492","-0.48938","-0.028625","-0.007634","-0.007634","0","8.181421","1.842285","4.995703","-0.080151","0.013159","0.053833","-0.087329","0.016748","-0.037085"
"X","1617451679.464069","7","38","5","58","59","37","0.866821","0.091553","-0.489319","-0.028625","0","-0.007634","0","8.168262","1.832715","5.001685","-0.093311","0.002393","0.058618","-0.098096","0.007178","-0.047852"
"X","1617451679.454141","7","39","7","57","62","39","0.866821","0.091553","-0.489258","-0.028687","0","-0.007634","0","8.144336","1.825537","4.9969","-0.11604","-0.004785","0.052637","-0.104077","0.003589","-0.071777"
"X","1617451679.444012","7","39","8","59","62","41","0.866821","0.091492","-0.489258","-0.028687","0","-0.007634","-0.007634","8.125196","1.838696","4.992114","-0.135181","0.008374","0.047852","-0.111255","0.020337","-0.087329"
"X","1617451679.4340456","7","38","5","60","62","40","0.866821","0.091492","-0.489319","-0.028687","0","0","-0.007634","8.126391","1.856641","4.987329","-0.135181","0.026318","0.043066","-0.107666","0.038281","-0.086133"
"X","1617451679.423925","7","38","3","61","60","36","0.86676","0.091431","-0.48938","-0.028625","0","-0.007634","-0.007634","8.125196","1.8698","4.961011","-0.136377","0.04187","0.019141","-0.088525","0.057422","-0.096899"
"X","1617451679.413942","7","38","7","60","57","9","0.86676","0.091309","-0.489441","-0.028564","0","-0.007634","-0.007634","8.119214","1.855444","4.90957","-0.143555","0.029907","-0.031104","-0.049048","0.052637","-0.130396"
"X","1617451679.404125","7","40","6","61","60","39","0.86676","0.091125","-0.489441","-0.028564","0.007634","-0.007634","-0.007634","8.128784","1.824341","4.854541","-0.133984","0.001196","-0.086133","0.003589","0.029907","-0.155518"
"X","1617451679.3941803","7","38","5","62","60","41","0.86676","0.091003","-0.489441","-0.028564","0","0","-0.007634","8.147924","1.8052","4.831811","-0.114844","-0.014355","-0.108862","0.033496","0.015552","-0.154321"
"X","1617451679.3841522","7","40","37","61","64","38","0.86676","0.090881","-0.489502","-0.028503","0","-0.007634","-0.007634","8.16228","1.806396","4.831811","-0.101685","-0.010767","-0.108862","0.039478","0.016748","-0.142358"
"X","1617451679.374257","7","37","5","61","63","39","0.866821","0.09082","-0.489441","-0.028442","-0.007634","-0.007634","-0.007634","8.149121","1.789648","4.831811","-0.114844","-0.025122","-0.110059","0.034692","0.004785","-0.156714"
"X","1617451679.3640282","7","40","5","60","60","31","0.866821","0.090759","-0.48938","-0.028381","-0.007634","-0.007634","-0.007634","8.141943","1.769312","4.835401","-0.120825","-0.044263","-0.107666","0.029907","-0.011963","-0.163892"
"X","1617451679.3542938","7","41","5","60","60","38","0.866882","0.090698","-0.48938","-0.028259","0","-0.007634","-0.007634","8.157495","1.740601","4.852149","-0.10647","-0.070581","-0.092114","0.025122","-0.04187","-0.14834"
"X","1617451679.3441436","7","41","1","61","63","40","0.866882","0.090637","-0.489319","-0.028259","0","-0.007634","0","8.159887","1.701123","4.8677","-0.102881","-0.108862","-0.076563","0.015552","-0.082544","-0.144751"
"X","1617451679.334075","7","39","4","58","60","37","0.867004","0.090576","-0.489197","-0.02832","0.007634","-0.015267","0","8.149121","1.67002","4.861719","-0.113647","-0.139966","-0.086133","0.019141","-0.110059","-0.165088"
"X","1617451679.32426","7","39","5","61","63","39","0.867065","0.090515","-0.489014","-0.028442","0.007634","-0.015267","0","8.13357","1.65686","4.847363","-0.12561","-0.153125","-0.104077","0.028711","-0.118433","-0.186621"
"X","1617451679.3143766","7","38","4","60","57","38","0.867188","0.090576","-0.488831","-0.028625","0","-0.015267","0","8.12998","1.666431","4.828223","-0.126807","-0.147144","-0.126807","0.047852","-0.110059","-0.197388"
"X","1617451679.3040483","7","39","6","61","59","37","0.867249","0.090637","-0.488708","-0.028748","-0.007634","-0.007634","0","8.131177","1.699927","4.831811","-0.124414","-0.11604","-0.12561","0.046655","-0.080151","-0.189014"
"X","1617451679.2941206","7","40","6","59","62","40","0.867249","0.09082","-0.488647","-0.028748","-0.015267","0","0","8.127588","1.739404","4.848559","-0.126807","-0.078955","-0.108862","0.028711","-0.045459","-0.175854"
"X","1617451679.2840536","7","38","5","60","64","35","0.867188","0.091003","-0.488708","-0.028748","-0.015267","0","0","8.115625","1.76333","4.864111","-0.13877","-0.058618","-0.090918","0.007178","-0.026318","-0.173462"
"X","1617451679.2740755","7","39","4","61","64","40","0.867126","0.091125","-0.48877","-0.028748","-0.007634","0.007634","0","8.126391","1.780078","4.883252","-0.129199","-0.043066","-0.070581","-0.004785","-0.014355","-0.151929"
"X","1617451679.2642374","7","40","8","61","62","37","0.867065","0.091248","-0.488953","-0.028748","-0.007634","0.007634","0","8.144336","1.807593","4.90957","-0.113647","-0.017944","-0.040674","-0.022729","0.002393","-0.119629"
"X","1617451679.2541387","7","38","8","58","62","37","0.866943","0.09137","-0.489075","-0.028809","-0.007634","0","0.007634","8.141943","1.833911","4.922729","-0.11604","0.004785","-0.023926","-0.039478","0.023926","-0.108862"
"X","1617451679.2441833","7","39","7","62","59","39","0.866943","0.091553","-0.489075","-0.028931","-0.007634","-0.007634","0.007634","8.147924","1.854248","4.934692","-0.110059","0.020337","-0.011963","-0.046655","0.035889","-0.094507"
"X","1617451679.2340078","7","38","5","60","57","41","0.866943","0.091736","-0.489014","-0.029114","-0.007634","-0.015267","0.007634","8.15271","1.882959","4.937085","-0.104077","0.044263","-0.010767","-0.046655","0.058618","-0.08374"
"X","1617451679.224201","7","40","6","61","61","36","0.867004","0.091919","-0.488892","-0.029236","-0.015267","-0.015267","0.007634","8.153906","1.916455","4.943067","-0.100488","0.07417","-0.005981","-0.049048","0.087329","-0.072974"
"X","1617451679.2141914","7","41","5","62","63","42","0.867065","0.092102","-0.488708","-0.029297","-0.015267","-0.015267","0.007634","8.170654","1.952344","4.978955","-0.081348","0.10647","0.026318","-0.068188","0.112451","-0.034692"
"X","1617451679.2040062","7","41","7","61","62","40","0.867126","0.092285","-0.488586","-0.029297","-0.015267","-0.007634","0","8.193384","1.976269","5.018433","-0.057422","0.126807","0.063403","-0.088525","0.123218","0.007178"
"X","1617451679.194116","7","40","4","60","59","38","0.867126","0.092346","-0.488586","-0.029236","-0.007634","0","0","8.220899","1.979858","5.073462","-0.029907","0.130396","0.118433","-0.120825","0.11604","0.058618"
"X","1617451679.184254","7","38","7","62","62","37","0.867065","0.092285","-0.488647","-0.029236","0","0","-0.007634","8.223291","1.975073","5.117724","-0.027515","0.12561","0.165088","-0.159106","0.105273","0.08374"
"X","1617451679.174128","7","38","5","62","60","40","0.867004","0.092224","-0.48877","-0.029175","0","0","-0.007634","8.21731","1.977466","5.152417","-0.034692","0.130396","0.200977","-0.193799","0.105273","0.095703"
"X","1617451679.16409","7","41","5","61","62","39","0.866943","0.092163","-0.488953","-0.029175","0","0","0","8.216113","1.988232","5.161987","-0.039478","0.142358","0.214136","-0.208154","0.11604","0.100488"
"X","1617451679.154114","7","39","3","61","58","37","0.866821","0.092041","-0.489136","-0.029175","0","0","0","8.212524","1.991821","5.133276","-0.044263","0.14834","0.189014","-0.189014","0.126807","0.084937"
"X","1617451679.1440015","7","40","8","60","59","40","0.86676","0.091919","-0.489319","-0.029236","0.007634","0","0","8.219702","1.978662","5.060303","-0.039478","0.136377","0.118433","-0.126807","0.123218","0.05144"
"X","1617451679.1341703","7","39","5","59","57","40","0.866638","0.091797","-0.489502","-0.029358","0.007634","0","0","8.24602","1.955933","4.95144","-0.015552","0.114844","0.013159","-0.022729","0.112451","0.014355"
"X","1617451679.1241007","7","39","7","58","64","39","0.866577","0.091553","-0.489624","-0.029541","0.007634","0.007634","-0.007634","8.283106","1.947559","4.840186","0.019141","0.108862","-0.095703","0.087329","0.11604","-0.010767"
"X","1617451679.1141064","7","40","5","61","63","41","0.866516","0.091309","-0.489807","-0.029602","0.007634","0.007634","-0.007634","8.298657","1.941577","4.749268","0.0323","0.10647","-0.184229","0.169873","0.123218","-0.045459"
"X","1617451679.1045473","7","40","6","60","62","40","0.866455","0.091064","-0.489929","-0.029541","0.007634","0.015267","-0.015267","8.292676","1.940381","4.701416","0.025122","0.110059","-0.229687","0.204565","0.133984","-0.072974"
"X","1617451679.0942333","7","39","4","60","63","41","0.866455","0.090698","-0.490112","-0.029419","0.007634","0.015267","-0.022901","8.260376","1.924829","4.693042","-0.00957","0.101685","-0.236865","0.192603","0.130396","-0.107666"
"X","1617451679.0840027","7","38","5","60","59","37","0.866394","0.090332","-0.490173","-0.029236","0.007634","0.007634","-0.030534","8.201757","1.899707","4.713379","-0.069385","0.08374","-0.216528","0.145947","0.118433","-0.151929"
"X","1617451679.0742228","7","38","7","61","58","38","0.866394","0.089905","-0.490295","-0.028992","0.007634","0","-0.030534","8.128784","1.855444","4.740893","-0.145947","0.049048","-0.187817","0.082544","0.092114","-0.208154"
"X","1617451679.064497","7","41","5","61","62","41","0.866455","0.089417","-0.490356","-0.028687","0.015267","0","-0.030534","8.086914","1.802808","4.766016","-0.19021","0.008374","-0.163892","0.040674","0.055029","-0.240454"
"X","1617451679.0541284","7","40","3","60","61","38","0.866455","0.088928","-0.490417","-0.028442","0.015267","-0.007634","-0.022901","8.0594","1.737012","4.764819","-0.218921","-0.045459","-0.165088","0.028711","0.005981","-0.275146"
"X","1617451679.044301","7","40","5","60","63","39","0.866577","0.088501","-0.490356","-0.028259","0.007634","-0.015267","-0.022901","8.043848","1.662842","4.763623","-0.235669","-0.111255","-0.169873","0.026318","-0.055029","-0.303857"
"X","1617451679.035051","7","40","6","60","59","39","0.866638","0.088196","-0.490234","-0.028076","0.007634","-0.015267","-0.022901","8.043848","1.598242","4.762427","-0.234473","-0.168677","-0.173462","0.0323","-0.111255","-0.31582"
"X","1617451679.02498","7","40","8","63","64","37","0.86676","0.087952","-0.490112","-0.027893","0","-0.015267","-0.022901","8.03667","1.542017","4.764819","-0.240454","-0.218921","-0.174658","0.0323","-0.160303","-0.330176"
"X","1617451679.014158","7","39","8","61","63","40","0.866882","0.087769","-0.489929","-0.027649","0","-0.015267","-0.022901","8.033081","1.494165","4.757642","-0.242847","-0.261987","-0.185425","0.04187","-0.200977","-0.344531"
"X","1617451679.005061","7","41","7","60","60","40","0.867004","0.087646","-0.489746","-0.027344","0","-0.015267","-0.022901","8.041455","1.436743","4.760034","-0.233276","-0.314624","-0.187817","0.05144","-0.253613","-0.346924"
"X","1617451678.994893","7","39","8","60","62","39","0.867126","0.087463","-0.489624","-0.027161","0","-0.007634","-0.022901","8.041455","1.376929","4.77439","-0.233276","-0.369653","-0.177051","0.044263","-0.309839","-0.351709"
"X","1617451678.985159","7","39","5","60","59","38","0.867188","0.087402","-0.489502","-0.027039","0","-0.007634","-0.015267","8.053418","1.343433","4.81626","-0.220117","-0.400757","-0.137573","0.017944","-0.346924","-0.326587"
"X","1617451678.974919","7","40","7","61","62","40","0.867188","0.087341","-0.489502","-0.026978","0","-0.007634","-0.015267","8.055811","1.351807","4.870093","-0.217725","-0.391187","-0.08374","-0.026318","-0.344531","-0.295483"
"X","1617451678.9648702","7","39","4","61","62","41","0.867188","0.087402","-0.489441","-0.026917","-0.007634","-0.007634","-0.007634","8.035474","1.406836","4.910767","-0.236865","-0.336157","-0.043066","-0.072974","-0.293091","-0.281128"
"X","1617451678.9549856","7","41","7","61","60","39","0.867249","0.087646","-0.48938","-0.026917","-0.015267","-0.015267","0","8.023511","1.506128","4.944263","-0.247632","-0.24165","-0.010767","-0.108862","-0.203369","-0.257202"
"X","1617451678.9451237","7","40","5","61","66","39","0.867249","0.087952","-0.489319","-0.026855","-0.015267","-0.015267","0","8.023511","1.606616","4.955029","-0.247632","-0.145947","0","-0.122021","-0.110059","-0.234473"
"X","1617451678.9350889","7","41","9","60","60","39","0.867249","0.088196","-0.489258","-0.026917","-0.007634","-0.007634","0.007634","8.037867","1.666431","4.929907","-0.230884","-0.089722","-0.025122","-0.094507","-0.053833","-0.22251"
"X","1617451678.9251256","7","41","7","61","64","38","0.867249","0.088379","-0.489197","-0.0271","0","0","0.015267","8.083325","1.703516","4.901196","-0.184229","-0.057422","-0.053833","-0.046655","-0.023926","-0.192603"
"X","1617451678.9150248","7","39","7","60","58","39","0.867188","0.088562","-0.489258","-0.027344","-0.007634","0","0.015267","8.144336","1.738208","4.896411","-0.123218","-0.028711","-0.057422","-0.013159","-0.003589","-0.137573"
"X","1617451678.9049065","7","43","8","62","58","40","0.867126","0.088806","-0.489319","-0.027649","-0.015267","0","0.015267","8.187403","1.769312","4.896411","-0.080151","-0.004785","-0.055029","0.004785","0.011963","-0.095703"
"X","1617451678.894269","7","40","6","61","59","33","0.867065","0.08905","-0.48938","-0.027832","-0.015267","0.007634","0.007634","8.23645","1.800415","4.920337","-0.031104","0.019141","-0.029907","0.008374","0.026318","-0.037085"
"X","1617451678.8844254","7","42","5","60","60","39","0.867004","0.089355","-0.489441","-0.027893","-0.015267","0","0.007634","8.277124","1.809985","4.958618","0.008374","0.023926","0.00957","-0.003589","0.020337","0.015552"
"X","1617451678.8749635","7","40","5","62","61","39","0.867004","0.089539","-0.489441","-0.027893","-0.015267","-0.007634","0","8.286695","1.793237","5.000488","0.017944","0.003589","0.05144","-0.034692","-0.004785","0.040674"
"X","1617451678.8648565","7","40","7","60","60","41","0.867004","0.089722","-0.489319","-0.027893","-0.007634","-0.007634","0","8.27832","1.762134","5.037573","0.011963","-0.029907","0.088525","-0.066992","-0.04187","0.049048"
"X","1617451678.854669","7","39","6","62","63","39","0.867065","0.089844","-0.489258","-0.027893","-0.007634","-0.007634","0","8.272339","1.726245","5.059106","0.005981","-0.066992","0.107666","-0.084937","-0.080151","0.046655"
"X","1617451678.844904","7","42","6","60","59","39","0.867065","0.089905","-0.489197","-0.027954","0","-0.007634","0","8.266357","1.697534","5.060303","0.001196","-0.098096","0.108862","-0.087329","-0.110059","0.037085"
"X","1617451678.8349133","7","40","4","60","60","9","0.867065","0.089966","-0.489197","-0.028015","0","-0.007634","0","8.257983","1.67959","5.033984","-0.005981","-0.117236","0.082544","-0.068188","-0.124414","0.014355"
"X","1617451678.8248663","7","49","6","63","61","39","0.867004","0.090027","-0.489258","-0.028137","-0.007634","0","0","8.244824","1.683179","4.980151","-0.019141","-0.11604","0.029907","-0.029907","-0.114844","-0.021533"
"X","1617451678.814865","7","38","7","60","60","39","0.866943","0.09021","-0.489319","-0.028198","-0.015267","0","-0.007634","8.247217","1.727441","4.922729","-0.016748","-0.075366","-0.023926","0.014355","-0.068188","-0.039478"
"X","1617451678.8048592","7","45","7","61","63","42","0.866821","0.090393","-0.489502","-0.028137","-0.015267","0.007634","-0.007634","8.263965","1.799219","4.871289","-0.002393","-0.005981","-0.070581","0.058618","0.002393","-0.038281"
"X","1617451678.7948508","7","40","5","60","61","37","0.866699","0.090576","-0.489685","-0.028015","-0.015267","0.015267","-0.007634","8.289087","1.857837","4.836596","0.020337","0.050244","-0.101685","0.094507","0.058618","-0.023926"
"X","1617451678.7850175","7","39","7","61","61","39","0.866516","0.090759","-0.48999","-0.027954","-0.015267","0.015267","0","8.329761","1.903296","4.824634","0.057422","0.093311","-0.107666","0.117236","0.096899","0.010767"
"X","1617451678.774959","7","40","5","58","63","40","0.866394","0.090881","-0.490173","-0.027954","-0.007634","0.007634","0.007634","8.311816","1.930811","4.809082","0.037085","0.118433","-0.118433","0.114844","0.12561","-0.005981"
"X","1617451678.765064","7","41","7","63","62","40","0.866333","0.091003","-0.490234","-0.028137","-0.007634","0","0.007634","8.262769","1.961914","4.788745","-0.010767","0.145947","-0.137573","0.105273","0.161499","-0.050244"
"X","1617451678.7549906","7","43","5","61","62","40","0.866333","0.091064","-0.490234","-0.02832","0","-0.007634","0.007634","8.208936","2.007373","4.781568","-0.0646","0.187817","-0.144751","0.082544","0.211743","-0.092114"
"X","1617451678.7449284","7","39","7","62","60","40","0.866394","0.091064","-0.490112","-0.028442","0","-0.007634","0.007634","8.140747","2.032495","4.768408","-0.130396","0.211743","-0.160303","0.059814","0.246436","-0.150732"
"X","1617451678.7350218","7","39","6","61","59","38","0.866516","0.090942","-0.489929","-0.028564","0.007634","-0.015267","0","8.082129","2.033691","4.76123","-0.186621","0.214136","-0.171069","0.040674","0.257202","-0.203369"
"X","1617451678.7250483","7","39","3","61","60","37","0.866638","0.090698","-0.489746","-0.028748","0.015267","-0.022901","0","8.018725","2.012158","4.76123","-0.248828","0.194995","-0.175854","0.013159","0.247632","-0.261987"
"X","1617451678.7150617","7","39","5","62","62","40","0.866821","0.090454","-0.489441","-0.02887","0.007634","-0.030534","0","7.974463","2.000195","4.785156","-0.289502","0.185425","-0.15791","-0.021533","0.24165","-0.288306"
"X","1617451678.7050428","7","39","7","62","59","39","0.867065","0.090332","-0.489014","-0.028992","0","-0.030534","0","7.945752","2.020532","4.818652","-0.313428","0.206958","-0.132788","-0.057422","0.263184","-0.291895"
"X","1617451678.694992","7","38","7","63","64","37","0.86731","0.09021","-0.488647","-0.028992","-0.007634","-0.030534","0","7.948144","2.03728","4.850952","-0.30625","0.226099","-0.108862","-0.07417","0.277539","-0.270361"
"X","1617451678.6849556","7","39","8","60","58","33","0.867493","0.090149","-0.488342","-0.028931","-0.007634","-0.022901","-0.007634","7.970874","2.032495","4.878467","-0.281128","0.22251","-0.087329","-0.080151","0.267969","-0.239258"
"X","1617451678.6751325","7","41","6","61","59","40","0.867615","0.089966","-0.488098","-0.028748","0","-0.015267","-0.007634","8.023511","1.988232","4.905982","-0.224902","0.183032","-0.0646","-0.068188","0.218921","-0.187817"
"X","1617451678.665059","7","39","4","60","59","39","0.867737","0.089661","-0.488037","-0.028564","0.007634","-0.007634","-0.015267","8.08811","1.914062","4.934692","-0.161499","0.114844","-0.038281","-0.055029","0.13877","-0.133984"
"X","1617451678.655014","7","41","5","57","62","41","0.867798","0.089294","-0.487976","-0.028442","0.007634","-0.015267","-0.015267","8.134766","1.833911","4.947852","-0.114844","0.043066","-0.027515","-0.037085","0.061011","-0.101685"
"X","1617451678.6450665","7","40","6","61","61","41","0.86792","0.08905","-0.487854","-0.028259","0","-0.022901","-0.015267","8.149121","1.778882","4.949048","-0.100488","-0.005981","-0.029907","-0.026318","0.010767","-0.100488"
"X","1617451678.634946","7","39","8","62","60","39","0.868042","0.088867","-0.48761","-0.028015","-0.007634","-0.022901","-0.022901","8.180224","1.74419","4.94187","-0.065796","-0.034692","-0.04187","0.002393","-0.019141","-0.082544"
"X","1617451678.6251","7","38","6","61","62","38","0.868103","0.088684","-0.487549","-0.02771","-0.007634","-0.007634","-0.022901","8.242432","1.687964","4.915552","-0.004785","-0.084937","-0.070581","0.059814","-0.072974","-0.055029"
"X","1617451678.615078","7","40","6","60","59","36","0.868103","0.088562","-0.48761","-0.027344","-0.007634","0","-0.022901","8.338135","1.609009","4.872485","0.088525","-0.159106","-0.112451","0.147144","-0.153125","-0.010767"
"X","1617451678.6049497","7","39","4","60","60","37","0.868103","0.088379","-0.487732","-0.027039","-0.007634","0.007634","-0.022901","8.417089","1.536035","4.830615","0.165088","-0.226099","-0.153125","0.224902","-0.223706","0.020337"
"X","1617451678.5949914","7","39","5","60","60","40","0.868042","0.088379","-0.487793","-0.026794","-0.015267","0","-0.022901","8.45896","1.478613","4.777978","0.205762","-0.281128","-0.204565","0.291895","-0.277539","0.017944"
"X","1617451678.5849843","7","39","5","60","62","37","0.868042","0.08844","-0.487854","-0.026489","-0.022901","0","-0.022901","8.463745","1.455884","4.757642","0.209351","-0.301465","-0.223706","0.311035","-0.294287","0.008374"
"X","1617451678.5749393","7","39","5","60","62","40","0.868042","0.088623","-0.487793","-0.026123","-0.022901","0","-0.022901","8.427856","1.445117","4.754053","0.173462","-0.312231","-0.227295","0.29668","-0.300269","-0.025122"
"X","1617451678.5650373","7","39","5","60","66","42","0.868103","0.088745","-0.48761","-0.025818","-0.015267","-0.007634","-0.022901","8.359668","1.436743","4.776782","0.107666","-0.319409","-0.206958","0.245239","-0.300269","-0.071777"
"X","1617451678.5552225","7","39","5","60","59","36","0.868225","0.088867","-0.487427","-0.025513","-0.015267","-0.007634","-0.022901","8.263965","1.42478","4.837793","0.013159","-0.330176","-0.149536","0.147144","-0.30625","-0.123218"
"X","1617451677.7761257","7","41","4","62","66","41","0.867798","0.096008","-0.486328","-0.033752","-0.007634","0","0.022901","7.931396","2.140161","5.140454","-0.276343","0.185425","0.156714","-0.284717","0.202173","-0.113647"
"X","1617451677.7660682","7","39","7","62","63","38","0.867676","0.096252","-0.486511","-0.034058","-0.007634","0","0.022901","7.942163","2.18562","5.152417","-0.266772","0.223706","0.172266","-0.293091","0.235669","-0.090918"
"X","1617451677.756147","7","39","4","61","59","38","0.867554","0.096375","-0.486633","-0.034424","0.007634","0","0.022901","7.960107","2.196387","5.138062","-0.248828","0.228491","0.161499","-0.275146","0.239258","-0.080151"
"X","1617451677.7460918","7","41","5","60","60","39","0.867493","0.096375","-0.486755","-0.034851","0.015267","-0.007634","0.022901","7.964892","2.179639","5.077051","-0.245239","0.208154","0.102881","-0.22251","0.227295","-0.111255"
"X","1617451677.7360258","7","40","5","61","57","37","0.867432","0.096252","-0.486877","-0.035339","0.015267","0","0.030534","7.992407","2.149731","4.990918","-0.217725","0.175854","0.017944","-0.133984","0.203369","-0.137573"
"X","1617451677.7260845","7","38","6","60","60","40","0.86731","0.09613","-0.487","-0.035889","0.015267","0.007634","0.022901","8.049829","2.137769","4.905982","-0.160303","0.160303","-0.063403","-0.034692","0.19021","-0.133984"
"X","1617451677.7158866","7","39","7","61","60","37","0.867188","0.096069","-0.487305","-0.036377","0.007634","0.022901","0.022901","8.115625","2.154517","4.818652","-0.098096","0.173462","-0.145947","0.066992","0.203369","-0.120825"
"X","1617451677.7059507","7","38","7","60","59","33","0.866943","0.096008","-0.487671","-0.036804","0.007634","0.030534","0.015267","8.182617","2.184424","4.755249","-0.033496","0.200977","-0.202173","0.14834","0.227295","-0.088525"
"X","1617451677.6959443","7","39","4","59","60","37","0.866699","0.095947","-0.488098","-0.03717","0.007634","0.030534","0.015267","8.241236","2.18562","4.707397","0.019141","0.19978","-0.24165","0.209351","0.223706","-0.0646"
"X","1617451677.6859372","7","40","4","61","62","36","0.866455","0.095764","-0.488525","-0.037537","0.015267","0.030534","0.015267","8.298657","2.15332","4.681079","0.071777","0.16748","-0.260791","0.25481","0.185425","-0.037085"
"X","1617451677.676123","7","40","6","60","62","36","0.866272","0.095459","-0.488892","-0.037903","0.015267","0.022901","0.007634","8.344116","2.097095","4.68706","0.113647","0.112451","-0.248828","0.267969","0.123218","-0.005981"
"X","1617451677.66602","7","38","5","61","61","39","0.86615","0.095154","-0.489136","-0.038269","0.015267","0.007634","0.007634","8.353686","2.045654","4.705005","0.120825","0.062207","-0.227295","0.25481","0.070581","0"
"X","1617451677.655975","7","39","5","61","59","39","0.86615","0.09491","-0.489136","-0.038574","0.015267","-0.007634","0.007634","8.347705","1.989429","4.736108","0.114844","0.008374","-0.197388","0.227295","0.014355","-0.001196"
"X","1617451677.6462724","7","41","8","60","60","40","0.866333","0.094604","-0.488892","-0.038757","0.015267","-0.022901","0","8.335742","1.941577","4.786353","0.105273","-0.035889","-0.153125","0.185425","-0.0323","0.003589"
"X","1617451677.6361215","7","38","5","62","59","39","0.866577","0.09436","-0.488525","-0.038879","0.007634","-0.030534","-0.007634","8.333349","1.887744","4.841382","0.107666","-0.086133","-0.10647","0.14834","-0.087329","0.019141"
"X","1617451677.6260512","7","41","3","61","60","37","0.866821","0.094116","-0.488037","-0.038879","0.015267","-0.030534","-0.007634","8.363256","1.815967","4.90957","0.142358","-0.154321","-0.046655","0.117236","-0.16748","0.0646"
"X","1617451677.616043","7","41","4","62","60","41","0.867126","0.093811","-0.487549","-0.03894","0.022901","-0.030534","-0.007634","8.412305","1.723853","4.986133","0.197388","-0.24165","0.017944","0.093311","-0.269165","0.12561"
"X","1617451677.60619","7","38","4","62","59","36","0.867493","0.093445","-0.487061","-0.03894","0.022901","-0.030534","-0.015267","8.478101","1.612598","5.102173","0.267969","-0.346924","0.122021","0.043066","-0.397168","0.216528"
"X","1617451677.5961945","7","38","3","57","59","37","0.867798","0.093018","-0.486572","-0.039062","0.022901","-0.022901","-0.015267","8.540308","1.506128","5.231372","0.334961","-0.447412","0.240454","-0.019141","-0.520386","0.313428"
"X","1617451677.5861278","7","42","5","61","63","39","0.868042","0.092651","-0.486206","-0.039124","0.022901","-0.030534","-0.022901","8.576197","1.436743","5.373731","0.374438","-0.512012","0.374438","-0.110059","-0.606519","0.401953"
"X","1617451677.57609","7","38","4","62","72","71","0.868286","0.092346","-0.485718","-0.039124","0.022901","-0.045802","-0.022901","8.554663","1.39248","5.475415","0.358887","-0.551489","0.466553","-0.196191","-0.653174","0.428271"
"X","1617451677.5661645","7","40","10","59","57","35","0.868591","0.092163","-0.485229","-0.039185","0.022901","-0.045802","-0.015267","8.505615","1.360181","5.499341","0.314624","-0.581396","0.480908","-0.230884","-0.6771","0.393579"
"X","1617451677.5560255","7","40","3","60","62","42","0.868835","0.092041","-0.484802","-0.039246","0.022901","-0.038168","-0.007634","8.498438","1.332666","5.420386","0.313428","-0.606519","0.393579","-0.155518","-0.691455","0.343335"
"X","1617451677.5460832","7","42","7","61","63","39","0.868958","0.092041","-0.484619","-0.03949","0.015267","-0.015267","0","8.546289","1.347021","5.28042","0.363672","-0.594556","0.248828","-0.007178","-0.669922","0.313428"
"X","1617451677.53627","7","40","5","61","58","39","0.868835","0.092224","-0.484741","-0.039795","-0.007634","0.015267","0","8.615674","1.414014","5.079443","0.43186","-0.533545","0.05144","0.193799","-0.596948","0.279932"
"X","1617451677.5260584","7","43","7","60","64","39","0.868591","0.092651","-0.485168","-0.040039","-0.015267","0.030534","0","8.679077","1.528857","4.854541","0.491675","-0.428271","-0.162695","0.405542","-0.477319","0.24165"
"X","1617451677.5163054","7","40","5","58","63","40","0.868225","0.093201","-0.485657","-0.040222","-0.022901","0.038168","0","8.69104","1.648486","4.643994","0.498853","-0.319409","-0.362476","0.576611","-0.34812","0.16748"
"X","1617451677.5060525","7","41","7","62","60","40","0.86792","0.09375","-0.486084","-0.040283","-0.030534","0.030534","0","8.592944","1.776489","4.45498","0.397168","-0.200977","-0.540723","0.672314","-0.193799","0.015552"
"X","1617451677.4961371","7","39","6","60","63","41","0.867737","0.09436","-0.486267","-0.040283","-0.038168","0.022901","-0.007634","8.401538","1.935596","4.3198","0.205762","-0.052637","-0.669922","0.678296","-0.001196","-0.179443"
"X","1617451677.48622","7","40","7","63","62","37","0.867737","0.09491","-0.486206","-0.0401","-0.038168","0.007634","-0.015267","8.167066","2.109058","4.281518","-0.027515","0.112451","-0.708203","0.584985","0.203369","-0.360083"
"X","1617451677.4762716","7","41","7","62","60","37","0.867859","0.095398","-0.485962","-0.039795","-0.038168","-0.015267","-0.015267","7.876367","2.268164","4.3198","-0.314624","0.265576","-0.672314","0.400757","0.395972","-0.550293"
"X","1617451677.4662285","7","41","5","60","62","37","0.868164","0.095642","-0.485352","-0.039368","-0.022901","-0.038168","-0.015267","7.552173","2.361475","4.41311","-0.631641","0.358887","-0.58977","0.160303","0.527563","-0.754858"
"X","1617451677.4564617","7","41","5","61","60","39","0.868652","0.095581","-0.484558","-0.038879","-0.007634","-0.061069","-0.022901","7.239942","2.415308","4.562646","-0.936694","0.418701","-0.455786","-0.117236","0.617285","-0.929517"
"X","1617451677.447022","7","39","4","59","62","41","0.869202","0.095276","-0.483643","-0.038452","0","-0.068702","-0.022901","6.997095","2.429663","4.707397","-1.169971","0.441431","-0.328979","-0.350513","0.660352","-1.053931"
"X","1617451677.4369054","7","39","8","61","63","39","0.86969","0.095032","-0.482849","-0.038025","-0.007634","-0.061069","-0.022901","6.859521","2.471533","4.85813","-1.29917","0.491675","-0.194995","-0.535937","0.710596","-1.082642"
"X","1617451677.426199","7","41","8","61","59","37","0.870056","0.094849","-0.482239","-0.037537","-0.022901","-0.045802","-0.022901","6.836792","2.534936","4.995703","-1.315918","0.562256","-0.069385","-0.655566","0.765625","-1.016846"
"X","1617451677.4169867","7","39","5","61","59","40","0.8703","0.094666","-0.481934","-0.036804","-0.030534","-0.030534","-0.030534","6.943262","2.543311","5.111743","-1.208252","0.5802","0.039478","-0.692651","0.750073","-0.868506"
"X","1617451677.406991","7","43","5","60","62","41","0.8703","0.094482","-0.481934","-0.036011","-0.030534","-0.015267","-0.038168","7.128686","2.487085","5.200269","-1.02522","0.534741","0.128003","-0.668726","0.66394","-0.679492"
"X","1617451677.3961265","7","39","4","61","58","39","0.870239","0.094177","-0.482239","-0.035034","-0.030534","-0.007634","-0.045802","7.357178","2.378223","5.245728","-0.80271","0.440234","0.177051","-0.58977","0.529956","-0.489282"
"X","1617451677.3868763","7","39","3","61","61","40","0.870117","0.093872","-0.482605","-0.033936","-0.038168","0","-0.061069","7.589258","2.258594","5.250513","-0.577808","0.336157","0.187817","-0.476123","0.391187","-0.318213"
"X","1617451677.3767965","7","38","5","58","60","37","0.869873","0.093628","-0.483154","-0.032715","-0.038168","0.015267","-0.068702","7.827319","2.132983","5.245728","-0.349316","0.226099","0.192603","-0.355298","0.247632","-0.147144"
"X","1617451677.3668916","7","38","6","61","59","38","0.869629","0.093384","-0.483704","-0.031311","-0.045802","0.015267","-0.083969","8.00437","1.996606","5.217017","-0.181836","0.107666","0.173462","-0.246436","0.108862","-0.04187"
"X","1617451677.3569448","7","39","7","63","62","39","0.869385","0.093079","-0.484375","-0.029846","-0.038168","0.022901","-0.091603","8.132373","1.844678","5.165576","-0.065796","-0.023926","0.132788","-0.145947","-0.031104","0.008374"
"X","1617451677.3470209","7","40","5","60","60","39","0.86908","0.092712","-0.485046","-0.028381","-0.015267","0.022901","-0.083969","8.20415","1.674805","5.087817","-0.005981","-0.173462","0.066992","-0.052637","-0.178247","-0.002393"
"X","1617451677.3368964","7","41","5","61","60","39","0.868835","0.092102","-0.485657","-0.027283","0.007634","0.030534","-0.061069","8.232862","1.481006","4.987329","0.010767","-0.346924","-0.022729","0.039478","-0.33855","-0.066992"
"X","1617451677.3268428","7","40","4","60","61","40","0.868591","0.091492","-0.486267","-0.026733","0.022901","0.038168","-0.038168","8.273535","1.329077","4.9","0.043066","-0.483301","-0.100488","0.128003","-0.466553","-0.104077"
"X","1617451677.3167667","7","40","5","61","62","41","0.868286","0.091064","-0.486877","-0.026733","0.030534","0.038168","-0.007634","8.307032","1.264477","4.849756","0.068188","-0.539526","-0.141162","0.178247","-0.519189","-0.113647"
"X","1617451677.3068967","7","40","5","61","62","40","0.868042","0.090759","-0.487305","-0.027161","0.030534","0.022901","0","8.296265","1.272852","4.837793","0.052637","-0.529956","-0.144751","0.172266","-0.508423","-0.126807"
"X","1617451677.297082","7","40","5","60","60","38","0.867981","0.090576","-0.487488","-0.027649","0.030534","0.007634","0.007634","8.234057","1.301563","4.846167","-0.00957","-0.502441","-0.135181","0.129199","-0.47373","-0.168677"
"X","1617451677.287007","7","40","5","60","60","41","0.868042","0.090393","-0.487366","-0.028198","0.022901","-0.015267","0.007634","8.169458","1.336255","4.915552","-0.071777","-0.470142","-0.068188","0.038281","-0.442627","-0.18064"
"X","1617451677.2768898","7","39","5","61","63","35","0.868286","0.090332","-0.486877","-0.028748","0.022901","-0.038168","0.015267","8.07854","1.366162","5.005273","-0.155518","-0.44502","0.010767","-0.072974","-0.416309","-0.206958"
"X","1617451677.2668755","7","42","5","60","61","37","0.868652","0.090393","-0.486206","-0.029297","0.015267","-0.045802","0.022901","8.016333","1.412817","5.124902","-0.209351","-0.404346","0.118433","-0.194995","-0.382812","-0.19021"
"X","1617451677.256994","7","39","7","60","60","41","0.868958","0.090576","-0.485596","-0.029846","0.007634","-0.045802","0.030534","7.995996","1.465454","5.237353","-0.221313","-0.360083","0.218921","-0.288306","-0.350513","-0.139966"
"X","1617451677.2467997","7","40","6","58","62","39","0.869202","0.090942","-0.485046","-0.030396","0","-0.038168","0.038168","8.010351","1.532446","5.319898","-0.198584","-0.305054","0.293091","-0.342139","-0.308643","-0.072974"
"X","1617451677.2370088","7","40","5","60","60","40","0.869324","0.09137","-0.484741","-0.031006","-0.007634","-0.022901","0.045802","8.070166","1.606616","5.361768","-0.132788","-0.244043","0.330176","-0.340942","-0.261987","0.011963"
"X","1617451677.2268295","7","41","3","60","60","37","0.869263","0.091858","-0.484741","-0.031677","0","0","0.045802","8.190991","1.667627","5.353394","-0.010767","-0.197388","0.322998","-0.272754","-0.233276","0.118433"
"X","1617451677.2168777","7","37","7","62","61","37","0.868958","0.092346","-0.485046","-0.032471","0","0.022901","0.053435","8.333349","1.691553","5.281616","0.130396","-0.189014","0.259595","-0.144751","-0.236865","0.205762"
"X","1617451677.206983","7","43","6","62","60","41","0.868591","0.092712","-0.485596","-0.033325","0.007634","0.045802","0.053435","8.472119","1.687964","5.163184","0.265576","-0.206958","0.153125","0.015552","-0.260791","0.259595"
"X","1617451677.1970394","7","40","5","60","62","33","0.868103","0.092957","-0.486389","-0.034302","0.015267","0.053435","0.045802","8.561841","1.64729","4.992114","0.34812","-0.260791","-0.001196","0.191406","-0.307446","0.239258"
"X","1617451677.186785","7","40","5","60","62","37","0.867554","0.093079","-0.487244","-0.035217","0.015267","0.053435","0.038168","8.596533","1.594653","4.76123","0.375635","-0.324194","-0.215332","0.388794","-0.346924","0.141162"
"X","1617451677.1771462","7","41","9","60","60","37","0.867065","0.093262","-0.487976","-0.036194","0.007634","0.053435","0.038168","8.619263","1.589868","4.531543","0.392383","-0.340942","-0.429468","0.5802","-0.339746","0.044263"
"X","1617451677.1669972","7","38","7","62","63","37","0.866699","0.093689","-0.488586","-0.037109","-0.007634","0.045802","0.045802","8.571411","1.634131","4.325781","0.339746","-0.312231","-0.623267","0.716577","-0.279932","-0.090918"
"X","1617451677.157039","7","39","1","61","61","36","0.866394","0.09436","-0.488892","-0.037964","-0.030534","0.038168","0.045802","8.487671","1.75376","4.164282","0.25481","-0.211743","-0.776392","0.800317","-0.14834","-0.218921"
"X","1617451677.1469424","7","38","4","60","63","39","0.866089","0.095337","-0.489136","-0.038696","-0.038168","0.038168","0.053435","8.389575","1.922436","4.072168","0.15791","-0.065796","-0.858936","0.817065","0.019141","-0.312231"
"X","1617451677.136933","7","39","5","61","59","40","0.865845","0.096375","-0.489258","-0.039368","-0.038168","0.030534","0.061069","8.260376","2.089917","4.017138","0.031104","0.076563","-0.907983","0.789551","0.185425","-0.413916"
"X","1617451677.1269374","7","40","5","61","63","39","0.865662","0.097412","-0.48938","-0.040161","-0.030534","0.030534","0.068702","8.132373","2.222705","4.020728","-0.093311","0.184229","-0.898413","0.714185","0.311035","-0.490479"
"X","1617451677.1170378","7","39","4","60","60","39","0.86554","0.098267","-0.48938","-0.041016","-0.022901","0.022901","0.068702","8.001978","2.321997","4.062598","-0.220117","0.260791","-0.852954","0.608911","0.401953","-0.557471"
"X","1617451677.107082","7","39","7","61","60","37","0.865479","0.098999","-0.489258","-0.041992","-0.015267","0.007634","0.076336","7.857226","2.39856","4.152319","-0.360083","0.31582","-0.763232","0.458179","0.468945","-0.617285"
"X","1617451677.097036","7","41","8","61","63","37","0.86554","0.09967","-0.488892","-0.042969","-0.015267","-0.015267","0.068702","7.686157","2.479907","4.274341","-0.522778","0.376831","-0.6448","0.271558","0.541919","-0.680689"
"X","1617451677.086929","7","40","5","60","98","26","0.865723","0.100464","-0.488342","-0.043823","-0.038168","-0.022901","0.061069","7.541406","2.592358","4.428662","-0.657959","0.467749","-0.498853","0.07417","0.635229","-0.699829"
"X","1617451677.0769453","7","40","7","61","61","37","0.865906","0.101318","-0.487793","-0.044312","-0.061069","-0.030534","0.045802","7.460059","2.743091","4.611694","-0.729736","0.599341","-0.322998","-0.11604","0.754858","-0.641211"
"X","1617451677.0670323","7","40","3","60","60","33","0.866089","0.102295","-0.487305","-0.04425","-0.076336","-0.038168","0.030534","7.486377","2.873486","4.78396","-0.69624","0.714185","-0.155518","-0.246436","0.839795","-0.502441"
"X","1617451677.056901","7","40","6","62","64","38","0.86615","0.10321","-0.487","-0.043823","-0.083969","-0.030534","0.007634","7.640698","2.933301","4.950244","-0.537134","0.762036","0.007178","-0.305054","0.836206","-0.275146"
"X","1617451677.0469956","7","39","7","63","60","40","0.866211","0.103943","-0.486816","-0.043091","-0.076336","-0.022901","-0.007634","7.858423","2.899805","5.108154","-0.318213","0.723755","0.165088","-0.325391","0.73811","-0.021533"
"X","1617451677.0369189","7","40","5","62","57","39","0.866211","0.104431","-0.486755","-0.042175","-0.061069","-0.015267","-0.022901","8.077344","2.804101","5.286401","-0.099292","0.628052","0.344531","-0.362476","0.5802","0.229687"
"X","1617451677.0268185","7","38","7","61","63","36","0.866272","0.104675","-0.486694","-0.041138","-0.053435","-0.022901","-0.038168","8.240039","2.644995","5.487378","0.059814","0.474927","0.544312","-0.446216","0.374438","0.429468"
"X","1617451677.0169702","7","41","5","60","61","41","0.866394","0.104675","-0.486572","-0.0401","-0.030534","-0.030534","-0.045802","8.291479","2.447608","5.67041","0.110059","0.287109","0.724951","-0.568237","0.156714","0.520386"
"X","1617451677.0070443","7","39","5","60","62","37","0.866577","0.10437","-0.486389","-0.039124","0","-0.045802","-0.053435","8.269946","2.21792","5.791235","0.088525","0.071777","0.840991","-0.671118","-0.0646","0.513208"
"X","1617451676.9969869","7","39","5","61","62","38","0.866821","0.103699","-0.486145","-0.038391","0.030534","-0.038168","-0.045802","8.196973","1.981055","5.802002","0.014355","-0.145947","0.84458","-0.705811","-0.26438","0.406738"
"X","1617451676.9870875","7","41","5","60","59","39","0.867004","0.103088","-0.486023","-0.038086","0.030534","-0.022901","-0.022901","8.134766","1.865015","5.745776","-0.046655","-0.248828","0.783569","-0.681885","-0.345728","0.303857"
"X","1617451676.9769878","7","39","6","59","60","39","0.866943","0.102844","-0.486145","-0.038208","0.015267","0","0","8.107251","1.935596","5.653662","-0.075366","-0.175854","0.692651","-0.62207","-0.256006","0.248828"
"X","1617451676.9669616","7","40","5","61","62","41","0.866699","0.103027","-0.486572","-0.038452","-0.007634","0.015267","0.007634","8.095288","2.11145","5.501733","-0.092114","-0.004785","0.549097","-0.514404","-0.065796","0.198584"
"X","1617451676.9570315","7","39","7","62","64","41","0.866272","0.103333","-0.487244","-0.038635","-0.015267","0.030534","0.007634","8.109644","2.287305","5.298364","-0.084937","0.162695","0.360083","-0.356494","0.122021","0.144751"
"X","1617451676.947065","7","40","7","61","61","41","0.865723","0.103577","-0.488098","-0.038696","-0.015267","0.045802","0","8.201757","2.399756","5.09978","-0.001196","0.271558","0.179443","-0.162695","0.239258","0.147144"
"X","1617451676.9369671","7","39","5","61","62","41","0.865234","0.103699","-0.489014","-0.038635","-0.007634","0.045802","0","8.308228","2.444019","4.905982","0.093311","0.314624","0.003589","0.033496","0.290698","0.14834"
"X","1617451676.9270082","7","41","6","61","64","36","0.864807","0.103577","-0.489807","-0.038574","0","0.038168","-0.007634","8.409912","2.409326","4.756445","0.185425","0.282324","-0.130396","0.197388","0.261987","0.150732"
"X","1617451676.9170215","7","40","6","60","61","40","0.864502","0.103149","-0.490356","-0.038513","0.015267","0.030534","-0.015267","8.53313","2.307642","4.69065","0.301465","0.189014","-0.186621","0.308643","0.159106","0.200977"
"X","1617451676.9069874","7","40","5","60","61","40","0.86438","0.102661","-0.490662","-0.038513","0.022901","0.015267","-0.015267","8.646777","2.210742","4.695435","0.411523","0.100488","-0.178247","0.361279","0.053833","0.278735"
"X","1617451676.8971648","7","40","6","62","63","40","0.864441","0.102112","-0.490723","-0.038513","0.022901","0","-0.022901","8.716162","2.125806","4.745679","0.478516","0.025122","-0.129199","0.355298","-0.037085","0.342139"
"X","1617451676.8871193","7","40","7","60","59","38","0.864624","0.101501","-0.49054","-0.038391","0.022901","-0.022901","-0.022901","8.753247","2.039673","4.81626","0.515601","-0.049048","-0.0646","0.321802","-0.124414","0.38999"
"X","1617451676.8770971","7","39","7","60","60","37","0.864929","0.100891","-0.490112","-0.03833","0.030534","-0.030534","-0.022901","8.749659","1.958325","4.925122","0.515601","-0.119629","0.0323","0.24165","-0.205762","0.423486"
"X","1617451676.8670862","7","39","7","63","56","40","0.865356","0.100281","-0.489441","-0.03833","0.038168","-0.045802","-0.022901","8.712573","1.880566","5.035181","0.485693","-0.187817","0.128003","0.147144","-0.279932","0.43186"
"X","1617451676.857101","7","41","5","61","59","38","0.865845","0.099731","-0.48877","-0.038452","0.038168","-0.045802","-0.015267","8.661133","1.81477","5.146436","0.441431","-0.245239","0.22251","0.046655","-0.340942","0.429468"
"X","1617451676.8469155","7","39","7","60","61","37","0.866272","0.099243","-0.488098","-0.038696","0.038168","-0.045802","0","8.604907","1.8052","5.258887","0.392383","-0.250024","0.320605","-0.061011","-0.350513","0.437842"
"X","1617451676.8371544","7","40","4","58","63","39","0.866638","0.098938","-0.487427","-0.039062","0.030534","-0.038168","0.007634","8.527148","1.841089","5.351001","0.322998","-0.211743","0.399561","-0.165088","-0.312231","0.427075"
"X","1617451676.8271775","7","41","5","60","64","32","0.866943","0.098694","-0.486877","-0.03949","0.030534","-0.038168","0.007634","8.446997","1.896118","5.409619","0.250024","-0.156714","0.446216","-0.244043","-0.252417","0.401953"
"X","1617451676.8170652","7","38","8","62","63","39","0.867188","0.098511","-0.48645","-0.039917","0.030534","-0.030534","0.007634","8.383594","1.939185","5.413208","0.191406","-0.114844","0.441431","-0.271558","-0.200977","0.358887"
"X","1617451676.8071113","7","40","5","62","62","39","0.867432","0.098145","-0.486145","-0.040405","0.045802","-0.030534","0.007634","8.302246","1.924829","5.36416","0.113647","-0.128003","0.384009","-0.263184","-0.193799","0.263184"
"X","1617451676.7971458","7","41","9","57","59","40","0.867615","0.097534","-0.485779","-0.040894","0.053435","-0.038168","0","8.189795","1.87937","5.256494","0.007178","-0.16748","0.267969","-0.220117","-0.198584","0.10647"
"X","1617451676.7871077","7","40","7","62","57","36","0.867859","0.096863","-0.485413","-0.041321","0.053435","-0.030534","-0.007634","8.080933","1.825537","5.118921","-0.096899","-0.214136","0.122021","-0.149536","-0.208154","-0.062207"
"X","1617451676.7771838","7","41","5","58","59","36","0.868103","0.09613","-0.485168","-0.041687","0.045802","-0.022901","-0.015267","7.973267","1.789648","4.935889","-0.202173","-0.24165","-0.068188","-0.043066","-0.193799","-0.252417"
"X","1617451676.7670803","7","41","6","59","62","40","0.868225","0.095459","-0.485046","-0.041931","0.038168","-0.007634","-0.022901","7.893115","1.782471","4.745679","-0.282324","-0.240454","-0.263184","0.078955","-0.155518","-0.418701"
"X","1617451676.7570877","7","40","7","60","59","42","0.868286","0.094849","-0.485107","-0.041992","0.030534","0.015267","-0.030534","7.854834","1.792041","4.555469","-0.321802","-0.221313","-0.455786","0.22251","-0.10647","-0.546704"
"X","1617451676.7473495","7","40","4","60","60","39","0.868164","0.094238","-0.485474","-0.041992","0.030534","0.030534","-0.030534","7.826123","1.807593","4.373633","-0.356494","-0.194995","-0.632837","0.354102","-0.053833","-0.660352"
"X","1617451676.7371142","7","38","6","61","60","37","0.86792","0.093628","-0.485901","-0.042053","0.030534","0.038168","-0.022901","7.785449","1.824341","4.19419","-0.403149","-0.168677","-0.805103","0.476123","0","-0.781177"
"X","1617451676.7270508","7","39","6","59","60","37","0.867737","0.093018","-0.486389","-0.042175","0.022901","0.045802","-0.015267","7.741187","1.874585","4.062598","-0.453394","-0.108862","-0.929517","0.556274","0.078955","-0.874487"
"X","1617451676.717167","7","40","6","62","63","41","0.867493","0.092529","-0.486877","-0.042358","0.015267","0.045802","-0.015267","7.683764","1.949951","4.006372","-0.516797","-0.027515","-0.978564","0.564648","0.173462","-0.935498"
"X","1617451676.7072656","7","40","7","60","61","38","0.86731","0.092224","-0.487244","-0.042419","0","0.038168","-0.015267","7.611987","2.038476","4.005176","-0.593359","0.0646","-0.973779","0.519189","0.275146","-0.978564"
"X","1617451676.6970158","7","41","5","62","59","42","0.867188","0.092041","-0.487549","-0.042236","-0.015267","0.022901","-0.022901","7.552173","2.107861","4.057813","-0.657959","0.13877","-0.916357","0.436646","0.351709","-0.988135"
"X","1617451676.6871068","7","40","8","62","60","39","0.867126","0.091736","-0.487732","-0.041809","-0.015267","0.015267","-0.038168","7.519873","2.117432","4.163086","-0.693848","0.15791","-0.808691","0.325391","0.362476","-0.959424"
"X","1617451676.6778178","7","40","3","62","59","39","0.867126","0.091431","-0.487854","-0.041138","-0.015267","0.007634","-0.038168","7.555762","2.075562","4.299463","-0.661548","0.128003","-0.671118","0.226099","0.311035","-0.869702"
"X","1617451676.6678736","7","40","8","60","59","37","0.867126","0.091187","-0.487976","-0.040466","-0.030534","0","-0.038168","7.640698","2.026514","4.447803","-0.5802","0.088525","-0.521582","0.141162","0.240454","-0.733325"
"X","1617451676.6578584","7","41","7","60","62","39","0.867188","0.091064","-0.487976","-0.039673","-0.030534","0","-0.045802","7.744775","1.965503","4.598535","-0.477319","0.037085","-0.37085","0.066992","0.155518","-0.5802"
"X","1617451676.647853","7","38","7","61","62","37","0.867188","0.090942","-0.487976","-0.038818","-0.038168","0","-0.045802","7.838086","1.855444","4.754053","-0.386401","-0.061011","-0.215332","-0.015552","0.025122","-0.44502"
"X","1617451676.6379087","7","40","4","61","60","33","0.867188","0.091003","-0.488037","-0.037903","-0.045802","-0.007634","-0.053435","7.940967","1.760937","4.894019","-0.285913","-0.14834","-0.07417","-0.081348","-0.092114","-0.30625"
"X","1617451676.6278074","7","38","5","62","60","39","0.867188","0.091187","-0.488098","-0.036865","-0.045802","-0.007634","-0.053435","8.013941","1.68916","5.002881","-0.215332","-0.212939","0.035889","-0.136377","-0.179443","-0.203369"
"X","1617451676.6178436","7","40","7","60","60","37","0.867126","0.09137","-0.488281","-0.035828","-0.045802","0","-0.053435","8.096484","1.63772","5.075854","-0.137573","-0.257202","0.112451","-0.160303","-0.245239","-0.107666"
"X","1617451676.607927","7","41","3","59","60","41","0.866943","0.091675","-0.488586","-0.034912","-0.045802","0.015267","-0.045802","8.218506","1.619775","5.127295","-0.020337","-0.271558","0.171069","-0.14834","-0.283521","0.016748"
"X","1617451676.5978668","7","41","1","36","61","37","0.866699","0.092041","-0.489075","-0.034119","-0.038168","0.022901","-0.030534","8.305835","1.640112","5.127295","0.058618","-0.250024","0.18064","-0.11604","-0.276343","0.092114"
"X","1617451676.5878007","7","42","5","58","101","47","0.866333","0.092468","-0.489624","-0.03363","-0.038168","0.022901","-0.015267","8.374023","1.678394","5.086621","0.120825","-0.214136","0.153125","-0.061011","-0.246436","0.136377"
"X","1617451676.5770326","7","39","7","60","58","40","0.866028","0.092957","-0.490112","-0.033386","-0.038168","0.022901","-0.007634","8.391968","1.75376","5.022021","0.132788","-0.144751","0.099292","-0.010767","-0.173462","0.132788"
"X","1617451676.5678132","7","40","7","62","60","37","0.865784","0.093506","-0.490417","-0.033142","-0.038168","0.015267","-0.007634","8.351294","1.825537","4.961011","0.089722","-0.078955","0.046655","0.008374","-0.095703","0.082544"
"X","1617451676.5578756","7","41","4","61","59","39","0.865601","0.093994","-0.490662","-0.032898","-0.038168","0.007634","-0.007634","8.297461","1.860229","4.914355","0.033496","-0.050244","0.005981","0.013159","-0.053833","0.020337"
"X","1617451676.547888","7","39","5","62","59","39","0.865479","0.09436","-0.490845","-0.032654","-0.030534","0","0","8.261572","1.851856","4.877271","-0.003589","-0.062207","-0.025122","0.021533","-0.056226","-0.027515"
"X","1617451676.5379324","7","41","5","60","61","40","0.865417","0.094666","-0.490906","-0.032471","-0.022901","0","0","8.243628","1.819556","4.846167","-0.022729","-0.098096","-0.053833","0.037085","-0.084937","-0.0646"
"X","1617451676.5280445","7","39","3","61","62","36","0.865417","0.095032","-0.490906","-0.03241","-0.022901","-0.007634","0","8.24602","1.813574","4.836596","-0.020337","-0.110059","-0.062207","0.046655","-0.095703","-0.069385"
"X","1617451676.5180454","7","40","5","61","58","37","0.865417","0.095398","-0.490845","-0.03241","-0.022901","-0.015267","0.007634","8.24602","1.842285","4.844971","-0.019141","-0.087329","-0.053833","0.038281","-0.075366","-0.059814"
"X","1617451676.5079246","7","39","4","61","57","38","0.865479","0.095825","-0.490662","-0.032471","-0.015267","-0.022901","0.007634","8.234057","1.878174","4.865308","-0.027515","-0.058618","-0.035889","0.017944","-0.047852","-0.052637"
"X","1617451676.4978952","7","41","7","61","62","36","0.865601","0.09613","-0.490356","-0.032532","-0.015267","-0.030534","0.007634","8.223291","1.928418","4.884448","-0.033496","-0.014355","-0.021533","0.001196","-0.005981","-0.040674"
"X","1617451676.4879718","7","42","8","61","63","41","0.865784","0.096436","-0.489929","-0.032593","-0.015267","-0.030534","0.015267","8.179029","1.991821","4.921533","-0.072974","0.04187","0.008374","-0.045459","0.050244","-0.047852"
"X","1617451676.4777722","7","41","8","65","66","40","0.866028","0.096802","-0.489441","-0.032776","-0.015267","-0.030534","0.015267","8.159887","2.065991","4.965796","-0.084937","0.107666","0.044263","-0.084937","0.111255","-0.027515"
"X","1617451676.468005","7","40","8","61","63","37","0.866211","0.097107","-0.488953","-0.032959","-0.015267","-0.030534","0.015267","8.13357","2.144946","5.011255","-0.104077","0.179443","0.082544","-0.130396","0.179443","-0.00957"
"X","1617451676.4577706","7","41","4","61","61","39","0.866394","0.097351","-0.488586","-0.033203","-0.015267","-0.030534","0.022901","8.109644","2.213135","5.066284","-0.123218","0.24165","0.130396","-0.184229","0.236865","0.00957"
"X","1617451676.447881","7","40","8","61","62","42","0.866577","0.097595","-0.48822","-0.033325","-0.007634","-0.030534","0.015267","8.100073","2.244238","5.102173","-0.128003","0.266772","0.160303","-0.212939","0.258398","0.026318"
"X","1617451676.437913","7","39","8","60","62","40","0.866699","0.097656","-0.487976","-0.033447","-0.007634","-0.022901","0.007634","8.11084","2.247827","5.127295","-0.113647","0.267969","0.181836","-0.223706","0.25481","0.050244"
"X","1617451676.4278443","7","39","5","61","64","38","0.866821","0.097717","-0.487793","-0.033508","-0.007634","-0.022901","0.007634","8.14314","2.21792","5.135669","-0.078955","0.236865","0.185425","-0.206958","0.217725","0.07417"
"X","1617451676.4177997","7","38","5","61","63","39","0.866882","0.097656","-0.487671","-0.033508","-0.007634","-0.022901","-0.007634","8.167066","2.171265","5.139258","-0.053833","0.191406","0.187817","-0.194995","0.169873","0.087329"
"X","1617451676.407876","7","40","5","62","60","39","0.867004","0.097534","-0.487549","-0.033325","0","-0.015267","-0.015267","8.176636","2.109058","5.128491","-0.044263","0.132788","0.173462","-0.174658","0.112451","0.076563"
"X","1617451676.3979492","7","40","8","60","61","41","0.867065","0.09729","-0.487427","-0.033081","0","-0.015267","-0.022901","8.170654","2.032495","5.104566","-0.049048","0.062207","0.147144","-0.153125","0.047852","0.045459"
"X","1617451676.387993","7","41","7","62","63","41","0.867126","0.097046","-0.487427","-0.032715","0","-0.015267","-0.022901","8.16228","1.94397","5.067481","-0.058618","-0.016748","0.108862","-0.122021","-0.021533","0.002393"
"X","1617451676.3778543","7","38","5","61","62","39","0.867188","0.096741","-0.487427","-0.03241","0.007634","-0.007634","-0.030534","8.140747","1.853052","5.019629","-0.081348","-0.100488","0.058618","-0.088525","-0.093311","-0.058618"
"X","1617451676.367985","7","40","5","60","60","39","0.867188","0.096375","-0.487488","-0.032166","0.007634","0","-0.030534","8.115625","1.776489","4.9646","-0.108862","-0.168677","0.003589","-0.052637","-0.14834","-0.122021"
"X","1617451676.3580782","7","41","4","62","60","37","0.867126","0.09613","-0.487671","-0.031982","0.007634","0.007634","-0.022901","8.090503","1.735815","4.919141","-0.136377","-0.203369","-0.038281","-0.029907","-0.173462","-0.173462"
"X","1617451676.3479695","7","39","5","61","60","41","0.867004","0.095947","-0.487915","-0.03186","0","0.015267","-0.015267","8.060596","1.726245","4.878467","-0.169873","-0.208154","-0.07417","-0.016748","-0.16748","-0.220117"
"X","1617451676.337841","7","42","7","61","61","40","0.866882","0.095886","-0.488159","-0.031799","0","0.015267","-0.007634","8.037867","1.737012","4.842578","-0.196191","-0.196191","-0.105273","-0.004785","-0.14834","-0.256006"
"X","1617451676.3278935","7","41","4","60","62","42","0.86676","0.095886","-0.488403","-0.031799","0","0.007634","-0.007634","8.018725","1.76333","4.81626","-0.217725","-0.169873","-0.128003","0.001196","-0.11604","-0.279932"
"X","1617451676.3179262","7","41","6","62","63","39","0.866638","0.095825","-0.488525","-0.031921","0.007634","0","0","7.988818","1.800415","4.794726","-0.248828","-0.132788","-0.145947","0","-0.072974","-0.308643"
"X","1617451676.3080902","7","40","7","61","61","40","0.866638","0.095825","-0.488586","-0.032104","0.007634","0","0.007634","7.986426","1.817163","4.785156","-0.252417","-0.117236","-0.155518","0.004785","-0.055029","-0.313428"
"X","1617451676.298202","7","40","5","37","60","41","0.866638","0.095764","-0.488586","-0.03241","0.007634","-0.007634","0.007634","7.991211","1.836304","4.799512","-0.246436","-0.100488","-0.141162","-0.003589","-0.04187","-0.297876"
"X","1617451676.2878282","7","41","7","63","34","42","0.866699","0.095703","-0.488464","-0.032715","0.007634","-0.015267","0.015267","7.9948","1.854248","4.828223","-0.240454","-0.08374","-0.114844","-0.023926","-0.029907","-0.276343"
"X","1617451675.4090078","7","40","5","59","60","40","0.865051","0.09491","-0.491943","-0.025085","-0.022901","-0.030534","-0.022901","7.737597","2.193994","5.304346","-0.556274","0.342139","0.423486","-0.665137","0.351709","-0.194995"
"X","1617451675.3989682","7","41","7","61","62","38","0.865051","0.094788","-0.492004","-0.024414","-0.015267","-0.015267","-0.030534","7.826123","2.085132","5.319898","-0.470142","0.24165","0.440234","-0.630444","0.238062","-0.132788"
"X","1617451675.3890169","7","39","4","61","63","37","0.864929","0.094482","-0.492249","-0.023804","-0.015267","0","-0.030534","7.932593","1.967896","5.284009","-0.367261","0.136377","0.409131","-0.545508","0.12561","-0.081348"
"X","1617451675.3791423","7","42","8","61","60","38","0.864746","0.094238","-0.492676","-0.023254","-0.007634","0.007634","-0.038168","8.055811","1.876978","5.227783","-0.251221","0.055029","0.358887","-0.439038","0.037085","-0.023926"
"X","1617451675.3691933","7","40","4","60","62","39","0.864502","0.093933","-0.493164","-0.022705","0","0.015267","-0.038168","8.168262","1.752563","5.136865","-0.145947","-0.057422","0.277539","-0.308643","-0.075366","0.002393"
"X","1617451675.359095","7","41","7","61","60","38","0.864258","0.093506","-0.493774","-0.022217","0","0.022901","-0.038168","8.299853","1.611401","5.039966","-0.022729","-0.186621","0.189014","-0.162695","-0.205762","0.039478"
"X","1617451675.34892","7","41","6","60","60","39","0.864014","0.093201","-0.494324","-0.021851","0.007634","0.022901","-0.030534","8.395556","1.512109","4.939477","0.063403","-0.277539","0.098096","-0.035889","-0.294287","0.05144"
"X","1617451675.3390467","7","39","5","62","61","40","0.86377","0.092896","-0.494751","-0.021606","0.007634","0.015267","-0.030534","8.450586","1.430762","4.866504","0.113647","-0.350513","0.033496","0.047852","-0.362476","0.049048"
"X","1617451675.3289945","7","41","5","61","59","40","0.863586","0.09259","-0.495117","-0.021484","0.015267","0.015267","-0.022901","8.480494","1.374536","4.833008","0.13877","-0.400757","0.005981","0.087329","-0.411523","0.047852"
"X","1617451675.3189406","7","39","8","62","63","36","0.863525","0.092346","-0.495239","-0.021545","0.022901","0","-0.007634","8.467334","1.329077","4.809082","0.123218","-0.442627","-0.015552","0.099292","-0.447412","0.016748"
"X","1617451675.3094318","7","38","7","58","61","39","0.863525","0.092102","-0.495239","-0.021851","0.030534","-0.007634","0.007634","8.437427","1.303955","4.797119","0.094507","-0.466553","-0.027515","0.095703","-0.465356","-0.016748"
"X","1617451675.299003","7","40","4","58","57","39","0.863647","0.091919","-0.495117","-0.0224","0.030534","-0.007634","0.022901","8.412305","1.306348","4.809082","0.070581","-0.466553","-0.020337","0.077759","-0.46416","-0.033496"
"X","1617451675.288973","7","38","4","61","60","42","0.863708","0.091919","-0.494934","-0.023193","0.030534","-0.015267","0.038168","8.382398","1.345825","4.813867","0.045459","-0.434253","-0.017944","0.059814","-0.429468","-0.049048"
"X","1617451675.2791035","7","40","8","61","62","41","0.863892","0.092041","-0.494629","-0.024109","0.022901","-0.022901","0.045802","8.362061","1.427173","4.817456","0.029907","-0.364868","-0.020337","0.050244","-0.358887","-0.050244"
"X","1617451675.2689452","7","43","5","61","60","38","0.864014","0.092407","-0.494324","-0.025085","0.007634","-0.015267","0.045802","8.359668","1.538428","4.809082","0.033496","-0.269165","-0.033496","0.058618","-0.263184","-0.037085"
"X","1617451675.2592094","7","40","7","60","64","38","0.864075","0.092834","-0.494019","-0.026001","0","-0.015267","0.053435","8.362061","1.665234","4.811475","0.04187","-0.15791","-0.034692","0.057422","-0.155518","-0.010767"
"X","1617451675.2492454","7","39","7","62","60","42","0.864136","0.093323","-0.493774","-0.026917","0","-0.007634","0.053435","8.366846","1.781274","4.818652","0.052637","-0.059814","-0.031104","0.056226","-0.061011","0.017944"
"X","1617451675.2390523","7","40","5","62","60","40","0.864197","0.093872","-0.49353","-0.027832","0","-0.007634","0.061069","8.362061","1.880566","4.823438","0.052637","0.020337","-0.028711","0.050244","0.015552","0.033496"
"X","1617451675.2288916","7","40","5","62","58","39","0.864197","0.09436","-0.493408","-0.028748","0","-0.007634","0.061069","8.362061","1.961914","4.831811","0.057422","0.084937","-0.021533","0.043066","0.077759","0.053833"
"X","1617451675.2191124","7","41","4","59","63","39","0.864197","0.094788","-0.493225","-0.029663","0.007634","-0.007634","0.061069","8.338135","2.030102","4.838989","0.038281","0.137573","-0.015552","0.026318","0.130396","0.050244"
"X","1617451675.2089825","7","39","7","62","62","39","0.864258","0.095093","-0.492981","-0.030579","0.015267","-0.022901","0.053435","8.27832","2.076758","4.844971","-0.014355","0.169873","-0.013159","-0.002393","0.169873","0.014355"
"X","1617451675.1990223","7","41","8","63","64","41","0.864502","0.095276","-0.492554","-0.031433","0.015267","-0.030534","0.045802","8.20415","2.099487","4.831811","-0.082544","0.18064","-0.034692","-0.019141","0.193799","-0.05144"
"X","1617451675.1891248","7","40","6","62","62","39","0.864746","0.095337","-0.492065","-0.032166","0.015267","-0.030534","0.030534","8.158691","2.117432","4.82583","-0.120825","0.19021","-0.050244","-0.025122","0.210547","-0.088525"
"X","1617451675.178953","7","40","5","61","60","40","0.86499","0.095276","-0.491577","-0.032715","0.015267","-0.030534","0.015267","8.119214","2.137769","4.829419","-0.153125","0.206958","-0.056226","-0.038281","0.23208","-0.11604"
"X","1617451675.169204","7","41","6","60","62","40","0.865173","0.095154","-0.491211","-0.032959","0.007634","-0.022901","0.007634","8.084521","2.159302","4.833008","-0.183032","0.227295","-0.059814","-0.050244","0.257202","-0.13877"
"X","1617451675.1589932","7","41","8","62","64","38","0.865295","0.09491","-0.491028","-0.033081","0.007634","-0.015267","-0.007634","8.06897","2.154517","4.838989","-0.196191","0.226099","-0.057422","-0.059814","0.258398","-0.149536"
"X","1617451675.149155","7","28","5","62","61","42","0.865417","0.094604","-0.490967","-0.033081","0.015267","-0.007634","-0.007634","8.052221","2.122217","4.82583","-0.214136","0.198584","-0.07417","-0.053833","0.235669","-0.178247"
"X","1617451675.13918","7","40","7","62","62","39","0.865417","0.094238","-0.490967","-0.033081","0.015267","0","-0.007634","8.045044","2.076758","4.803101","-0.221313","0.159106","-0.096899","-0.035889","0.200977","-0.203369"
"X","1617451675.129747","7","42","7","61","62","37","0.865417","0.09375","-0.491028","-0.033081","0.022901","0","-0.007634","8.042651","2.020532","4.764819","-0.224902","0.111255","-0.136377","-0.002393","0.160303","-0.235669"
"X","1617451675.119107","7","40","7","60","60","39","0.865479","0.093323","-0.491089","-0.033203","0.022901","-0.007634","-0.007634","8.034277","1.970288","4.724145","-0.234473","0.066992","-0.178247","0.028711","0.123218","-0.27395"
"X","1617451675.1098132","7","43","5","60","58","39","0.86554","0.092834","-0.491028","-0.033325","0.022901","-0.015267","-0.007634","8.010351","1.909277","4.67749","-0.258398","0.013159","-0.227295","0.059814","0.080151","-0.328979"
"X","1617451675.0992703","7","39","6","58","57","38","0.865662","0.092468","-0.490845","-0.033447","0.015267","-0.015267","-0.007634","7.997192","1.856641","4.633227","-0.269165","-0.033496","-0.276343","0.098096","0.04187","-0.37085"
"X","1617451675.0898676","7","40","7","62","59","37","0.865784","0.092102","-0.490662","-0.033569","0.015267","-0.015267","-0.007634","8.021118","1.811182","4.605713","-0.244043","-0.07417","-0.308643","0.139966","0.002393","-0.374438"
"X","1617451675.0799215","7","39","6","62","63","41","0.865967","0.091858","-0.490417","-0.03363","0.007634","-0.015267","-0.007634","8.070166","1.765723","4.60332","-0.192603","-0.11604","-0.317017","0.174658","-0.044263","-0.343335"
"X","1617451675.0698168","7","39","7","62","61","39","0.866089","0.091675","-0.490234","-0.03363","0","-0.007634","-0.007634","8.125196","1.729834","4.63562","-0.135181","-0.14834","-0.288306","0.18064","-0.088525","-0.287109"
"X","1617451675.0599458","7","38","6","60","59","37","0.86615","0.091553","-0.490173","-0.033508","-0.007634","-0.007634","-0.015267","8.168262","1.702319","4.695435","-0.092114","-0.173462","-0.230884","0.154321","-0.126807","-0.226099"
"X","1617451675.0498102","7","40","4","62","60","38","0.866211","0.091553","-0.490051","-0.033447","-0.007634","0","-0.015267","8.201757","1.693945","4.766016","-0.057422","-0.18064","-0.161499","0.113647","-0.14834","-0.163892"
"X","1617451675.0397956","7","40","6","62","60","41","0.866272","0.091553","-0.48999","-0.033264","-0.007634","-0.007634","-0.015267","8.212524","1.690356","4.852149","-0.046655","-0.183032","-0.077759","0.047852","-0.162695","-0.112451"
"X","1617451675.0298178","7","39","4","62","60","38","0.866272","0.091614","-0.489929","-0.033142","-0.007634","-0.007634","-0.015267","8.198169","1.67002","4.926318","-0.059814","-0.203369","-0.003589","-0.020337","-0.19021","-0.090918"
"X","1617451675.0199623","7","41","3","63","60","40","0.866394","0.091614","-0.489807","-0.03302","-0.007634","-0.015267","-0.007634","8.169458","1.655664","4.972974","-0.088525","-0.216528","0.038281","-0.070581","-0.203369","-0.095703"
"X","1617451675.0097687","7","39","8","59","57","40","0.866455","0.091675","-0.489624","-0.032959","-0.007634","-0.022901","-0.007634","8.127588","1.652075","4.984937","-0.128003","-0.220117","0.047852","-0.099292","-0.202173","-0.12561"
"X","1617451674.9997842","7","42","4","60","61","40","0.866577","0.091797","-0.489441","-0.032898","-0.015267","-0.015267","-0.007634","8.103662","1.673608","4.976562","-0.149536","-0.200977","0.035889","-0.100488","-0.179443","-0.145947"
"X","1617451674.9898455","7","38","6","59","59","40","0.866577","0.092041","-0.489319","-0.032837","-0.015267","-0.007634","0","8.114429","1.71189","4.959815","-0.136377","-0.166284","0.019141","-0.081348","-0.144751","-0.136377"
"X","1617451674.9798324","7","41","7","61","60","41","0.866577","0.092346","-0.489319","-0.032776","-0.022901","0","0","8.144336","1.747778","4.933496","-0.10647","-0.133984","-0.005981","-0.045459","-0.114844","-0.117236"
"X","1617451674.9699144","7","40","5","62","61","39","0.866455","0.092651","-0.489502","-0.032715","-0.022901","0.007634","0","8.187403","1.780078","4.905982","-0.065796","-0.10647","-0.028711","-0.004785","-0.090918","-0.089722"
"X","1617451674.9598758","7","40","7","60","62","37","0.866272","0.092957","-0.489746","-0.032654","-0.022901","0.015267","0","8.235254","1.820752","4.877271","-0.020337","-0.070581","-0.05144","0.034692","-0.058618","-0.056226"
"X","1617451674.9498754","7","38","6","61","58","42","0.866089","0.093323","-0.490051","-0.032654","-0.022901","0.015267","0.007634","8.265162","1.860229","4.843774","0.005981","-0.037085","-0.077759","0.070581","-0.026318","-0.040674"
"X","1617451674.9399304","7","42","8","62","59","38","0.865906","0.093689","-0.490295","-0.032715","-0.022901","0.015267","0.007634","8.274732","1.891333","4.805493","0.013159","-0.011963","-0.110059","0.100488","0","-0.045459"
"X","1617451674.9296944","7","40","5","62","63","38","0.865723","0.093994","-0.490417","-0.032776","-0.022901","0","0.007634","8.253199","1.930811","4.771997","-0.007178","0.020337","-0.13877","0.113647","0.038281","-0.070581"
"X","1617451674.9198165","7","40","10","59","59","37","0.865723","0.094299","-0.490479","-0.032837","-0.022901","-0.007634","0.007634","8.232862","1.976269","4.75166","-0.028711","0.059814","-0.15791","0.117236","0.082544","-0.090918"
"X","1617451674.9098542","7","40","5","60","61","40","0.865723","0.094604","-0.490356","-0.032898","-0.015267","-0.007634","0.007634","8.207739","2.01814","4.744483","-0.05144","0.095703","-0.166284","0.111255","0.123218","-0.107666"
"X","1617451674.8998623","7","39","9","60","60","37","0.865784","0.094849","-0.490173","-0.032898","-0.015267","-0.015267","0.007634","8.19458","2.046851","4.746875","-0.061011","0.120825","-0.166284","0.105273","0.14834","-0.110059"
"X","1617451674.8898537","7","39","4","61","63","39","0.865906","0.095032","-0.489929","-0.032959","-0.015267","-0.015267","0","8.179029","2.063599","4.771997","-0.07417","0.133984","-0.144751","0.080151","0.161499","-0.107666"
"X","1617451674.8799047","7","38","7","62","60","39","0.866028","0.095215","-0.489685","-0.032898","-0.022901","-0.015267","0","8.157495","2.088721","4.818652","-0.092114","0.156714","-0.102881","0.033496","0.18064","-0.098096"
"X","1617451674.8699565","7","38","5","57","59","39","0.86615","0.095398","-0.489441","-0.032715","-0.022901","-0.015267","-0.007634","8.134766","2.122217","4.888037","-0.112451","0.187817","-0.037085","-0.033496","0.205762","-0.075366"
"X","1617451674.859748","7","41","7","62","59","37","0.866272","0.095581","-0.489258","-0.03241","-0.030534","-0.015267","-0.015267","8.115625","2.142554","4.966992","-0.130396","0.208154","0.037085","-0.10647","0.217725","-0.049048"
"X","1617451674.850138","7","38","7","60","60","40","0.866333","0.095703","-0.489136","-0.031982","-0.022901","-0.015267","-0.015267","8.080933","2.125806","5.019629","-0.163892","0.193799","0.088525","-0.16748","0.202173","-0.055029"
"X","1617451674.840078","7","40","5","61","63","39","0.866394","0.095703","-0.489014","-0.031494","-0.015267","-0.015267","-0.015267","8.074951","2.068384","5.028003","-0.169873","0.141162","0.094507","-0.173462","0.149536","-0.066992"
"X","1617451674.8298364","7","40","7","61","61","40","0.866455","0.095581","-0.489014","-0.031189","-0.007634","-0.015267","-0.015267","8.103662","1.998999","5.019629","-0.142358","0.076563","0.084937","-0.14834","0.08374","-0.061011"
"X","1617451674.8198872","7","41","-15","61","62","40","0.866455","0.095459","-0.489014","-0.030945","0","-0.015267","-0.015267","8.131177","1.923633","4.98374","-0.114844","0.004785","0.049048","-0.101685","0.014355","-0.070581"
"X","1617451674.8098826","7","41","7","59","27","33","0.866516","0.095337","-0.489014","-0.030823","0","-0.007634","-0.015267","8.155103","1.861426","4.94187","-0.092114","-0.052637","0.005981","-0.050244","-0.038281","-0.08374"
"X","1617451674.8001077","7","39","5","62","60","42","0.866516","0.095276","-0.489014","-0.030701","-0.007634","-0.007634","-0.015267","8.177832","1.850659","4.911963","-0.069385","-0.061011","-0.022729","-0.013159","-0.045459","-0.081348"
"X","1617451674.790222","7","44","5","61","61","39","0.866516","0.095337","-0.488953","-0.030518","-0.015267","-0.007634","-0.015267","8.192187","1.876978","4.895215","-0.053833","-0.033496","-0.039478","0.005981","-0.019141","-0.070581"
"X","1617451674.7800803","7","39","5","62","59","40","0.866516","0.095459","-0.489014","-0.030273","-0.015267","0","-0.015267","8.205347","1.914062","4.894019","-0.043066","0.002393","-0.039478","0.010767","0.013159","-0.055029"
"X","1617451674.770043","7","39","5","62","60","36","0.866455","0.09552","-0.489075","-0.03009","-0.007634","0","-0.015267","8.205347","1.937988","4.9","-0.043066","0.026318","-0.0323","0.003589","0.035889","-0.046655"
"X","1617451674.7598147","7","52","7","61","59","39","0.866455","0.09552","-0.489136","-0.029968","-0.007634","0","-0.007634","8.189795","1.942773","4.913159","-0.059814","0.0323","-0.017944","-0.016748","0.04187","-0.052637"
"X","1617451674.7498753","7","40","6","60","62","37","0.866394","0.095398","-0.489197","-0.029907","0","0","-0.007634","8.169458","1.941577","4.950244","-0.081348","0.034692","0.019141","-0.059814","0.043066","-0.05144"
"X","1617451674.7398987","7","40","5","60","61","37","0.866455","0.095337","-0.489197","-0.029907","0","-0.015267","0","8.132373","1.939185","4.987329","-0.118433","0.0323","0.055029","-0.108862","0.040674","-0.0646"
