"Alphabet","timestamp","user_id","flex_1","flex_2","flex_3","flex_4","flex_5","Qw","Qx","Qy","Qz","GYRx","GYRy","GYRz","ACCx","ACCy","ACCz","ACCx_body","ACCy_body","ACCz_body","ACCx_world","ACCy_world","ACCz_world"
"Y","1617451762.2402258","7","-32","39","52","36","-15","0.829956","0.038391","-0.55481","0.043152","-0.007634","-0.015267","-0.022901","8.659937","0.014355","3.818555","-0.397168","-0.139966","0.080151","-0.208154","-0.159106","-0.33855"
"Y","1617451762.2300606","7","-31","38","53","36","-13","0.830017","0.038452","-0.554749","0.043335","-0.022901","-0.015267","-0.022901","8.636011","0.088525","3.834106","-0.421094","-0.065796","0.094507","-0.239258","-0.087329","-0.354102"
"Y","1617451762.2199924","7","-35","39","55","36","-17","0.830017","0.038574","-0.554688","0.043701","-0.030534","-0.015267","-0.022901","8.619263","0.174658","3.824536","-0.436646","0.021533","0.08374","-0.245239","0","-0.37085"
"Y","1617451762.2100446","7","-31","40","54","39","-13","0.830017","0.038757","-0.554626","0.044128","-0.022901","-0.022901","-0.022901","8.58457","0.228491","3.765918","-0.471338","0.076563","0.023926","-0.209351","0.058618","-0.424683"
"Y","1617451762.2001505","7","-35","40","53","36","-15","0.830078","0.038696","-0.554504","0.044556","-0.007634","-0.022901","-0.015267","8.582178","0.197388","3.663037","-0.472534","0.05144","-0.080151","-0.112451","0.045459","-0.465356"
"Y","1617451762.1900504","7","-33","42","57","37","-15","0.830078","0.038452","-0.554504","0.0448","0.007634","-0.007634","-0.015267","8.637207","0.114844","3.546997","-0.417505","-0.022729","-0.197388","0.023926","-0.013159","-0.460571"
"Y","1617451762.1800694","7","-35","40","53","38","-23","0.830017","0.038147","-0.554626","0.044861","0.015267","0.007634","-0.015267","8.737696","0.023926","3.44292","-0.318213","-0.108862","-0.299072","0.165088","-0.08374","-0.409131"
"Y","1617451762.1701753","7","-35","40","54","35","-13","0.829895","0.037903","-0.55481","0.0448","0.015267","0.015267","-0.007634","8.820239","-0.021533","3.362769","-0.236865","-0.150732","-0.375635","0.271558","-0.114844","-0.363672"
"Y","1617451762.1600802","7","-32","41","56","39","-16","0.829712","0.03772","-0.555115","0.044678","0.007634","0.022901","-0.007634","8.890821","-0.049048","3.322095","-0.168677","-0.175854","-0.409131","0.331372","-0.133984","-0.313428"
"Y","1617451762.150206","7","-36","39","51","35","-24","0.829529","0.037598","-0.555359","0.044617","0","0.022901","-0.007634","8.948242","-0.058618","3.323291","-0.113647","-0.184229","-0.403149","0.34812","-0.141162","-0.259595"
"Y","1617451762.140296","7","-32","41","54","37","-24","0.829407","0.037659","-0.555542","0.044617","-0.007634","0.015267","-0.007634","8.961401","-0.050244","3.362769","-0.101685","-0.175854","-0.358887","0.311035","-0.137573","-0.23208"
"Y","1617451762.1301265","7","-35","39","54","36","-16","0.829346","0.037842","-0.555603","0.044678","-0.022901","0.007634","-0.007634","8.942261","-0.017944","3.417798","-0.122021","-0.145947","-0.302661","0.247632","-0.113647","-0.229687"
"Y","1617451762.1203215","7","-33","40","54","38","-13","0.829407","0.038086","-0.555542","0.044861","-0.022901","-0.015267","-0.007634","8.887232","0.023926","3.489575","-0.177051","-0.10647","-0.23208","0.15791","-0.084937","-0.252417"
"Y","1617451762.110208","7","-35","40","50","38","-15","0.82959","0.038391","-0.555237","0.045105","-0.022901","-0.030534","-0.007634","8.805883","0.056226","3.54939","-0.256006","-0.076563","-0.178247","0.075366","-0.063403","-0.305054"
"Y","1617451762.1001444","7","-36","40","54","39","-15","0.829895","0.038635","-0.554749","0.045349","-0.022901","-0.038168","-0.007634","8.730517","0.081348","3.597241","-0.326587","-0.053833","-0.141162","0.010767","-0.047852","-0.355298"
"Y","1617451762.0901673","7","-33","39","55","36","-23","0.8302","0.039001","-0.554199","0.045471","-0.022901","-0.038168","-0.007634","8.70061","0.137573","3.653467","-0.351709","-0.002393","-0.095703","-0.045459","-0.002393","-0.361279"
"Y","1617451762.0803602","7","-35","38","52","36","-23","0.830505","0.039246","-0.553711","0.045654","-0.015267","-0.030534","0","8.695826","0.204565","3.71687","-0.351709","0.061011","-0.043066","-0.101685","0.053833","-0.339746"
"Y","1617451762.0701315","7","-36","39","53","38","-23","0.83075","0.039307","-0.553345","0.045715","0","-0.022901","0","8.718554","0.221313","3.767114","-0.326587","0.076563","0","-0.133984","0.0646","-0.300269"
"Y","1617451762.0601933","7","-34","39","54","34","-16","0.830933","0.039246","-0.553101","0.045654","0.015267","-0.015267","0.007634","8.761621","0.189014","3.803003","-0.281128","0.044263","0.028711","-0.13877","0.031104","-0.247632"
"Y","1617451762.0501163","7","-32","40","53","34","-13","0.830994","0.039062","-0.55304","0.04541","0.022901","-0.007634","0.007634","8.80708","0.144751","3.826929","-0.234473","0","0.05144","-0.136377","-0.013159","-0.196191"
"Y","1617451762.0400755","7","-33","39","53","35","-15","0.830994","0.038757","-0.55304","0.045044","0.022901","-0.007634","0.007634","8.856128","0.120825","3.850854","-0.185425","-0.021533","0.075366","-0.137573","-0.035889","-0.142358"
"Y","1617451762.0301378","7","-32","40","54","40","-15","0.830994","0.038574","-0.553101","0.044678","0.015267","-0.007634","0.007634","8.886035","0.102881","3.85564","-0.155518","-0.040674","0.080151","-0.128003","-0.053833","-0.112451"
"Y","1617451762.0202513","7","-32","41","53","34","-23","0.830994","0.038513","-0.553101","0.044373","0","0","0.007634","8.895605","0.128003","3.869995","-0.145947","-0.017944","0.095703","-0.141162","-0.0323","-0.096899"
"Y","1617451762.0103498","7","-33","38","53","36","-25","0.830994","0.038635","-0.553162","0.04425","-0.015267","-0.007634","0","8.889624","0.171069","3.891528","-0.153125","0.021533","0.117236","-0.168677","0.002393","-0.095703"
"Y","1617451762.000167","7","-32","40","54","36","-17","0.830994","0.038757","-0.553162","0.044312","-0.015267","-0.007634","0","8.870483","0.19021","3.904687","-0.172266","0.038281","0.130396","-0.189014","0.016748","-0.107666"
"Y","1617451761.9902334","7","-32","42","56","35","-23","0.830994","0.03894","-0.553101","0.044434","-0.015267","-0.015267","-0.007634","8.834595","0.16748","3.881958","-0.206958","0.014355","0.107666","-0.179443","-0.003589","-0.14834"
"Y","1617451761.980123","7","-34","41","54","35","-16","0.830994","0.039124","-0.55304","0.044556","-0.022901","-0.015267","-0.007634","8.815454","0.169873","3.860425","-0.226099","0.015552","0.084937","-0.166284","-0.001196","-0.174658"
"Y","1617451761.970501","7","-33","39","55","34","-16","0.830994","0.039429","-0.55304","0.044739","-0.030534","-0.007634","-0.007634","8.804688","0.230884","3.84248","-0.236865","0.072974","0.066992","-0.160303","0.057422","-0.191406"
"Y","1617451761.9600928","7","-35","39","53","36","-16","0.830994","0.039734","-0.552979","0.045044","-0.030534","-0.007634","-0.007634","8.77478","0.305054","3.814966","-0.266772","0.145947","0.039478","-0.155518","0.131592","-0.228491"
"Y","1617451761.950239","7","-33","40","53","38","-17","0.830994","0.039917","-0.55304","0.045349","-0.015267","0","-0.007634","8.769995","0.328979","3.770703","-0.272754","0.169873","-0.003589","-0.120825","0.160303","-0.250024"
"Y","1617451761.9402132","7","-33","40","57","38","-23","0.830872","0.039917","-0.553162","0.045532","0","0.007634","-0.007634","8.795117","0.270361","3.714478","-0.247632","0.113647","-0.056226","-0.056226","0.111255","-0.247632"
"Y","1617451761.9302747","7","-33","38","56","39","-23","0.83075","0.039612","-0.553406","0.045593","0.015267","0.015267","-0.007634","8.833399","0.179443","3.666626","-0.211743","0.028711","-0.099292","0.005981","0.0323","-0.23208"
"Y","1617451761.9203184","7","-32","41","52","32","-16","0.830566","0.039246","-0.55365","0.045471","0.022901","0.015267","-0.007634","8.858521","0.099292","3.636719","-0.189014","-0.045459","-0.124414","0.046655","-0.035889","-0.22251"
"Y","1617451761.910378","7","-35","40","53","36","-17","0.830505","0.038879","-0.553833","0.045288","0.022901","0.007634","-0.007634","8.844165","0.040674","3.628345","-0.204565","-0.100488","-0.130396","0.052637","-0.090918","-0.239258"
"Y","1617451761.9004304","7","-35","41","54","35","-24","0.830444","0.038574","-0.553955","0.045166","0.007634","0","-0.015267","8.811865","0.017944","3.639111","-0.238062","-0.118433","-0.117236","0.029907","-0.111255","-0.265576"
"Y","1617451761.8902848","7","-35","37","54","35","-13","0.830444","0.038391","-0.553894","0.045166","0","-0.015267","-0.022901","8.758032","0.026318","3.66543","-0.290698","-0.107666","-0.090918","-0.014355","-0.105273","-0.303857"
"Y","1617451761.8809366","7","-33","39","52","39","-17","0.830566","0.038269","-0.553711","0.045349","-0.007634","-0.022901","-0.022901","8.686255","0.05144","3.700122","-0.361279","-0.078955","-0.061011","-0.072974","-0.082544","-0.35769"
"Y","1617451761.8706148","7","-36","39","53","39","-16","0.83075","0.038147","-0.553406","0.045593","-0.007634","-0.030534","-0.022901","8.609693","0.070581","3.730029","-0.434253","-0.055029","-0.037085","-0.12561","-0.0646","-0.415112"
"Y","1617451761.8603554","7","-35","44","54","38","-23","0.830994","0.037964","-0.55304","0.045837","0","-0.030534","-0.022901","8.549878","0.063403","3.743188","-0.491675","-0.057422","-0.0323","-0.151929","-0.069385","-0.466553"
"Y","1617451761.8511405","7","-32","41","55","36","-12","0.831177","0.037659","-0.552734","0.046021","0.007634","-0.022901","-0.015267","8.53313","0.038281","3.764722","-0.504834","-0.076563","-0.017944","-0.168677","-0.090918","-0.472534"
"Y","1617451761.84032","7","-32","42","57","35","-23","0.83136","0.037354","-0.552551","0.046021","0.007634","-0.022901","-0.015267","8.543897","0.014355","3.786255","-0.492871","-0.095703","-0.001196","-0.177051","-0.111255","-0.455786"
"Y","1617451761.8303196","7","-36","39","56","35","-23","0.831482","0.037231","-0.552429","0.046021","0","-0.015267","-0.007634","8.559448","0.043066","3.808984","-0.476123","-0.0646","0.016748","-0.19021","-0.082544","-0.433057"
"Y","1617451761.8201714","7","-33","40","56","39","-15","0.831482","0.037231","-0.552307","0.046021","-0.015267","-0.015267","-0.007634","8.58457","0.105273","3.824536","-0.449805","-0.002393","0.031104","-0.200977","-0.021533","-0.401953"
"Y","1617451761.8103924","7","-31","39","56","32","-16","0.831482","0.037354","-0.552368","0.046204","-0.015267","0","-0.007634","8.640796","0.145947","3.816162","-0.394775","0.037085","0.022729","-0.177051","0.019141","-0.354102"
"Y","1617451761.8003669","7","-32","41","54","37","-13","0.83136","0.037354","-0.55249","0.046326","-0.007634","0","-0.007634","8.704199","0.130396","3.774292","-0.331372","0.022729","-0.014355","-0.11604","0.011963","-0.309839"
"Y","1617451761.7902944","7","-35","39","57","34","-23","0.831238","0.037231","-0.552734","0.046387","0.007634","0.007634","-0.007634","8.76521","0.058618","3.695337","-0.272754","-0.044263","-0.088525","-0.017944","-0.043066","-0.285913"
"Y","1617451761.780347","7","-31","40","58","37","-16","0.831116","0.036987","-0.552917","0.046265","0.015267","0","0","8.795117","-0.023926","3.609204","-0.245239","-0.124414","-0.171069","0.076563","-0.112451","-0.293091"
"Y","1617451761.7702007","7","-31","42","56","36","-17","0.831055","0.036865","-0.55304","0.046021","0.007634","0.007634","0","8.808276","-0.044263","3.54939","-0.23208","-0.144751","-0.228491","0.136377","-0.12561","-0.302661"
"Y","1617451761.760352","7","-35","39","52","37","-16","0.830994","0.036865","-0.553101","0.045776","-0.007634","0.007634","0","8.826221","0.004785","3.525464","-0.215332","-0.099292","-0.250024","0.15791","-0.077759","-0.295483"
"Y","1617451761.7502732","7","-36","39","53","36","-15","0.830933","0.03717","-0.553223","0.045715","-0.022901","0.007634","0","8.838183","0.089722","3.524268","-0.204565","-0.019141","-0.248828","0.150732","0.001196","-0.284717"
"Y","1617451761.7402794","7","-35","41","56","38","-23","0.830872","0.037476","-0.553345","0.045776","-0.022901","0.015267","0","8.851343","0.155518","3.538623","-0.192603","0.040674","-0.23208","0.132788","0.059814","-0.265576"
"Y","1617451761.7302766","7","-32","40","54","35","-16","0.830688","0.03772","-0.553528","0.045837","-0.015267","0.022901","0.007634","8.894409","0.15791","3.55896","-0.150732","0.040674","-0.206958","0.126807","0.058618","-0.217725"
"Y","1617451761.7204523","7","-31","41","54","41","-17","0.830505","0.037903","-0.553833","0.045776","-0.007634","0.022901","0.007634","8.943457","0.123218","3.574512","-0.105273","0.002393","-0.185425","0.129199","0.019141","-0.16748"
"Y","1617451761.7102995","7","-33","39","54","28","-23","0.830383","0.038025","-0.554016","0.045593","-0.007634","0.007634","0.007634","8.941065","0.113647","3.590064","-0.108862","-0.00957","-0.165088","0.110059","0.004785","-0.163892"
"Y","1617451761.7010689","7","-35","40","54","91","-23","0.830383","0.038208","-0.554016","0.045471","-0.015267","-0.007634","0.007634","8.88125","0.162695","3.608008","-0.168677","0.033496","-0.147144","0.065796","0.044263","-0.210547"
"Y","1617451761.6909263","7","-33","40","56","35","-17","0.830444","0.038513","-0.553894","0.045471","-0.022901","-0.015267","0","8.842969","0.239258","3.631934","-0.205762","0.105273","-0.12561","0.023926","0.111255","-0.235669"
"Y","1617451761.6811223","7","-35","38","54","34","-23","0.830566","0.038818","-0.553711","0.045593","-0.022901","-0.015267","0","8.81665","0.303857","3.653467","-0.230884","0.166284","-0.107666","-0.008374","0.169873","-0.251221"
"Y","1617451761.671127","7","-31","39","53","36","-23","0.830627","0.039001","-0.553528","0.045776","-0.015267","-0.015267","0","8.802295","0.31582","3.655859","-0.244043","0.177051","-0.107666","-0.015552","0.179443","-0.263184"
"Y","1617451761.6610496","7","-33","39","53","37","-23","0.830688","0.039062","-0.553406","0.045898","-0.007634","-0.015267","0","8.798706","0.277539","3.646289","-0.246436","0.13877","-0.119629","-0.001196","0.142358","-0.270361"
"Y","1617451761.6509163","7","-32","40","54","32","-15","0.83075","0.039062","-0.553345","0.045959","-0.007634","-0.007634","0","8.798706","0.242847","3.629541","-0.245239","0.104077","-0.13877","0.020337","0.111255","-0.277539"
"Y","1617451761.641052","7","-32","39","55","34","-17","0.830811","0.039185","-0.553284","0.046082","-0.015267","-0.007634","-0.007634","8.810669","0.267969","3.628345","-0.233276","0.129199","-0.141162","0.023926","0.136377","-0.266772"
"Y","1617451761.6309707","7","-34","39","57","39","-15","0.830811","0.039307","-0.553223","0.046265","-0.022901","0","-0.015267","8.801099","0.301465","3.641504","-0.242847","0.162695","-0.129199","0.004785","0.16748","-0.270361"
"Y","1617451761.620936","7","-32","41","56","37","-27","0.83075","0.039307","-0.553284","0.046631","-0.015267","0.007634","-0.015267","8.803492","0.278735","3.645093","-0.240454","0.143555","-0.124414","0.003589","0.14834","-0.266772"
"Y","1617451761.611086","7","-33","39","52","38","-17","0.830627","0.039124","-0.553467","0.046936","0","0.015267","-0.022901","8.836987","0.181836","3.629541","-0.209351","0.053833","-0.136377","0.037085","0.061011","-0.244043"
"Y","1617451761.6009858","7","-32","39","53","37","-23","0.830444","0.038818","-0.553711","0.047119","0.007634","0.015267","-0.022901","8.882446","0.069385","3.622363","-0.165088","-0.050244","-0.137573","0.068188","-0.039478","-0.205762"
"Y","1617451761.5910988","7","-35","37","50","34","-17","0.830322","0.038391","-0.553894","0.047241","0.015267","0","-0.015267","8.888428","-0.019141","3.606812","-0.160303","-0.130396","-0.149536","0.090918","-0.117236","-0.205762"
"Y","1617451761.5811906","7","-35","39","55","35","-19","0.830383","0.038086","-0.553894","0.047241","0.007634","-0.015267","-0.015267","8.847754","-0.07417","3.578101","-0.202173","-0.18064","-0.179443","0.108862","-0.165088","-0.257202"
"Y","1617451761.5710585","7","-36","39","52","35","-23","0.830505","0.037964","-0.553711","0.047241","-0.007634","-0.015267","-0.015267","8.821436","-0.063403","3.563745","-0.226099","-0.168677","-0.198584","0.114844","-0.151929","-0.285913"
"Y","1617451761.5610406","7","-32","39","52","36","-17","0.830627","0.038086","-0.553467","0.047363","-0.022901","-0.022901","-0.007634","8.787939","0.001196","3.588867","-0.257202","-0.104077","-0.178247","0.076563","-0.090918","-0.30625"
"Y","1617451761.5510244","7","-32","39","53","40","-23","0.830811","0.038391","-0.553162","0.047607","-0.038168","-0.022901","-0.007634","8.735303","0.089722","3.629541","-0.307446","-0.019141","-0.143555","0.015552","-0.013159","-0.33855"
"Y","1617451761.541179","7","-32","39","55","36","-15","0.830933","0.038757","-0.552917","0.047974","-0.030534","-0.015267","-0.007634","8.705396","0.14834","3.671411","-0.334961","0.035889","-0.10647","-0.034692","0.034692","-0.349316"
"Y","1617451761.5311613","7","-35","39","56","32","-16","0.831055","0.039001","-0.552734","0.04834","-0.022901","-0.007634","-0.015267","8.703003","0.137573","3.713281","-0.336157","0.025122","-0.068188","-0.069385","0.020337","-0.334961"
"Y","1617451761.5212922","7","-33","41","53","38","-15","0.831055","0.039001","-0.552673","0.048584","0","0","-0.015267","8.725733","0.065796","3.747974","-0.313428","-0.043066","-0.034692","-0.082544","-0.050244","-0.302661"
"Y","1617451761.5110738","7","-32","40","56","37","-16","0.830994","0.038696","-0.552795","0.048706","0.022901","0.007634","-0.015267","8.764013","-0.044263","3.777881","-0.276343","-0.145947","-0.002393","-0.084937","-0.154321","-0.257202"
"Y","1617451761.5011945","7","-33","40","55","36","-53","0.830872","0.038269","-0.55304","0.048584","0.030534","0.007634","-0.007634","8.798706","-0.159106","3.80061","-0.242847","-0.25481","0.022729","-0.082544","-0.26438","-0.217725"
"Y","1617451761.4910495","7","-32","39","54","34","-23","0.830811","0.037903","-0.553162","0.04834","0.015267","0","-0.007634","8.792725","-0.197388","3.837695","-0.250024","-0.289502","0.062207","-0.117236","-0.303857","-0.209351"
"Y","1617451761.4812062","7","-31","39","53","38","-16","0.830811","0.037781","-0.553162","0.048218","0","-0.015267","-0.007634","8.759229","-0.141162","3.880762","-0.283521","-0.233276","0.105273","-0.175854","-0.253613","-0.22251"
"Y","1617451761.4711328","7","-32","39","56","34","-16","0.830933","0.037903","-0.552979","0.048218","-0.015267","-0.030534","-0.007634","8.667114","-0.059814","3.904687","-0.374438","-0.154321","0.12561","-0.239258","-0.181836","-0.297876"
"Y","1617451761.4610944","7","-31","40","54","36","-23","0.831116","0.038269","-0.552673","0.04834","-0.030534","-0.030534","-0.007634","8.615674","0.038281","3.923828","-0.423486","-0.061011","0.13877","-0.281128","-0.092114","-0.337354"
"Y","1617451761.4512117","7","-33","42","54","38","-13","0.831238","0.038635","-0.552429","0.048584","-0.030534","-0.022901","-0.007634","8.6073","0.130396","3.935791","-0.429468","0.026318","0.145947","-0.301465","-0.007178","-0.33855"
"Y","1617451761.4410057","7","-32","38","56","40","-23","0.831299","0.038879","-0.552307","0.048828","-0.007634","-0.015267","0","8.622851","0.143555","3.92981","-0.41272","0.038281","0.137573","-0.289502","0.004785","-0.326587"
"Y","1617451761.4311826","7","-32","37","55","32","-17","0.831238","0.038818","-0.552368","0.048828","0.015267","0","0","8.682666","0.084937","3.901099","-0.352905","-0.017944","0.110059","-0.233276","-0.044263","-0.282324"
"Y","1617451761.4211962","7","-32","40","56","36","-24","0.831055","0.038574","-0.552673","0.048523","0.038168","0.015267","0.007634","8.738892","-0.007178","3.858032","-0.299072","-0.108862","0.07417","-0.168677","-0.128003","-0.247632"
"Y","1617451761.4109793","7","-35","41","53","36","-17","0.830872","0.038147","-0.55304","0.047974","0.038168","0.022901","0.007634","8.780762","-0.0646","3.830518","-0.260791","-0.165088","0.053833","-0.129199","-0.179443","-0.221313"
"Y","1617451761.4011028","7","-34","40","53","38","-23","0.830627","0.037842","-0.553467","0.047302","0.030534","0.022901","0.007634","8.813062","-0.046655","3.822144","-0.23208","-0.149536","0.053833","-0.119629","-0.162695","-0.194995"
"Y","1617451761.3911817","7","-32","39","54","36","-23","0.830444","0.03772","-0.553833","0.046814","0.007634","0.007634","0.007634","8.798706","0.029907","3.824536","-0.250024","-0.075366","0.063403","-0.143555","-0.090918","-0.206958"
"Y","1617451761.3810267","7","-35","39","52","37","-24","0.830322","0.037842","-0.554016","0.046509","-0.015267","0","0.007634","8.761621","0.171069","3.817358","-0.288306","0.059814","0.061011","-0.172266","0.04187","-0.24165"
"Y","1617451761.3711376","7","-32","42","54","39","-15","0.830322","0.038269","-0.554016","0.046448","-0.038168","-0.015267","0","8.712573","0.331372","3.805396","-0.337354","0.211743","0.049048","-0.198584","0.192603","-0.289502"
"Y","1617451761.3610995","7","-33","40","54","36","-16","0.830322","0.038696","-0.553955","0.046692","-0.038168","-0.015267","0","8.651563","0.455786","3.774292","-0.398364","0.332568","0.017944","-0.208154","0.313428","-0.356494"
"Y","1617451761.3509388","7","-35","41","53","37","-17","0.830322","0.03894","-0.553955","0.047058","-0.015267","0","0","8.64917","0.462964","3.713281","-0.401953","0.339746","-0.04187","-0.155518","0.327783","-0.382812"
"Y","1617451761.3410206","7","-33","40","56","36","-23","0.830139","0.038696","-0.554199","0.04718","0.022901","0.022901","0","8.750854","0.334961","3.63313","-0.301465","0.217725","-0.117236","-0.033496","0.218921","-0.320605"
"Y","1617451761.3312662","7","-36","41","56","35","-23","0.829834","0.038086","-0.554688","0.046997","0.045802","0.038168","0","8.865698","0.141162","3.551782","-0.19021","0.0323","-0.187817","0.095703","0.046655","-0.246436"
"Y","1617451761.3212104","7","-32","36","61","35","-16","0.829468","0.037354","-0.555298","0.046509","0.053435","0.038168","0","8.953028","-0.011963","3.49436","-0.107666","-0.112451","-0.233276","0.186621","-0.088525","-0.189014"
"Y","1617451761.3111756","7","-35","40","56","35","-11","0.829163","0.036682","-0.555847","0.045959","0.038168","0.038168","0","8.994898","-0.093311","3.476416","-0.070581","-0.187817","-0.240454","0.215332","-0.161499","-0.15791"
"Y","1617451761.3012705","7","-32","40","54","36","-15","0.828918","0.036377","-0.556274","0.045532","0.007634","0.022901","-0.007634","8.993701","-0.070581","3.491968","-0.075366","-0.165088","-0.215332","0.187817","-0.142358","-0.151929"
"Y","1617451761.2912188","7","-31","39","54","37","-23","0.828796","0.036438","-0.556458","0.04541","-0.022901","0","-0.015267","8.92312","0.052637","3.531445","-0.14834","-0.043066","-0.172266","0.10647","-0.028711","-0.202173"
"Y","1617451761.281057","7","-32","40","54","36","-23","0.828918","0.036743","-0.556274","0.045715","-0.038168","-0.022901","-0.015267","8.79751","0.200977","3.55896","-0.272754","0.101685","-0.14834","0.021533","0.107666","-0.307446"
"Y","1617451761.2710705","7","-31","40","54","38","-17","0.829102","0.036987","-0.555908","0.046265","-0.022901","-0.030534","-0.015267","8.685059","0.270361","3.55896","-0.381616","0.172266","-0.155518","-0.021533","0.174658","-0.410327"
"Y","1617451761.2612703","7","-33","41","54","38","-23","0.829285","0.036865","-0.555603","0.046692","0","-0.022901","-0.015267","8.669507","0.217725","3.536231","-0.394775","0.126807","-0.185425","0.004785","0.131592","-0.434253"
"Y","1617451761.2512288","7","-31","39","54","36","-23","0.829407","0.036499","-0.555481","0.046753","0.022901","-0.007634","-0.007634","8.740088","0.098096","3.518286","-0.322998","0.013159","-0.206958","0.065796","0.023926","-0.376831"
"Y","1617451761.2413442","7","-32","39","56","35","-11","0.829407","0.036011","-0.555542","0.046509","0.038168","0.007634","0","8.819043","-0.003589","3.502734","-0.244043","-0.082544","-0.22251","0.120825","-0.065796","-0.309839"
"Y","1617451761.2311544","7","-32","42","57","30","-15","0.829346","0.035522","-0.555664","0.046143","0.030534","0.007634","0","8.864502","-0.063403","3.525464","-0.19978","-0.137573","-0.197388","0.120825","-0.122021","-0.260791"
"Y","1617451761.221227","7","-33","38","57","38","-13","0.829346","0.035156","-0.555786","0.045715","0.015267","0.007634","0","8.884839","-0.078955","3.55896","-0.18064","-0.151929","-0.162695","0.098096","-0.13877","-0.229687"
"Y","1617451761.21127","7","-31","39","56","37","-16","0.829285","0.035095","-0.555786","0.045471","-0.007634","0","-0.007634","8.883642","-0.033496","3.606812","-0.18064","-0.107666","-0.113647","0.047852","-0.100488","-0.210547"
"Y","1617451761.2012005","7","-35","40","53","35","-17","0.829346","0.035278","-0.555725","0.045532","-0.030534","-0.015267","-0.015267","8.836987","0.059814","3.671411","-0.227295","-0.016748","-0.050244","-0.037085","-0.019141","-0.228491"
"Y","1617451761.1913157","7","-35","39","54","38","-23","0.829468","0.035583","-0.555481","0.045959","-0.038168","-0.030534","-0.015267","8.756836","0.132788","3.694141","-0.305054","0.053833","-0.0323","-0.090918","0.045459","-0.293091"
"Y","1617451761.1811018","7","-35","65","61","36","-17","0.829651","0.035767","-0.555176","0.046448","-0.022901","-0.038168","-0.015267","8.689844","0.133984","3.678589","-0.369653","0.057422","-0.053833","-0.096899","0.049048","-0.361279"
"Y","1617451761.1712754","7","-35","40","54","35","-16","0.829834","0.035645","-0.554871","0.046814","0.007634","-0.022901","-0.015267","8.69104","0.026318","3.63313","-0.366064","-0.044263","-0.10647","-0.035889","-0.045459","-0.379224"
"Y","1617451761.161196","7","-35","40","52","35","-12","0.829895","0.035278","-0.55481","0.046875","0.030534","0","-0.007634","8.779566","-0.12561","3.576904","-0.276343","-0.189014","-0.165088","0.068188","-0.179443","-0.319409"
"Y","1617451761.151205","7","-34","40","54","36","-23","0.829834","0.034851","-0.554932","0.04657","0.030534","0.007634","0","8.874072","-0.233276","3.561352","-0.183032","-0.293091","-0.178247","0.128003","-0.277539","-0.238062"
"Y","1617451761.1411848","7","-35","38","54","37","-23","0.829773","0.034668","-0.555054","0.046143","0.007634","0.007634","0.007634","8.895605","-0.236865","3.570923","-0.162695","-0.297876","-0.166284","0.124414","-0.283521","-0.215332"
"Y","1617451761.131204","7","-33","40","53","36","-15","0.829773","0.034851","-0.555115","0.045776","-0.015267","0.007634","0.007634","8.886035","-0.149536","3.606812","-0.172266","-0.217725","-0.129199","0.077759","-0.208154","-0.209351"
"Y","1617451761.121276","7","-29","38","54","28","-23","0.829712","0.0354","-0.555176","0.045776","-0.045802","0.007634","0","8.876465","0.00957","3.673804","-0.183032","-0.066992","-0.059814","-0.005981","-0.065796","-0.191406"
"Y","1617451761.1112263","7","-35","41","54","38","-23","0.829651","0.036194","-0.555237","0.046021","-0.061069","0","0","8.853735","0.163892","3.737207","-0.206958","0.075366","0.004785","-0.090918","0.065796","-0.187817"
"Y","1617451761.1011028","7","-35","39","53","36","-24","0.82959","0.036926","-0.555176","0.046448","-0.045802","-0.015267","0","8.785547","0.252417","3.75874","-0.275146","0.156714","0.026318","-0.145947","0.142358","-0.242847"
"Y","1617451761.091292","7","-39","41","57","38","-15","0.829712","0.037415","-0.554932","0.046814","-0.022901","-0.022901","0","8.705396","0.24165","3.725244","-0.352905","0.142358","-0.010767","-0.139966","0.129199","-0.327783"
"Y","1617451761.0811784","7","-32","40","54","38","-16","0.829773","0.037659","-0.55481","0.046936","-0.015267","-0.007634","0","8.698217","0.214136","3.696533","-0.358887","0.111255","-0.04187","-0.111255","0.101685","-0.345728"
"Y","1617451761.071463","7","-32","40","56","29","27","0.829773","0.037781","-0.55481","0.046936","-0.007634","0","0","8.72334","0.234473","3.667822","-0.333765","0.130396","-0.070581","-0.076563","0.124414","-0.333765"
"Y","1617451761.0611773","7","-32","39","52","35","-11","0.829651","0.03772","-0.554993","0.046875","0.007634","0.015267","0","8.750854","0.238062","3.637915","-0.307446","0.133984","-0.095703","-0.044263","0.132788","-0.318213"
"Y","1617451761.0512235","7","-34","38","51","40","-16","0.829468","0.037476","-0.555298","0.046692","0.022901","0.022901","0.007634","8.793921","0.198584","3.597241","-0.267969","0.096899","-0.130396","0.005981","0.100488","-0.295483"
"Y","1617451761.0413325","7","-31","39","53","36","-25","0.829224","0.03717","-0.555725","0.046265","0.038168","0.030534","0.015267","8.847754","0.126807","3.557764","-0.217725","0.026318","-0.161499","0.062207","0.035889","-0.261987"
"Y","1617451761.0312154","7","-31","41","52","34","-17","0.829041","0.036743","-0.556152","0.045715","0.038168","0.022901","0.007634","8.884839","0.07417","3.529053","-0.184229","-0.023926","-0.181836","0.099292","-0.00957","-0.239258"
"Y","1617451761.0213487","7","-35","38","54","40","-17","0.828857","0.036438","-0.556396","0.045166","0.022901","0.007634","0.007634","8.869287","0.084937","3.509912","-0.200977","-0.014355","-0.194995","0.104077","0","-0.259595"
"Y","1617451761.0112677","7","-33","39","53","38","-16","0.828857","0.036377","-0.556458","0.0448","-0.007634","-0.007634","0","8.814258","0.165088","3.503931","-0.257202","0.062207","-0.19978","0.078955","0.07417","-0.312231"
"Y","1617451761.0019376","7","-33","39","54","36","-13","0.828979","0.03656","-0.556274","0.0448","-0.030534","-0.015267","-0.007634","8.767603","0.293091","3.52666","-0.302661","0.186621","-0.181836","0.031104","0.194995","-0.346924"
"Y","1617451760.9920266","7","-35","40","53","38","-16","0.829102","0.036865","-0.555969","0.045166","-0.030534","-0.022901","-0.015267","8.735303","0.388794","3.564941","-0.331372","0.281128","-0.14834","-0.020337","0.283521","-0.358887"
"Y","1617451760.9813116","7","-32","38","57","35","-16","0.829285","0.036926","-0.555725","0.045654","-0.015267","-0.022901","-0.015267","8.705396","0.364868","3.578101","-0.360083","0.260791","-0.141162","-0.035889","0.261987","-0.382812"
"Y","1617451760.9713182","7","-31","42","54","104","-16","0.829407","0.03656","-0.555481","0.046021","0.015267","-0.022901","-0.015267","8.694629","0.238062","3.538623","-0.367261","0.144751","-0.186621","0.014355","0.150732","-0.409131"
"Y","1617451760.9619358","7","-35","39","52","36","-16","0.82959","0.036011","-0.555298","0.045959","0.030534","-0.015267","-0.007634","8.731714","0.096899","3.513501","-0.328979","0.010767","-0.216528","0.071777","0.022729","-0.386401"
"Y","1617451760.9519372","7","-33","40","54","16","-23","0.829651","0.035461","-0.555237","0.045715","0.038168","-0.007634","-0.007634","8.780762","0.019141","3.52666","-0.278735","-0.059814","-0.205762","0.089722","-0.046655","-0.336157"
"Y","1617451760.9411557","7","-35","40","56","39","-15","0.829773","0.034912","-0.555115","0.04541","0.030534","-0.007634","0","8.793921","-0.014355","3.545801","-0.26438","-0.087329","-0.189014","0.082544","-0.075366","-0.317017"
"Y","1617451760.9320617","7","-35","39","50","37","-24","0.829834","0.034485","-0.555115","0.045044","0.022901","0","0","8.813062","-0.034692","3.596045","-0.245239","-0.105273","-0.139966","0.046655","-0.098096","-0.279932"
"Y","1617451760.9220395","7","-34","40","54","38","-16","0.829895","0.034241","-0.555054","0.044739","0.007634","-0.007634","0.007634","8.835791","-0.005981","3.647485","-0.22251","-0.075366","-0.090918","0.007178","-0.072974","-0.240454"
"Y","1617451760.912041","7","-35","41","52","38","-15","0.830017","0.034363","-0.554871","0.044556","-0.015267","-0.022901","0","8.813062","0.075366","3.700122","-0.242847","0","-0.04187","-0.053833","-0.003589","-0.239258"
"Y","1617451760.9019132","7","-35","40","56","38","-16","0.8302","0.034668","-0.554626","0.044556","-0.030534","-0.022901","0","8.773584","0.177051","3.752759","-0.281128","0.096899","0.004785","-0.122021","0.084937","-0.256006"
"Y","1617451760.8919656","7","-35","40","55","35","-16","0.830322","0.034973","-0.554321","0.0448","-0.022901","-0.022901","-0.007634","8.75564","0.22251","3.789844","-0.295483","0.139966","0.035889","-0.160303","0.124414","-0.257202"
"Y","1617451760.8820071","7","-35","40","52","36","-23","0.830444","0.035034","-0.554077","0.045105","-0.007634","-0.022901","-0.007634","8.768799","0.173462","3.803003","-0.279932","0.092114","0.044263","-0.15791","0.076563","-0.240454"
"Y","1617451760.8719864","7","-36","41","53","36","-16","0.830566","0.034851","-0.553955","0.045227","0.007634","-0.022901","-0.007634","8.793921","0.058618","3.782666","-0.25481","-0.016748","0.020337","-0.113647","-0.027515","-0.227295"
"Y","1617451760.8621843","7","-34","40","54","36","-16","0.830688","0.034546","-0.553833","0.045166","0.015267","-0.015267","-0.007634","8.81665","-0.038281","3.762329","-0.230884","-0.110059","-0.002393","-0.072974","-0.117236","-0.214136"
"Y","1617451760.8518922","7","-33","40","54","34","-16","0.83075","0.034302","-0.553772","0.044983","0.015267","-0.007634","-0.007634","8.841772","-0.08374","3.751563","-0.204565","-0.153125","-0.014355","-0.046655","-0.15791","-0.194995"
"Y","1617451760.8421617","7","-33","39","54","36","-15","0.83075","0.034058","-0.553711","0.0448","0.007634","-0.007634","-0.007634","8.841772","-0.089722","3.740796","-0.203369","-0.15791","-0.025122","-0.035889","-0.161499","-0.197388"
"Y","1617451760.8320007","7","-35","37","52","38","-23","0.83075","0.033936","-0.553772","0.044739","0","0","-0.007634","8.840576","-0.056226","3.7396","-0.205762","-0.122021","-0.026318","-0.040674","-0.12561","-0.19978"
"Y","1617451760.8220785","7","-35","37","54","39","-23","0.830688","0.033936","-0.553833","0.044739","-0.007634","0","-0.007634","8.865698","-0.019141","3.756348","-0.18064","-0.084937","-0.008374","-0.05144","-0.089722","-0.169873"
"Y","1617451760.8121192","7","-32","39","55","37","-16","0.830627","0.033997","-0.553955","0.044739","-0.007634","0","-0.007634","8.84895","0.011963","3.752759","-0.198584","-0.055029","-0.00957","-0.059814","-0.059814","-0.186621"
"Y","1617451760.802194","7","-36","40","53","34","-16","0.830627","0.033997","-0.553955","0.044678","0","0","0","8.822632","0.016748","3.733618","-0.224902","-0.05144","-0.028711","-0.053833","-0.056226","-0.218921"
"Y","1617451760.7920623","7","-35","39","54","38","-16","0.830566","0.033936","-0.554077","0.044678","0","0.007634","0","8.822632","0.016748","3.722852","-0.226099","-0.050244","-0.037085","-0.046655","-0.053833","-0.22251"
"Y","1617451760.782059","7","-32","39","56","36","-23","0.830505","0.033875","-0.554199","0.044556","0","0.007634","0","8.838183","0.021533","3.712085","-0.211743","-0.045459","-0.045459","-0.033496","-0.047852","-0.212939"
"Y","1617451760.7719138","7","-35","39","47","32","-15","0.830383","0.033875","-0.554321","0.044434","0","0","0","8.832202","0.052637","3.7073","-0.218921","-0.015552","-0.046655","-0.038281","-0.017944","-0.220117"
"Y","1617451760.7618914","7","-33","37","53","37","-15","0.830383","0.033875","-0.554382","0.044312","0","0","0","8.785547","0.088525","3.702515","-0.265576","0.017944","-0.050244","-0.056226","0.013159","-0.26438"
"Y","1617451760.752072","7","-32","38","60","38","-23","0.830383","0.033813","-0.554443","0.04425","0","-0.007634","0","8.731714","0.118433","3.689355","-0.320605","0.047852","-0.063403","-0.068188","0.04187","-0.319409"
"Y","1617451760.2422256","7","-32","39","57","38","-16","0.832947","0.033936","-0.550049","0.050049","0","0.007634","0","8.880054","-0.089722","3.653467","-0.132788","-0.104077","-0.193799","0.137573","-0.087329","-0.197388"
"Y","1617451760.2324517","7","-36","40","53","35","-16","0.832825","0.033752","-0.550232","0.049988","0.022901","0.015267","0","8.932691","-0.215332","3.588867","-0.081348","-0.226099","-0.253613","0.226099","-0.19978","-0.173462"
"Y","1617451760.2222197","7","-31","41","56","35","-23","0.832703","0.033447","-0.550476","0.049622","0.022901","0.022901","0","8.951831","-0.29668","3.555371","-0.0646","-0.30625","-0.282324","0.269165","-0.275146","-0.169873"
"Y","1617451760.2122753","7","-35","39","56","36","-15","0.832581","0.033264","-0.550659","0.049255","0.007634","0.015267","0","8.92312","-0.293091","3.562549","-0.094507","-0.303857","-0.271558","0.246436","-0.275146","-0.192603"
"Y","1617451760.202289","7","-35","43","54","35","-23","0.832581","0.033447","-0.55072","0.049011","-0.015267","0","0","8.851343","-0.211743","3.592456","-0.16748","-0.228491","-0.240454","0.18064","-0.206958","-0.247632"
"Y","1617451760.1921966","7","-35","41","54","39","-16","0.832642","0.033875","-0.550598","0.049011","-0.038168","-0.007634","0","8.75564","-0.08374","3.629541","-0.261987","-0.10647","-0.205762","0.098096","-0.094507","-0.321802"
"Y","1617451760.182915","7","-35","39","55","40","-16","0.832703","0.034546","-0.550415","0.049255","-0.053435","-0.022901","-0.007634","8.661133","0.055029","3.651074","-0.355298","0.021533","-0.186621","0.028711","0.026318","-0.399561"
"Y","1617451760.172133","7","-32","40","54","39","-16","0.832886","0.035217","-0.55011","0.049744","-0.053435","-0.022901","-0.007634","8.576197","0.151929","3.635522","-0.437842","0.112451","-0.208154","0.004785","0.114844","-0.483301"
"Y","1617451760.1621797","7","-33","41","53","38","-24","0.833008","0.035828","-0.549805","0.050232","-0.045802","-0.015267","0","8.559448","0.198584","3.624756","-0.452197","0.154321","-0.224902","0.00957","0.15791","-0.502441"
"Y","1617451760.1524248","7","-33","40","56","36","-17","0.833069","0.036316","-0.549622","0.050659","-0.030534","-0.015267","-0.007634","8.578588","0.181836","3.598438","-0.430664","0.133984","-0.253613","0.045459","0.142358","-0.494067"
"Y","1617451760.142217","7","-36","40","54","32","-17","0.83313","0.036499","-0.5495","0.050903","-0.015267","-0.007634","-0.007634","8.58816","0.124414","3.576904","-0.421094","0.076563","-0.277539","0.077759","0.088525","-0.495264"
"Y","1617451760.1322372","7","-35","41","52","36","-15","0.833191","0.03656","-0.549438","0.051086","-0.015267","0.007634","-0.007634","8.608496","0.071777","3.576904","-0.399561","0.023926","-0.279932","0.095703","0.038281","-0.477319"
"Y","1617451760.1229155","7","-35","40","53","37","-15","0.83313","0.036682","-0.5495","0.051147","-0.015267","0.015267","0","8.652759","0.066992","3.616382","-0.356494","0.017944","-0.238062","0.075366","0.028711","-0.421094"
"Y","1617451760.1128616","7","-35","37","54","38","-23","0.832947","0.036926","-0.549683","0.05127","-0.030534","0.022901","-0.007634","8.69104","0.087329","3.678589","-0.319409","0.035889","-0.171069","0.026318","0.040674","-0.360083"
"Y","1617451760.103026","7","-32","37","54","35","-16","0.832764","0.037292","-0.549927","0.051514","-0.030534","0.022901","-0.007634","8.695826","0.111255","3.750366","-0.317017","0.057422","-0.094507","-0.044263","0.053833","-0.327783"
"Y","1617451760.092906","7","-32","41","53","37","-23","0.832581","0.037598","-0.550171","0.05188","-0.030534","0.015267","-0.015267","8.677881","0.123218","3.804199","-0.337354","0.068188","-0.034692","-0.107666","0.056226","-0.322998"
"Y","1617451760.0829778","7","-34","38","52","36","-23","0.832336","0.037903","-0.550476","0.052246","-0.030534","0.022901","-0.015267","8.686255","0.11604","3.866406","-0.332568","0.061011","0.033496","-0.16748","0.040674","-0.291895"
"Y","1617451760.0730214","7","-32","39","56","38","-23","0.832031","0.038086","-0.550842","0.052551","-0.015267","0.022901","-0.015267","8.70061","0.078955","3.886743","-0.320605","0.025122","0.062207","-0.184229","0.002393","-0.270361"
"Y","1617451760.0628977","7","-31","41","54","37","-23","0.831787","0.038147","-0.55127","0.052795","-0.007634","0.015267","-0.015267","8.708984","0.031104","3.889136","-0.317017","-0.020337","0.072974","-0.185425","-0.043066","-0.263184"
"Y","1617451760.0529158","7","-32","38","52","32","-23","0.831543","0.038086","-0.551575","0.052917","0","0.015267","-0.015267","8.71018","-0.007178","3.884351","-0.318213","-0.055029","0.075366","-0.184229","-0.077759","-0.263184"
"Y","1617451760.042946","7","-35","42","53","32","-23","0.83136","0.037964","-0.55188","0.052979","0","0.015267","-0.007634","8.706592","-0.027515","3.860425","-0.325391","-0.072974","0.057422","-0.16748","-0.093311","-0.277539"
"Y","1617451760.0329","7","-32","40","54","38","-23","0.831177","0.037964","-0.552185","0.052917","0","0.015267","0","8.724536","-0.010767","3.838892","-0.309839","-0.056226","0.043066","-0.150732","-0.07417","-0.269165"
"Y","1617451760.0229566","7","-33","31","54","35","-17","0.830933","0.038025","-0.552551","0.052856","-0.007634","0.022901","0","8.749659","0.040674","3.81377","-0.288306","-0.005981","0.025122","-0.132788","-0.021533","-0.256006"
"Y","1617451760.013146","7","-35","45","53","35","-17","0.830688","0.038269","-0.552917","0.052856","-0.015267","0.022901","0","8.768799","0.107666","3.808984","-0.272754","0.056226","0.028711","-0.137573","0.039478","-0.239258"
"Y","1617451760.003055","7","-37","40","54","34","-23","0.830383","0.038513","-0.553345","0.052856","-0.015267","0.022901","0","8.790332","0.173462","3.803003","-0.25481","0.119629","0.0323","-0.142358","0.102881","-0.221313"
"Y","1617451759.9929338","7","-36","37","56","38","-16","0.830078","0.038696","-0.553772","0.052917","-0.007634","0.022901","0","8.802295","0.187817","3.789844","-0.246436","0.131592","0.028711","-0.136377","0.114844","-0.215332"
"Y","1617451759.983083","7","-33","42","57","36","-15","0.829773","0.038635","-0.554199","0.052795","0.015267","0.022901","0.007634","8.835791","0.160303","3.759937","-0.216528","0.105273","0.00957","-0.104077","0.093311","-0.194995"
"Y","1617451759.972927","7","-36","40","57","40","-17","0.829468","0.038391","-0.554688","0.05249","0.030534","0.030534","0.007634","8.868091","0.101685","3.734814","-0.189014","0.047852","-0.004785","-0.072974","0.039478","-0.175854"
"Y","1617451759.9630337","7","-32","40","54","36","-23","0.829224","0.037903","-0.555176","0.051941","0.045802","0.022901","0.007634","8.887232","0.045459","3.7073","-0.173462","-0.004785","-0.022729","-0.043066","-0.00957","-0.168677"
"Y","1617451759.9531984","7","-33","39","52","35","-23","0.829041","0.037354","-0.555542","0.051331","0.045802","0.015267","0.007634","8.888428","0.004785","3.69773","-0.175854","-0.043066","-0.025122","-0.037085","-0.046655","-0.172266"
"Y","1617451759.9430587","7","-33","42","57","35","-16","0.828918","0.036926","-0.555786","0.05072","0.030534","0.007634","0","8.862109","0.027515","3.706104","-0.203369","-0.019141","-0.011963","-0.062207","-0.026318","-0.192603"
"Y","1617451759.933088","7","-35","41","54","38","-23","0.828918","0.036682","-0.555847","0.050354","0.007634","-0.007634","0","8.808276","0.11604","3.7396","-0.258398","0.068188","0.021533","-0.12561","0.053833","-0.229687"
"Y","1617451759.923091","7","-32","40","54","38","-15","0.828979","0.036743","-0.555786","0.050293","-0.022901","-0.015267","-0.007634","8.746069","0.257202","3.803003","-0.319409","0.206958","0.08374","-0.22251","0.181836","-0.261987"
"Y","1617451759.9131303","7","-31","42","57","36","-15","0.829041","0.036987","-0.555603","0.050598","-0.030534","-0.015267","-0.015267","8.693433","0.364868","3.844873","-0.37085","0.314624","0.122021","-0.290698","0.281128","-0.294287"
"Y","1617451759.9030497","7","-33","41","54","38","-15","0.829041","0.037109","-0.555542","0.051086","-0.030534","-0.007634","-0.015267","8.705396","0.391187","3.887939","-0.35769","0.343335","0.163892","-0.327783","0.305054","-0.266772"
"Y","1617451759.893216","7","-35","40","53","38","-23","0.828918","0.037048","-0.555725","0.051575","-0.007634","0.007634","-0.022901","8.760425","0.326587","3.901099","-0.305054","0.285913","0.18064","-0.31582","0.247632","-0.211743"
"Y","1617451759.8830297","7","-33","40","53","38","-24","0.828735","0.036682","-0.55603","0.051941","0.015267","0.015267","-0.022901","8.829809","0.165088","3.879565","-0.238062","0.135181","0.165088","-0.257202","0.102881","-0.156714"
"Y","1617451759.8730447","7","-32","41","57","36","-12","0.828491","0.036011","-0.556396","0.052002","0.030534","0.015267","-0.022901","8.892016","-0.028711","3.848462","-0.179443","-0.045459","0.141162","-0.19021","-0.069385","-0.112451"
"Y","1617451759.8631847","7","-33","39","53","36","-23","0.828247","0.035339","-0.556824","0.05188","0.038168","0.015267","-0.022901","8.929102","-0.169873","3.81377","-0.145947","-0.177051","0.114844","-0.137573","-0.194995","-0.090918"
"Y","1617451759.853178","7","-33","41","54","38","-15","0.828003","0.034729","-0.55719","0.051758","0.022901","0.007634","-0.022901","8.917139","-0.242847","3.777881","-0.160303","-0.240454","0.086133","-0.108862","-0.256006","-0.114844"
"Y","1617451759.843136","7","-33","39","53","36","-23","0.827881","0.034363","-0.557434","0.051758","0.007634","0","-0.022901","8.871679","-0.259595","3.722852","-0.208154","-0.251221","0.035889","-0.078955","-0.263184","-0.178247"
"Y","1617451759.8331752","7","-35","40","52","34","-24","0.827759","0.034302","-0.557556","0.05188","-0.015267","0","-0.022901","8.832202","-0.205762","3.671411","-0.247632","-0.194995","-0.010767","-0.057422","-0.203369","-0.233276"
"Y","1617451759.823267","7","-37","40","53","32","-16","0.827637","0.034546","-0.557678","0.052185","-0.030534","0.007634","-0.022901","8.804688","-0.117236","3.617578","-0.276343","-0.10647","-0.062207","-0.0323","-0.111255","-0.278735"
"Y","1617451759.8131714","7","-32","39","54","38","-17","0.827515","0.034851","-0.557861","0.052612","-0.030534","0.015267","-0.015267","8.799902","-0.043066","3.556567","-0.283521","-0.0323","-0.119629","0.008374","-0.031104","-0.307446"
"Y","1617451759.8029876","7","-31","39","54","37","-16","0.827271","0.035034","-0.558167","0.052917","-0.007634","0.022901","-0.007634","8.834595","-0.044263","3.493164","-0.251221","-0.0323","-0.175854","0.071777","-0.022729","-0.297876"
"Y","1617451759.7933226","7","-35","40","53","-12","-16","0.826965","0.034973","-0.558655","0.052917","0.015267","0.030534","0.007634","8.893213","-0.145947","3.411816","-0.197388","-0.132788","-0.246436","0.169873","-0.112451","-0.27395"
"Y","1617451759.7829804","7","-34","41","57","36","-23","0.82666","0.034729","-0.559143","0.052551","0.038168","0.038168","0.007634","8.947046","-0.278735","3.355591","-0.147144","-0.26438","-0.291895","0.247632","-0.234473","-0.244043"
"Y","1617451759.7745678","7","-33","38","54","38","-23","0.826294","0.034424","-0.559692","0.051941","0.038168","0.038168","0.015267","8.978149","-0.358887","3.32688","-0.120825","-0.345728","-0.308643","0.282324","-0.312231","-0.226099"
"Y","1617451759.773054","7","-32","37","54","30","-17","0.826111","0.03418","-0.560181","0.051208","0.030534","0.022901","0.015267","8.943457","-0.385205","3.31731","-0.160303","-0.375635","-0.308643","0.271558","-0.344531","-0.261987"
"Y","1617451759.7716854","7","-32","39","53","38","-23","0.825989","0.034058","-0.560364","0.050537","0.015267","0.007634","0.015267","8.846558","-0.37085","3.325684","-0.258398","-0.366064","-0.29668","0.22251","-0.340942","-0.349316"
"Y","1617451759.7430878","7","-35","38","54","32","-23","0.825989","0.034302","-0.560364","0.049988","-0.007634","-0.007634","0.015267","8.747266","-0.281128","3.34602","-0.35769","-0.287109","-0.275146","0.156714","-0.269165","-0.433057"
"Y","1617451759.7330823","7","-33","33","54","35","-24","0.826111","0.034851","-0.560181","0.049744","-0.038168","-0.015267","0.015267","8.650366","-0.11604","3.387891","-0.453394","-0.133984","-0.236865","0.066992","-0.12561","-0.508423"
"Y","1617451759.7231271","7","-36","39","54","38","-16","0.826233","0.035645","-0.559937","0.049744","-0.053435","-0.022901","0.015267","8.579785","0.062207","3.414209","-0.521582","0.029907","-0.214136","0.001196","0.031104","-0.563452"
"Y","1617451759.713071","7","-36","40","52","36","-17","0.826416","0.03656","-0.559631","0.049988","-0.053435","-0.022901","0.015267","8.558252","0.198584","3.411816","-0.541919","0.154321","-0.22251","-0.013159","0.155518","-0.584985"
"Y","1617451759.7032356","7","-32","41","54","40","-15","0.826538","0.037292","-0.559387","0.050232","-0.030534","-0.015267","0.015267","8.602514","0.228491","3.396265","-0.495264","0.174658","-0.242847","0.017944","0.18064","-0.5479"
"Y","1617451759.6930287","7","-37","38","57","37","-14","0.826538","0.037598","-0.559326","0.050232","0","0","0.015267","8.673096","0.139966","3.362769","-0.424683","0.081348","-0.276343","0.087329","0.095703","-0.495264"
"Y","1617451759.6831656","7","-37","40","53","38","-25","0.826538","0.037598","-0.559387","0.049927","0.022901","0.007634","0.015267","8.768799","0.003589","3.356787","-0.328979","-0.057422","-0.281128","0.143555","-0.037085","-0.409131"
"Y","1617451759.6732533","7","-31","40","55","37","-24","0.826477","0.037415","-0.559509","0.049438","0.022901","0.007634","0.015267","8.826221","-0.084937","3.373535","-0.272754","-0.14834","-0.261987","0.15791","-0.126807","-0.350513"
"Y","1617451759.6631165","7","-32","40","57","36","-15","0.826538","0.037292","-0.559509","0.048889","0.022901","0","0.007634","8.829809","-0.117236","3.404639","-0.269165","-0.184229","-0.23208","0.136377","-0.166284","-0.336157"
"Y","1617451759.6531842","7","-35","41","56","36","-23","0.826599","0.037231","-0.559448","0.048462","0.007634","-0.015267","0.007634","8.796313","-0.096899","3.47522","-0.302661","-0.168677","-0.162695","0.058618","-0.159106","-0.342139"
"Y","1617451759.643159","7","-33","41","57","38","-23","0.826782","0.037354","-0.559143","0.048157","-0.015267","-0.022901","0.007634","8.735303","-0.0323","3.567334","-0.360083","-0.108862","-0.076563","-0.049048","-0.112451","-0.362476"
"Y","1617451759.6333115","7","-33","40","77","40","-23","0.827026","0.037781","-0.558777","0.048096","-0.030534","-0.030534","0.007634","8.661133","0.061011","3.66543","-0.43186","-0.023926","0.013159","-0.168677","-0.040674","-0.395972"
"Y","1617451759.623126","7","-32","40","53","34","-17","0.827332","0.038269","-0.55835","0.048218","-0.038168","-0.038168","0.007634","8.601318","0.163892","3.747974","-0.488086","0.070581","0.086133","-0.269165","0.04187","-0.418701"
"Y","1617451759.613295","7","-33","41","54","36","-16","0.827576","0.038879","-0.557922","0.04834","-0.038168","-0.038168","0.015267","8.566626","0.228491","3.807788","-0.519189","0.12561","0.137573","-0.334961","0.088525","-0.428271"
"Y","1617451759.6032205","7","-32","39","50","32","-17","0.827759","0.039307","-0.557617","0.048401","-0.022901","-0.022901","0.022901","8.598926","0.234473","3.843677","-0.484497","0.12561","0.16748","-0.349316","0.086133","-0.384009"
"Y","1617451759.5931065","7","-32","41","53","33","-15","0.82782","0.039551","-0.557495","0.048279","0","-0.015267","0.022901","8.66831","0.16748","3.82334","-0.413916","0.052637","0.144751","-0.293091","0.019141","-0.327783"
"Y","1617451759.5832546","7","-32","39","53","39","-23","0.827759","0.039551","-0.557617","0.047913","0.022901","0.007634","0.030534","8.781958","0.055029","3.765918","-0.301465","-0.062207","0.090918","-0.187817","-0.082544","-0.245239"
"Y","1617451759.5729308","7","-35","39","53","34","-23","0.827637","0.039429","-0.557922","0.04718","0.030534","0.015267","0.030534","8.900391","-0.031104","3.698926","-0.185425","-0.154321","0.029907","-0.077759","-0.162695","-0.161499"
"Y","1617451759.563376","7","-32","40","63","38","-15","0.827393","0.039429","-0.558289","0.046326","0.015267","0.022901","0.030534","9.011645","-0.031104","3.658252","-0.077759","-0.162695","-0.001196","-0.007178","-0.162695","-0.07417"
"Y","1617451759.5566242","7","-33","41","52","37","-17","0.827209","0.039734","-0.558655","0.045593","-0.007634","0.022901","0.030534","9.08462","0.056226","3.641504","-0.008374","-0.088525","-0.00957","0.015552","-0.086133","-0.011963"
"Y","1617451759.5445464","7","-31","41","53","36","-17","0.827026","0.040283","-0.558899","0.045105","-0.030534","0.007634","0.030534","9.092993","0.206958","3.627148","-0.001196","0.047852","-0.017944","0.00957","0.049048","-0.005981"
"Y","1617451759.533191","7","-32","41","56","35","-16","0.826904","0.041077","-0.55896","0.044861","-0.045802","0","0.022901","9.077441","0.384009","3.622363","-0.016748","0.209351","-0.019141","-0.013159","0.209351","-0.017944"
"Y","1617451759.5231595","7","-32","40","54","34","-16","0.826904","0.041992","-0.55896","0.044922","-0.053435","-0.007634","0.022901","9.06189","0.552686","3.640308","-0.033496","0.363672","-0.001196","-0.055029","0.360083","-0.023926"
"Y","1617451759.5132957","7","-35","40","57","38","-16","0.826904","0.042664","-0.558899","0.045044","-0.030534","-0.007634","0.022901","9.041553","0.630444","3.653467","-0.053833","0.43186","0.010767","-0.082544","0.424683","-0.037085"
"Y","1617451759.5032158","7","-33","42","56","36","-23","0.826904","0.042969","-0.558838","0.045105","-0.007634","-0.007634","0.022901","9.046338","0.598145","3.660645","-0.047852","0.394775","0.017944","-0.082544","0.387598","-0.028711"
"Y","1617451759.4932497","7","-35","41","54","36","-17","0.826904","0.042847","-0.558899","0.044861","0.022901","0","0.015267","9.079834","0.488086","3.672607","-0.015552","0.284717","0.031104","-0.068188","0.277539","0.002393"
"Y","1617451759.4831183","7","-33","41","53","35","-23","0.826904","0.042419","-0.55896","0.044434","0.038168","0","0.007634","9.116919","0.358887","3.695337","0.020337","0.15791","0.053833","-0.061011","0.150732","0.04187"
"Y","1617451759.473178","7","-33","40","53","36","-16","0.826904","0.04187","-0.559082","0.044006","0.038168","0","0","9.110937","0.248828","3.72644","0.013159","0.05144","0.086133","-0.080151","0.040674","0.044263"
"Y","1617451759.4631934","7","-35","38","52","38","-23","0.826904","0.041321","-0.559082","0.043701","0.022901","-0.007634","-0.022901","9.070264","0.19021","3.770703","-0.026318","0","0.130396","-0.129199","-0.015552","0.023926"
"Y","1617451759.453332","7","-31","40","58","36","-15","0.826904","0.040833","-0.559082","0.043823","0","0","-0.045802","9.015234","0.197388","3.826929","-0.080151","0.015552","0.186621","-0.203369","-0.008374","-0.004785"
"Y","1617451759.4432008","7","-33","38","52","35","-16","0.826782","0.040405","-0.559265","0.044434","-0.015267","0","-0.068702","8.982935","0.242847","3.877173","-0.114844","0.07417","0.239258","-0.271558","0.04187","-0.015552"
"Y","1617451759.4333632","7","-32","39","54","38","-23","0.82666","0.039917","-0.559387","0.045471","-0.022901","-0.007634","-0.076336","8.913549","0.284717","3.898706","-0.185425","0.136377","0.263184","-0.326587","0.098096","-0.071777"
"Y","1617451759.4233298","7","-35","42","54","36","-6","0.826599","0.03949","-0.559448","0.046631","-0.022901","-0.015267","-0.068702","8.827417","0.278735","3.871192","-0.271558","0.149536","0.235669","-0.334961","0.111255","-0.162695"
"Y","1617451759.4133174","7","-35","40","50","35","-23","0.826538","0.039124","-0.559509","0.047668","-0.022901","-0.007634","-0.061069","8.790332","0.276343","3.835303","-0.309839","0.165088","0.19978","-0.318213","0.129199","-0.211743"
"Y","1617451759.4038346","7","-31","39","54","38","-15","0.826416","0.038818","-0.559631","0.048645","-0.015267","0","-0.053435","8.761621","0.278735","3.799414","-0.339746","0.183032","0.166284","-0.300269","0.14834","-0.251221"
"Y","1617451759.3933427","7","-32","40","54","38","-23","0.826233","0.038391","-0.559814","0.049438","0","0.007634","-0.045802","8.735303","0.245239","3.745581","-0.367261","0.165088","0.117236","-0.263184","0.135181","-0.295483"
"Y","1617451759.3840668","7","-33","41","58","39","-23","0.825928","0.037781","-0.560242","0.050049","0.022901","0.022901","-0.045802","8.731714","0.153125","3.649878","-0.374438","0.090918","0.029907","-0.175854","0.070581","-0.336157"
"Y","1617451759.3739192","7","-35","39","56","36","-15","0.8255","0.036987","-0.560852","0.050354","0.045802","0.045802","-0.038168","8.786743","0.016748","3.548193","-0.324194","-0.027515","-0.058618","-0.061011","-0.033496","-0.322998"
"Y","1617451759.3639889","7","-32","40","54","35","-23","0.824951","0.03595","-0.561768","0.050354","0.061069","0.061069","-0.030534","8.863306","-0.144751","3.436939","-0.25481","-0.171069","-0.150732","0.066992","-0.162695","-0.291895"
"Y","1617451759.354081","7","-35","40","54","37","-23","0.824341","0.034912","-0.562805","0.049988","0.068702","0.068702","-0.022901","8.903979","-0.266772","3.337646","-0.22251","-0.278735","-0.229687","0.165088","-0.259595","-0.290698"
"Y","1617451759.3440545","7","-35","39","54","36","-13","0.82373","0.033936","-0.563843","0.0495","0.061069","0.068702","-0.022901","8.906372","-0.318213","3.246728","-0.229687","-0.318213","-0.299072","0.23208","-0.291895","-0.321802"
"Y","1617451759.334062","7","-35","39","56","36","-15","0.82312","0.033142","-0.564758","0.049011","0.045802","0.061069","-0.015267","8.865698","-0.290698","3.174951","-0.276343","-0.282324","-0.351709","0.259595","-0.253613","-0.384009"
"Y","1617451759.323925","7","-35","40","57","38","-13","0.822632","0.032715","-0.565552","0.048584","0.030534","0.053435","-0.015267","8.80708","-0.189014","3.135474","-0.342139","-0.177051","-0.374438","0.245239","-0.149536","-0.452197"
"Y","1617451759.3140793","7","-34","39","53","36","-23","0.822144","0.032471","-0.566223","0.04834","0.007634","0.045802","-0.007634","8.724536","-0.038281","3.106763","-0.429468","-0.023926","-0.387598","0.209351","0","-0.53833"
"Y","1617451759.3038428","7","-35","40","53","37","-23","0.821838","0.032471","-0.566711","0.048218","-0.007634","0.030534","0","8.66831","0.117236","3.097192","-0.490479","0.129199","-0.386401","0.169873","0.14834","-0.595752"
"Y","1617451759.2934158","7","-36","42","53","79","-6","0.821594","0.032593","-0.567078","0.048157","0","0.022901","0.007634","8.625244","0.224902","3.087622","-0.537134","0.234473","-0.387598","0.143555","0.251221","-0.638818"
"Y","1617451759.284035","7","-35","39","54","35","-16","0.82135","0.032532","-0.567383","0.048035","0.015267","0.022901","0.007634","8.600122","0.246436","3.068481","-0.563452","0.256006","-0.399561","0.142358","0.272754","-0.667529"
"Y","1617451759.2740998","7","-32","39","53","34","-17","0.821167","0.032166","-0.56781","0.047729","0.045802","0.030534","0.015267","8.645581","0.14834","3.040967","-0.522778","0.161499","-0.419897","0.187817","0.183032","-0.637622"
"Y","1617451759.2640204","7","-32","39","55","37","-23","0.820862","0.031494","-0.568298","0.04718","0.061069","0.030534","0.015267","8.707788","-0.011963","3.023022","-0.46416","0.005981","-0.427075","0.233276","0.031104","-0.583789"
"Y","1617451759.2541249","7","-31","39","54","38","-23","0.820618","0.03064","-0.568726","0.046326","0.068702","0.030534","0.015267","8.747266","-0.15791","3.003882","-0.427075","-0.133984","-0.436646","0.271558","-0.105273","-0.552686"
"Y","1617451759.244064","7","-33","40","56","34","-15","0.820435","0.029846","-0.569153","0.045471","0.061069","0.030534","0.007634","8.779566","-0.240454","3.031396","-0.398364","-0.212939","-0.401953","0.258398","-0.186621","-0.513208"
"Y","1617451759.2340262","7","-33","41","53","38","-23","0.820251","0.029236","-0.569519","0.044739","0.038168","0.022901","0","8.789136","-0.242847","3.092407","-0.392383","-0.212939","-0.332568","0.196191","-0.193799","-0.482104"
"Y","1617451759.2239327","7","-36","41","53","37","-16","0.820129","0.028992","-0.569702","0.04425","0.007634","0.007634","0","8.764013","-0.175854","3.164185","-0.418701","-0.147144","-0.257202","0.108862","-0.137573","-0.480908"
"Y","1617451759.2140453","7","-35","40","55","34","-23","0.82019","0.029114","-0.569641","0.044067","-0.015267","-0.007634","0","8.712573","-0.068188","3.233569","-0.468945","-0.043066","-0.189014","0.016748","-0.04187","-0.504834"
"Y","1617451759.2039711","7","-34","40","54","35","-23","0.820251","0.029419","-0.569458","0.044128","-0.030534","-0.015267","0","8.692236","0.028711","3.316113","-0.488086","0.047852","-0.110059","-0.071777","0.038281","-0.495264"
"Y","1617451759.1941044","7","-35","39","53","37","-23","0.820435","0.029785","-0.569275","0.044434","-0.038168","-0.022901","-0.007634","8.685059","0.092114","3.393872","-0.494067","0.108862","-0.037085","-0.14834","0.092114","-0.474927"
"Y","1617451759.1841528","7","-35","39","54","35","-16","0.820557","0.030151","-0.569031","0.0448","-0.030534","-0.022901","-0.007634","8.70061","0.090918","3.451294","-0.477319","0.105273","0.014355","-0.19021","0.08374","-0.441431"
"Y","1617451759.1741834","7","-35","39","56","38","-23","0.820679","0.030273","-0.568787","0.045105","-0.007634","-0.022901","-0.007634","8.71377","0.005981","3.471631","-0.461768","0.021533","0.029907","-0.19021","0","-0.421094"
"Y","1617451759.1639528","7","-32","40","56","35","-23","0.820862","0.030151","-0.568542","0.045227","0.007634","-0.022901","-0.007634","8.724536","-0.123218","3.487183","-0.448608","-0.104077","0.039478","-0.181836","-0.124414","-0.405542"
"Y","1617451759.15406","7","-33","40","54","37","-27","0.821045","0.030029","-0.568298","0.045166","0.007634","-0.022901","-0.007634","8.759229","-0.210547","3.538623","-0.411523","-0.19021","0.086133","-0.203369","-0.214136","-0.354102"
"Y","1617451759.1440277","7","-33","40","53","37","-18","0.821167","0.029907","-0.568115","0.045044","0","-0.022901","-0.007634","8.769995","-0.252417","3.597241","-0.399561","-0.23208","0.139966","-0.244043","-0.259595","-0.322998"
"Y","1617451759.1340988","7","-33","40","52","36","-16","0.821289","0.029846","-0.567932","0.045044","-0.007634","-0.015267","-0.007634","8.787939","-0.260791","3.655859","-0.38042","-0.239258","0.194995","-0.288306","-0.271558","-0.285913"
"Y","1617451759.1241782","7","-33","40","54","36","-16","0.82135","0.030029","-0.567871","0.045105","-0.022901","-0.007634","-0.007634","8.832202","-0.234473","3.712085","-0.336157","-0.215332","0.250024","-0.326587","-0.252417","-0.224902"
"Y","1617451759.1141317","7","-35","41","56","38","-13","0.821289","0.030518","-0.567871","0.045349","-0.045802","-0.007634","-0.007634","8.865698","-0.165088","3.762329","-0.301465","-0.150732","0.300269","-0.368457","-0.191406","-0.174658"
"Y","1617451759.1041958","7","-36","39","55","37","-16","0.821167","0.031128","-0.567932","0.045776","-0.061069","-0.007634","-0.007634","8.896802","-0.093311","3.794629","-0.271558","-0.08374","0.336157","-0.398364","-0.128003","-0.135181"
"Y","1617451759.094107","7","-33","40","54","38","-17","0.821045","0.031921","-0.568054","0.046265","-0.061069","-0.007634","-0.007634","8.919531","-0.033496","3.787451","-0.250024","-0.031104","0.331372","-0.391187","-0.075366","-0.11604"
"Y","1617451759.084025","7","-31","41","55","35","-23","0.820923","0.032715","-0.568176","0.046753","-0.061069","-0.007634","0","8.963794","0.001196","3.755151","-0.208154","-0.003589","0.302661","-0.352905","-0.043066","-0.087329"
"Y","1617451759.074067","7","-35","41","54","35","-23","0.82074","0.033569","-0.568298","0.04718","-0.053435","0","0.007634","9.011645","0.027515","3.701318","-0.160303","0.011963","0.253613","-0.293091","-0.021533","-0.059814"
"Y","1617451759.064043","7","-31","39","54","39","-15","0.820557","0.034241","-0.568604","0.047424","-0.038168","0.015267","0.007634","9.067871","0.026318","3.625952","-0.107666","0.003589","0.184229","-0.208154","-0.020337","-0.035889"
"Y","1617451759.0540335","7","-35","39","54","40","-23","0.820129","0.034607","-0.569092","0.047546","-0.007634","0.038168","0.015267","9.162378","-0.0323","3.542212","-0.016748","-0.057422","0.113647","-0.104077","-0.069385","0.022729"
"Y","1617451759.0441256","7","-33","39","46","35","-25","0.819641","0.034729","-0.569824","0.047302","0.022901","0.053435","0.015267","9.258081","-0.137573","3.43335","0.070581","-0.166284","0.021533","0.022729","-0.163892","0.072974"
"Y","1617451759.033901","7","-37","39","54","35","-24","0.819153","0.034607","-0.570618","0.046692","0.030534","0.053435","0.022901","9.346606","-0.240454","3.332861","0.153125","-0.272754","-0.061011","0.141162","-0.258398","0.120825"
"Y","1617451759.0239484","7","-33","39","54","38","-17","0.818665","0.034607","-0.571411","0.045959","0.022901","0.045802","0.015267","9.396851","-0.261987","3.251514","0.196191","-0.301465","-0.12561","0.218921","-0.278735","0.13877"
"Y","1617451759.0142589","7","-32","40","54","35","-16","0.818237","0.034729","-0.572021","0.04541","-0.007634","0.030534","0.007634","9.372925","-0.179443","3.192895","0.16748","-0.226099","-0.169873","0.240454","-0.19978","0.096899"
"Y","1617451759.004108","7","-5","42","56","36","-23","0.818054","0.035095","-0.572266","0.045227","-0.030534","0.007634","0","9.258081","-0.055029","3.122314","0.050244","-0.110059","-0.234473","0.247632","-0.081348","-0.033496"
"Y","1617451758.9941614","7","-33","41","54","35","-23","0.817993","0.035583","-0.572327","0.04541","-0.038168","-0.007634","-0.015267","9.144434","0.063403","3.034985","-0.062207","0.001196","-0.319409","0.276343","0.033496","-0.16748"
"Y","1617451758.9839983","7","-32","40","56","37","-23","0.817993","0.03595","-0.572205","0.045837","-0.022901","0","-0.015267","9.05232","0.114844","2.93689","-0.153125","0.05144","-0.418701","0.331372","0.092114","-0.285913"
"Y","1617451758.9742992","7","-31","40","54","38","-23","0.817993","0.035889","-0.572266","0.046204","0.007634","0.007634","-0.015267","9.046338","0.080151","2.838794","-0.160303","0.022729","-0.516797","0.424683","0.07417","-0.326587"
"Y","1617451758.9640718","7","-35","41","54","32","-23","0.817871","0.035522","-0.572388","0.046204","0.038168","0.022901","-0.007634","9.06189","-0.038281","2.758643","-0.144751","-0.088525","-0.593359","0.514404","-0.026318","-0.33855"
"Y","1617451758.954134","7","-33","40","56","38","-23","0.81781","0.034912","-0.572571","0.045776","0.053435","0.015267","0","9.049927","-0.150732","2.703613","-0.159106","-0.196191","-0.645996","0.57063","-0.129199","-0.37085"
"Y","1617451758.944189","7","-35","39","53","38","-16","0.81781","0.034363","-0.572693","0.045166","0.045802","0.015267","0.007634","9.004468","-0.168677","2.683276","-0.204565","-0.211743","-0.665137","0.574219","-0.144751","-0.419897"
"Y","1617451758.9342256","7","-33","40","54","32","-23","0.817871","0.034119","-0.572693","0.044495","0.022901","0","0.015267","8.951831","-0.098096","2.725147","-0.257202","-0.144751","-0.623267","0.509619","-0.084937","-0.45459"
"Y","1617451758.924044","7","-36","39","57","35","-17","0.817993","0.034119","-0.57251","0.043884","0.007634","-0.007634","0.022901","8.859716","0.005981","2.777783","-0.34812","-0.047852","-0.574219","0.42229","0.001196","-0.522778"
"Y","1617451758.9139452","7","-35","40","54","36","-23","0.818237","0.034302","-0.572205","0.043457","-0.007634","-0.022901","0.022901","8.768799","0.096899","2.822046","-0.436646","0.033496","-0.537134","0.34812","0.075366","-0.593359"
"Y","1617451758.904127","7","-32","37","54","36","-25","0.818481","0.034546","-0.571777","0.043152","-0.007634","-0.022901","0.022901","8.719751","0.171069","2.856738","-0.480908","0.099292","-0.510815","0.300269","0.137573","-0.625659"
"Y","1617451758.8941767","7","-33","40","54","39","-16","0.818787","0.034851","-0.571472","0.042908","-0.015267","-0.022901","0.022901","8.71018","0.227295","2.87229","-0.489282","0.14834","-0.502441","0.283521","0.185425","-0.630444"
"Y","1617451758.8842864","7","-33","41","53","38","-24","0.81897","0.035217","-0.571167","0.042725","-0.015267","-0.015267","0.015267","8.728125","0.269165","2.879468","-0.468945","0.181836","-0.501245","0.285913","0.220117","-0.611304"
"Y","1617451758.8741045","7","-39","40","53","37","-23","0.819092","0.035461","-0.570923","0.042664","-0.015267","-0.015267","0.015267","8.762817","0.299072","2.879468","-0.43186","0.206958","-0.50603","0.299072","0.246436","-0.577808"
"Y","1617451758.8640685","7","-36","39","56","36","-17","0.819275","0.035706","-0.570679","0.042542","-0.007634","-0.015267","0.015267","8.764013","0.311035","2.875879","-0.429468","0.212939","-0.515601","0.308643","0.253613","-0.579004"
"Y","1617451758.854129","7","-33","39","54","38","-23","0.819519","0.035828","-0.570374","0.042419","-0.007634","-0.015267","0.015267","8.772388","0.300269","2.899805","-0.418701","0.198584","-0.497656","0.29668","0.238062","-0.562256"
"Y","1617451758.8440428","7","-33","41","54","35","-25","0.819702","0.036072","-0.570068","0.042297","-0.015267","-0.015267","0.015267","8.799902","0.299072","2.952441","-0.388794","0.191406","-0.452197","0.26438","0.227295","-0.519189"
"Y","1617451758.8342123","7","-35","39","54","36","-17","0.819946","0.036316","-0.569763","0.042175","-0.022901","-0.015267","0.015267","8.826221","0.307446","3.048145","-0.360083","0.193799","-0.362476","0.19021","0.221313","-0.460571"
"Y","1617451758.824399","7","-36","37","52","39","-24","0.82019","0.036682","-0.569336","0.042175","-0.030534","-0.022901","0.007634","8.81665","0.325391","3.186914","-0.366064","0.205762","-0.233276","0.065796","0.218921","-0.421094"
"Y","1617451758.8140478","7","-33","39","54","36","-16","0.820435","0.037048","-0.56897","0.042419","-0.030534","-0.030534","0","8.801099","0.344531","3.357983","-0.378027","0.221313","-0.069385","-0.090918","0.216528","-0.374438"
"Y","1617451758.8040807","7","-35","40","54","35","-23","0.82074","0.037231","-0.56842","0.042786","-0.022901","-0.045802","-0.007634","8.75564","0.30625","3.520679","-0.418701","0.183032","0.080151","-0.24165","0.160303","-0.361279"
"Y","1617451758.7941935","7","-36","40","53","35","-23","0.821167","0.037109","-0.56781","0.043152","-0.007634","-0.061069","-0.015267","8.685059","0.181836","3.637915","-0.484497","0.0646","0.184229","-0.34812","0.029907","-0.387598"
"Y","1617451758.7848194","7","-33","37","54","35","-17","0.821655","0.036804","-0.567139","0.043335","0.007634","-0.061069","-0.015267","8.680273","0.029907","3.721655","-0.483301","-0.080151","0.252417","-0.394775","-0.120825","-0.362476"
"Y","1617451758.774403","7","-35","40","56","38","-23","0.822083","0.036499","-0.566528","0.043457","0","-0.053435","-0.015267","8.716162","-0.071777","3.792236","-0.442627","-0.177051","0.308643","-0.42229","-0.22251","-0.305054"
"Y","1617451758.7650332","7","-31","41","54","39","-17","0.822449","0.036377","-0.565979","0.043579","-0.007634","-0.053435","-0.015267","8.731714","-0.099292","3.841284","-0.42229","-0.202173","0.345728","-0.447412","-0.251221","-0.272754"
"Y","1617451758.75414","7","-35","37","52","40","-15","0.822815","0.036438","-0.56543","0.043762","-0.022901","-0.045802","-0.015267","8.74248","-0.086133","3.864014","-0.406738","-0.187817","0.356494","-0.453394","-0.238062","-0.253613"
"Y","1617451758.435016","7","-31","40","54","41","-15","0.818176","0.04248","-0.571838","0.042236","0.015267","0.022901","-0.007634","9.192286","0.375635","3.311328","-0.011963","0.16748","-0.043066","0.015552","0.171069","-0.021533"
"Y","1617451758.4250274","7","-35","39","53","35","-16","0.81781","0.041992","-0.572327","0.042175","0.038168","0.038168","-0.007634","9.292773","0.208154","3.227588","0.08374","0.007178","-0.11604","0.135181","0.021533","0.038281"
"Y","1617451758.415102","7","-33","41","57","36","-17","0.817505","0.041443","-0.572876","0.04187","0.038168","0.030534","-0.007634","9.334643","0.093311","3.1594","0.120825","-0.100488","-0.173462","0.214136","-0.076563","0.05144"
"Y","1617451758.4050694","7","-35","38","54","39","-23","0.817261","0.040955","-0.573303","0.041443","0.022901","0.022901","-0.007634","9.325073","0.0323","3.122314","0.107666","-0.15791","-0.202173","0.242847","-0.130396","0.028711"
"Y","1617451758.3952205","7","-33","38","54","36","-23","0.817139","0.04071","-0.573486","0.041199","0","0.007634","-0.007634","9.250903","0.045459","3.116333","0.0323","-0.142358","-0.204565","0.217725","-0.117236","-0.040674"
"Y","1617451758.385157","7","-32","43","57","38","-23","0.817139","0.040833","-0.573547","0.041199","-0.022901","0","-0.015267","9.138453","0.120825","3.140259","-0.080151","-0.069385","-0.179443","0.14834","-0.049048","-0.136377"
"Y","1617451758.3749278","7","-32","39","52","35","-23","0.817139","0.041077","-0.573425","0.041443","-0.038168","-0.007634","-0.015267","9.033178","0.220117","3.171362","-0.183032","0.027515","-0.149536","0.07417","0.040674","-0.221313"
"Y","1617451758.3651562","7","-32","41","54","38","-24","0.8172","0.041504","-0.573303","0.041931","-0.038168","-0.015267","-0.015267","8.932691","0.288306","3.20127","-0.283521","0.094507","-0.122021","0.005981","0.101685","-0.305054"
"Y","1617451758.355116","7","-32","40","54","36","-15","0.817261","0.041809","-0.57312","0.04248","-0.030534","-0.015267","-0.022901","8.827417","0.320605","3.221606","-0.387598","0.128003","-0.105273","-0.047852","0.130396","-0.397168"
"Y","1617451758.345002","7","-32","40","54","40","-23","0.817383","0.04187","-0.572937","0.04303","-0.015267","-0.022901","-0.030534","8.747266","0.313428","3.214429","-0.466553","0.12561","-0.11604","-0.0646","0.126807","-0.474927"
"Y","1617451758.3351614","7","-33","40","56","39","-16","0.817505","0.041626","-0.572754","0.043579","0","-0.022901","-0.030534","8.697021","0.272754","3.206055","-0.515601","0.094507","-0.129199","-0.065796","0.096899","-0.526367"
"Y","1617451758.3251822","7","-52","39","50","38","-43","0.817627","0.041138","-0.572571","0.043945","0.015267","-0.022901","-0.030534","8.674292","0.203369","3.204858","-0.535937","0.037085","-0.135181","-0.059814","0.038281","-0.549097"
"Y","1617451758.314996","7","-31","39","55","39","-23","0.81781","0.040527","-0.572327","0.044128","0.030534","-0.030534","-0.022901","8.665918","0.119629","3.20127","-0.541919","-0.034692","-0.145947","-0.044263","-0.031104","-0.558667"
"Y","1617451758.3053064","7","-32","39","53","34","-23","0.818054","0.039856","-0.572021","0.044128","0.030534","-0.030534","-0.022901","8.640796","0.039478","3.179736","-0.564648","-0.104077","-0.174658","-0.016748","-0.098096","-0.590967"
"Y","1617451758.2948992","7","-36","41","52","32","-23","0.818298","0.039185","-0.571777","0.044006","0.030534","-0.022901","-0.022901","8.673096","-0.016748","3.18811","-0.531152","-0.151929","-0.173462","-0.001196","-0.144751","-0.559863"
"Y","1617451758.2850115","7","-33","39","54","36","-23","0.818481","0.038757","-0.571533","0.043945","0.015267","-0.015267","-0.022901","8.708984","-0.031104","3.20127","-0.492871","-0.160303","-0.166284","0.003589","-0.153125","-0.521582"
"Y","1617451758.2751057","7","-34","39","53","30","-23","0.818542","0.038452","-0.571411","0.044006","0","-0.015267","-0.022901","8.735303","-0.008374","3.204858","-0.46416","-0.131592","-0.165088","0.00957","-0.124414","-0.494067"
"Y","1617451758.2650824","7","-35","40","53","36","-23","0.818604","0.03833","-0.57135","0.044189","-0.007634","-0.007634","-0.022901","8.761621","0.025122","3.203662","-0.437842","-0.094507","-0.168677","0.016748","-0.086133","-0.470142"
"Y","1617451758.2550197","7","-36","38","53","34","-23","0.818604","0.03833","-0.571289","0.044495","-0.015267","-0.007634","-0.015267","8.783154","0.045459","3.190503","-0.416309","-0.070581","-0.183032","0.035889","-0.061011","-0.45459"
"Y","1617451758.245052","7","-35","41","53","36","-17","0.818604","0.038391","-0.57135","0.044739","-0.015267","0","-0.015267","8.814258","0.043066","3.176147","-0.386401","-0.071777","-0.196191","0.058618","-0.059814","-0.430664"
"Y","1617451758.2352438","7","-33","41","56","36","-16","0.818542","0.038452","-0.571411","0.044922","-0.007634","0","-0.007634","8.856128","0.029907","3.157007","-0.344531","-0.08374","-0.214136","0.090918","-0.068188","-0.397168"
"Y","1617451758.2248769","7","-35","41","54","36","-16","0.818481","0.038452","-0.571472","0.044922","0","0.007634","0","8.880054","0","3.135474","-0.320605","-0.113647","-0.233276","0.120825","-0.094507","-0.381616"
"Y","1617451758.2150192","7","-32","41","54","37","-15","0.81842","0.038513","-0.571594","0.0448","0","0.015267","0.007634","8.914746","-0.027515","3.124707","-0.287109","-0.142358","-0.24165","0.143555","-0.122021","-0.354102"
"Y","1617451758.2050347","7","-33","40","53","38","-23","0.818298","0.038635","-0.571777","0.044495","0.007634","0.015267","0.015267","8.972168","-0.033496","3.137866","-0.230884","-0.154321","-0.224902","0.14834","-0.133984","-0.295483"
"Y","1617451758.1953163","7","-35","43","52","37","-12","0.818176","0.038696","-0.571899","0.044189","0.007634","0.007634","0.015267","8.981738","-0.022729","3.157007","-0.22251","-0.147144","-0.202173","0.129199","-0.129199","-0.279932"
"Y","1617451758.1850822","7","-33","39","50","34","-23","0.818176","0.038879","-0.57196","0.043823","0","0","0.015267","8.964991","0.023926","3.189307","-0.240454","-0.107666","-0.168677","0.087329","-0.093311","-0.284717"
"Y","1617451758.175171","7","-32","41","58","36","-17","0.818237","0.039001","-0.571899","0.043518","0","-0.007634","0.007634","8.909961","0.081348","3.240747","-0.294287","-0.056226","-0.118433","0.015552","-0.049048","-0.317017"
"Y","1617451758.1650126","7","-35","40","54","36","-15","0.818359","0.039062","-0.571716","0.043274","0","-0.015267","0.007634","8.866895","0.132788","3.311328","-0.336157","-0.008374","-0.05144","-0.065796","-0.010767","-0.332568"
"Y","1617451758.1550522","7","-36","41","54","35","-23","0.818481","0.039124","-0.571533","0.043152","0","-0.022901","0","8.832202","0.178247","3.37832","-0.368457","0.033496","0.010767","-0.139966","0.021533","-0.340942"
"Y","1617451758.145152","7","-36","40","53","37","-17","0.818665","0.039062","-0.571289","0.042969","0.007634","-0.022901","0.007634","8.819043","0.198584","3.447705","-0.38042","0.052637","0.07417","-0.205762","0.033496","-0.330176"
"Y","1617451758.135102","7","-32","41","57","34","-17","0.818787","0.038879","-0.571106","0.042786","0.015267","-0.022901","0.007634","8.815454","0.196191","3.485986","-0.381616","0.050244","0.108862","-0.238062","0.027515","-0.319409"
"Y","1617451758.1251905","7","-36","41","56","36","-24","0.81897","0.038696","-0.570984","0.042419","0.022901","-0.022901","0.007634","8.827417","0.18064","3.508716","-0.369653","0.033496","0.126807","-0.248828","0.00957","-0.302661"
"Y","1617451758.1152284","7","-33","39","53","38","-23","0.819031","0.038513","-0.570862","0.042053","0.015267","-0.015267","0.015267","8.84895","0.177051","3.514697","-0.345728","0.028711","0.131592","-0.244043","0.004785","-0.277539"
"Y","1617451758.1053212","7","-37","41","55","39","-16","0.819153","0.038391","-0.570801","0.041626","0.007634","-0.022901","0.015267","8.863306","0.198584","3.502734","-0.331372","0.047852","0.117236","-0.228491","0.026318","-0.269165"
"Y","1617451758.0951457","7","-36","40","57","35","-27","0.819214","0.038452","-0.570618","0.041321","-0.007634","-0.022901","0.007634","8.870483","0.248828","3.474023","-0.321802","0.093311","0.084937","-0.19978","0.075366","-0.270361"
"Y","1617451758.0851588","7","-33","40","51","36","-23","0.819336","0.038574","-0.570496","0.04126","-0.015267","-0.015267","0","8.896802","0.308643","3.444116","-0.295483","0.149536","0.052637","-0.16748","0.135181","-0.256006"
"Y","1617451758.075132","7","-36","40","56","38","-23","0.819397","0.038635","-0.570435","0.041321","-0.007634","-0.015267","-0.007634","8.954224","0.350513","3.414209","-0.238062","0.191406","0.020337","-0.122021","0.181836","-0.212939"
"Y","1617451758.0650735","7","-35","40","54","36","-23","0.819397","0.038574","-0.570435","0.041504","0","0","-0.007634","9.018824","0.333765","3.380713","-0.173462","0.178247","-0.011963","-0.068188","0.173462","-0.163892"
"Y","1617451758.0552545","7","-33","39","52","37","-23","0.819336","0.03833","-0.570496","0.041626","0.015267","0.007634","-0.015267","9.075048","0.270361","3.354394","-0.117236","0.119629","-0.037085","-0.019141","0.119629","-0.120825"
"Y","1617451758.0452173","7","-37","40","53","36","-24","0.819214","0.037842","-0.570679","0.041687","0.022901","0.015267","-0.015267","9.133667","0.165088","3.334058","-0.059814","0.022729","-0.053833","0.026318","0.026318","-0.07417"
"Y","1617451758.0352085","7","-3","40","54","36","-23","0.819092","0.037292","-0.570923","0.041565","0.030534","0.015267","-0.015267","9.181519","0.061011","3.341235","-0.014355","-0.071777","-0.04187","0.04187","-0.066992","-0.028711"
"Y","1617451758.0250337","7","-33","39","56","36","-24","0.819031","0.036804","-0.571106","0.041382","0.022901","0","-0.015267","9.180323","-0.025122","3.356787","-0.016748","-0.151929","-0.023926","0.0323","-0.14834","-0.025122"
"Y","1617451758.0157669","7","-37","39","51","36","-23","0.819031","0.036377","-0.571106","0.04126","0.007634","-0.015267","-0.015267","9.098974","-0.062207","3.379517","-0.098096","-0.184229","-0.001196","-0.011963","-0.185425","-0.094507"
"Y","1617451758.00589","7","-35","41","57","36","-23","0.819153","0.036255","-0.570923","0.04126","-0.007634","-0.022901","-0.015267","9.005664","-0.034692","3.408227","-0.189014","-0.154321","0.022729","-0.069385","-0.160303","-0.171069"
"Y","1617451757.9951785","7","-35","40","53","33","-23","0.819336","0.036438","-0.570679","0.041443","-0.030534","-0.022901","-0.015267","8.918335","0.047852","3.445312","-0.275146","-0.072974","0.053833","-0.136377","-0.084937","-0.239258"
"Y","1617451757.9849682","7","-33","39","54","35","-15","0.819458","0.036743","-0.570374","0.041809","-0.030534","-0.022901","-0.015267","8.871679","0.133984","3.464453","-0.319409","0.010767","0.066992","-0.173462","-0.004785","-0.275146"
"Y","1617451757.9753556","7","-32","39","52","38","-16","0.819519","0.036987","-0.570251","0.042175","-0.022901","-0.007634","-0.007634","8.88125","0.174658","3.47522","-0.308643","0.05144","0.075366","-0.181836","0.033496","-0.261987"
"Y","1617451757.9650717","7","-35","39","53","36","-23","0.819458","0.03717","-0.570374","0.042419","-0.007634","0.015267","0","8.937475","0.153125","3.457275","-0.253613","0.029907","0.059814","-0.145947","0.015552","-0.216528"
"Y","1617451757.9552886","7","-36","41","54","37","-15","0.819153","0.037109","-0.57074","0.042358","0.015267","0.030534","0","9.026001","0.090918","3.415405","-0.16748","-0.029907","0.027515","-0.078955","-0.037085","-0.147144"
"Y","1617451757.9452944","7","-35","37","52","35","-24","0.818787","0.036926","-0.57135","0.042114","0.022901","0.045802","0.007634","9.10376","0.022729","3.379517","-0.095703","-0.098096","0.003589","-0.025122","-0.099292","-0.089722"
"Y","1617451757.935345","7","-33","40","56","39","-16","0.818298","0.036743","-0.572083","0.041687","0.022901","0.045802","0.007634","9.148023","-0.016748","3.343628","-0.057422","-0.137573","-0.014355","0.008374","-0.136377","-0.059814"
"Y","1617451757.9252253","7","-31","40","56","38","-15","0.817871","0.03656","-0.572754","0.04126","0.015267","0.045802","0.007634","9.165967","-0.023926","3.320899","-0.044263","-0.145947","-0.022729","0.021533","-0.143555","-0.050244"
"Y","1617451757.9150867","7","-32","39","54","34","-23","0.817444","0.036621","-0.573425","0.040894","-0.007634","0.030534","0.007634","9.134863","0.022729","3.308936","-0.081348","-0.104077","-0.020337","0.002393","-0.102881","-0.08374"
"Y","1617451757.905166","7","-35","39","54","35","-25","0.817139","0.036926","-0.573792","0.04071","-0.030534","0.007634","0","9.027197","0.123218","3.279028","-0.191406","-0.00957","-0.040674","-0.025122","-0.00957","-0.193799"
"Y","1617451757.8960233","7","-32","40","56","39","-17","0.817139","0.037354","-0.573792","0.040894","-0.045802","-0.007634","-0.007634","8.860913","0.244043","3.245532","-0.35769","0.105273","-0.07417","-0.062207","0.102881","-0.360083"
"Y","1617451757.8859372","7","-36","39","54","38","-15","0.817139","0.037842","-0.573669","0.041321","-0.045802","-0.015267","-0.007634","8.768799","0.326587","3.221606","-0.448608","0.184229","-0.099292","-0.078955","0.183032","-0.452197"
"Y","1617451757.8758314","7","-35","41","54","39","-17","0.817139","0.038208","-0.573608","0.04187","-0.030534","-0.007634","-0.015267","8.754443","0.345728","3.21084","-0.462964","0.203369","-0.110059","-0.076563","0.202173","-0.468945"
"Y","1617451757.865246","7","-32","39","54","38","-23","0.817078","0.038269","-0.57373","0.042236","-0.007634","0.007634","-0.015267","8.775976","0.276343","3.172559","-0.443823","0.137573","-0.147144","-0.027515","0.141162","-0.465356"
"Y","1617451757.8551111","7","-31","40","54","40","-17","0.816895","0.038025","-0.573975","0.042419","0.015267","0.015267","-0.015267","8.823828","0.163892","3.119922","-0.397168","0.031104","-0.193799","0.043066","0.04187","-0.437842"
"Y","1617451757.8451357","7","-35","41","54","38","-23","0.81665","0.037659","-0.57428","0.042358","0.022901","0.022901","-0.015267","8.883642","0.068188","3.073267","-0.33855","-0.057422","-0.233276","0.110059","-0.039478","-0.397168"
"Y","1617451757.8360343","7","-35","39","53","36","-23","0.816406","0.037231","-0.574707","0.042236","0.022901","0.030534","-0.015267","8.918335","0.008374","3.031396","-0.308643","-0.111255","-0.266772","0.15791","-0.088525","-0.381616"
"Y","1617451757.8260157","7","-32","40","56","26","-17","0.816162","0.036804","-0.575134","0.042053","0.022901","0.022901","-0.015267","8.930298","-0.013159","3.002686","-0.300269","-0.126807","-0.287109","0.181836","-0.101685","-0.38042"
"Y","1617451757.816089","7","-33","40","54","38","-16","0.815918","0.03656","-0.575439","0.041931","0.007634","0.015267","-0.015267","8.927905","-0.019141","2.990723","-0.303857","-0.130396","-0.291895","0.185425","-0.105273","-0.385205"
"Y","1617451757.805855","7","-35","41","53","35","-23","0.815796","0.036438","-0.575623","0.04187","-0.007634","0.007634","-0.007634","8.905176","0.023926","2.983545","-0.327783","-0.086133","-0.295483","0.175854","-0.062207","-0.407935"
"Y","1617451757.7960014","7","-35","43","52","38","-23","0.815796","0.03656","-0.575623","0.041992","-0.022901","-0.007634","-0.007634","8.864502","0.114844","2.999097","-0.368457","0.003589","-0.279932","0.137573","0.023926","-0.440234"
"Y","1617451757.7858868","7","-35","39","53","35","-16","0.815857","0.036865","-0.5755","0.042236","-0.030534","-0.015267","-0.007634","8.798706","0.208154","3.018237","-0.434253","0.094507","-0.263184","0.089722","0.110059","-0.495264"
"Y","1617451757.7760844","7","-33","41","56","35","-24","0.815979","0.037048","-0.575317","0.042603","-0.022901","-0.015267","-0.007634","8.766406","0.245239","3.031396","-0.465356","0.132788","-0.253613","0.065796","0.147144","-0.521582"
"Y","1617451757.7659402","7","-32","40","55","36","-15","0.81604","0.037048","-0.575195","0.042908","0","-0.007634","-0.007634","8.764013","0.196191","3.044556","-0.466553","0.087329","-0.242847","0.061011","0.100488","-0.519189"
"Y","1617451757.755918","7","-31","41","54","38","-16","0.81604","0.036865","-0.575195","0.04303","0.015267","0","-0.007634","8.804688","0.113647","3.07207","-0.425879","0.008374","-0.215332","0.057422","0.019141","-0.472534"
"Y","1617451757.7459188","7","-31","41","54","2","-55","0.81604","0.036499","-0.575256","0.042908","0.022901","0","0","8.829809","0.044263","3.098389","-0.400757","-0.055029","-0.189014","0.047852","-0.044263","-0.441431"
"Y","1617451757.7360556","7","-33","41","57","37","-16","0.816101","0.036133","-0.575195","0.042603","0.030534","-0.007634","0","8.833399","-0.016748","3.121118","-0.397168","-0.113647","-0.16748","0.035889","-0.105273","-0.430664"
"Y","1617451757.725904","7","-32","42","54","38","-18","0.816162","0.035828","-0.575134","0.042236","0.022901","-0.015267","0","8.827417","-0.047852","3.143848","-0.401953","-0.144751","-0.147144","0.017944","-0.13877","-0.428271"
"Y","1617451757.7160878","7","-35","42","56","38","-16","0.816284","0.035706","-0.574951","0.041931","0","-0.022901","0","8.817846","-0.016748","3.170166","-0.409131","-0.114844","-0.124414","-0.007178","-0.111255","-0.427075"
"Y","1617451757.705956","7","-35","39","52","38","-17","0.816467","0.035889","-0.574707","0.04187","-0.022901","-0.022901","-0.007634","8.811865","0.061011","3.200073","-0.413916","-0.040674","-0.100488","-0.039478","-0.040674","-0.423486"
"Y","1617451757.6958935","7","-33","40","54","36","-23","0.81665","0.036194","-0.574463","0.042114","-0.038168","-0.022901","-0.007634","8.811865","0.137573","3.222803","-0.41272","0.0323","-0.082544","-0.0646","0.028711","-0.415112"
"Y","1617451757.6860857","7","-37","40","53","40","-24","0.816711","0.03656","-0.57428","0.042542","-0.030534","-0.015267","-0.015267","8.831006","0.155518","3.245532","-0.391187","0.049048","-0.063403","-0.077759","0.044263","-0.388794"
"Y","1617451757.6761503","7","-33","39","54","39","-23","0.816772","0.036682","-0.574158","0.042969","-0.022901","-0.007634","-0.015267","8.893213","0.094507","3.24314","-0.328979","-0.008374","-0.068188","-0.045459","-0.00957","-0.332568"
"Y","1617451757.665907","7","-36","40","54","36","-23","0.816711","0.036743","-0.574219","0.043274","-0.007634","0","-0.007634","8.981738","0.004785","3.235962","-0.240454","-0.095703","-0.07417","0","-0.093311","-0.251221"
"Y","1617451757.6561463","7","-35","39","54","36","-23","0.816711","0.036682","-0.574219","0.043335","0","-0.007634","-0.007634","9.018824","-0.065796","3.22998","-0.203369","-0.165088","-0.080151","0.023926","-0.160303","-0.220117"
"Y","1617451757.6460383","7","-34","41","54","38","-23","0.816772","0.03656","-0.574158","0.043274","0.007634","-0.007634","0","9.040357","-0.130396","3.212036","-0.181836","-0.228491","-0.099292","0.056226","-0.221313","-0.206958"
"Y","1617451757.6358948","7","-35","40","60","36","-17","0.816833","0.03656","-0.574158","0.04303","0.007634","-0.007634","0.007634","9.092993","-0.149536","3.225195","-0.129199","-0.250024","-0.087329","0.065796","-0.24165","-0.153125"
"Y","1617451757.6259978","7","-35","40","53","34","-23","0.816895","0.036682","-0.574036","0.042725","0","-0.015267","0.015267","9.104956","-0.107666","3.255103","-0.11604","-0.214136","-0.059814","0.040674","-0.209351","-0.131592"
"Y","1617451757.616023","7","-32","39","54","34","-16","0.817078","0.036987","-0.573792","0.042419","-0.015267","-0.030534","0.015267","9.054712","-0.013159","3.313721","-0.165088","-0.128003","-0.005981","-0.035889","-0.130396","-0.15791"
"Y","1617451757.606099","7","-32","41","54","36","-23","0.817383","0.037415","-0.573364","0.042236","-0.022901","-0.038168","0.015267","8.953028","0.10647","3.375928","-0.263184","-0.017944","0.045459","-0.129199","-0.028711","-0.23208"
"Y","1617451757.5959532","7","-35","37","54","37","-16","0.817688","0.037781","-0.572876","0.042175","-0.022901","-0.030534","0.015267","8.887232","0.205762","3.440527","-0.324194","0.072974","0.100488","-0.211743","0.052637","-0.269165"
"Y","1617451757.5859096","7","-33","40","53","36","-17","0.817871","0.038086","-0.572571","0.042114","-0.015267","-0.015267","0.015267","8.890821","0.246436","3.511108","-0.318213","0.107666","0.165088","-0.27395","0.080151","-0.240454"
"Y","1617451757.5759602","7","-31","41","57","38","-23","0.817932","0.038269","-0.57251","0.041992","0","-0.007634","0.015267","8.941065","0.253613","3.574512","-0.267969","0.111255","0.227295","-0.31582","0.077759","-0.172266"
"Y","1617451757.5661263","7","-33","40","55","38","-16","0.817871","0.038269","-0.572571","0.041687","0.015267","0","0.015267","8.991308","0.214136","3.621167","-0.217725","0.068188","0.275146","-0.33855","0.031104","-0.108862"
"Y","1617451757.5559542","7","-35","39","54","37","-15","0.817749","0.038086","-0.572815","0.041321","0.022901","0.007634","0.015267","9.024805","0.155518","3.635522","-0.186621","0.008374","0.294287","-0.33855","-0.027515","-0.07417"
"Y","1617451757.5461671","7","-35","42","52","38","-23","0.817627","0.037842","-0.573059","0.040771","0.022901","0","0.007634","9.023608","0.117236","3.617578","-0.189014","-0.031104","0.281128","-0.322998","-0.065796","-0.081348"
"Y","1617451757.5360746","7","-35","43","53","39","-16","0.817505","0.03772","-0.573242","0.040344","0.007634","0","0.007634","9.003271","0.142358","3.569726","-0.210547","-0.008374","0.238062","-0.291895","-0.038281","-0.11604"
"Y","1617451757.5261111","7","-33","41","54","37","-23","0.817383","0.037781","-0.573425","0.040161","-0.007634","0.007634","0","8.998487","0.227295","3.520679","-0.217725","0.072974","0.192603","-0.260791","0.046655","-0.137573"
"Y","1617451757.5160007","7","-35","40","54","39","-47","0.8172","0.037903","-0.57373","0.040222","-0.015267","0.007634","-0.007634","8.999682","0.29668","3.448901","-0.218921","0.141162","0.128003","-0.208154","0.120825","-0.160303"
"Y","1617451757.5060368","7","-35","39","54","35","-23","0.816895","0.038025","-0.574097","0.040405","-0.015267","0.015267","-0.007634","9.012842","0.308643","3.349609","-0.208154","0.154321","0.037085","-0.120825","0.143555","-0.18064"
"Y","1617451757.4960053","7","-34","41","54","38","-16","0.816589","0.038025","-0.574463","0.040527","-0.007634","0.022901","0","9.042749","0.256006","3.24314","-0.18064","0.102881","-0.058618","-0.016748","0.104077","-0.187817"
"Y","1617451757.4859428","7","-33","40","57","39","-16","0.816284","0.037964","-0.57489","0.040527","0","0.022901","0","9.072657","0.189014","3.148633","-0.154321","0.037085","-0.143555","0.077759","0.047852","-0.192603"
"Y","1617451757.475959","7","-32","38","54","34","-23","0.81604","0.037903","-0.575317","0.040466","0.007634","0.030534","-0.007634","9.082227","0.129199","3.086426","-0.149536","-0.020337","-0.197388","0.136377","-0.001196","-0.206958"
"Y","1617451757.4659882","7","-33","40","54","38","-16","0.815796","0.03772","-0.575684","0.040405","0.007634","0.030534","-0.007634","9.087011","0.082544","3.064893","-0.147144","-0.0646","-0.210547","0.154321","-0.044263","-0.209351"
"Y","1617451757.4560623","7","-33","39","54","37","-17","0.815552","0.037476","-0.57605","0.040344","0.007634","0.022901","-0.015267","9.082227","0.031104","3.066089","-0.154321","-0.111255","-0.202173","0.149536","-0.092114","-0.214136"
"Y","1617451757.4461696","7","-35","41","54","37","-23","0.815369","0.037231","-0.576355","0.040344","0.007634","0.022901","-0.015267","9.057104","0.004785","3.0948","-0.183032","-0.133984","-0.166284","0.108862","-0.118433","-0.229687"
"Y","1617451757.436133","7","-36","40","54","37","-16","0.815186","0.037048","-0.576599","0.040405","0","0.007634","-0.022901","9.011645","-0.003589","3.137866","-0.229687","-0.13877","-0.118433","0.049048","-0.130396","-0.257202"
"Y","1617451757.4261773","7","-33","40","61","35","-23","0.815125","0.036865","-0.57666","0.040588","-0.007634","0","-0.030534","8.941065","0.022729","3.17854","-0.300269","-0.10647","-0.076563","-0.015552","-0.104077","-0.309839"
"Y","1617451757.41603","7","-32","40","58","37","-16","0.815125","0.036804","-0.576599","0.040833","-0.015267","-0.015267","-0.022901","8.84895","0.081348","3.200073","-0.392383","-0.044263","-0.055029","-0.072974","-0.046655","-0.388794"
"Y","1617451757.406191","7","-29","40","54","42","-17","0.815247","0.036804","-0.576416","0.04126","-0.022901","-0.022901","-0.022901","8.760425","0.144751","3.203662","-0.479712","0.022729","-0.056226","-0.108862","0.015552","-0.470142"
"Y","1617451757.396342","7","-33","39","56","39","-23","0.81543","0.036865","-0.576172","0.041626","-0.015267","-0.030534","-0.022901","8.722143","0.183032","3.198877","-0.515601","0.063403","-0.066992","-0.114844","0.056226","-0.507227"
"Y","1617451757.3861208","7","-32","41","56","38","-16","0.815552","0.036804","-0.575928","0.041992","-0.007634","-0.015267","-0.015267","8.71018","0.161499","3.17854","-0.525171","0.046655","-0.092114","-0.093311","0.04187","-0.525171"
"Y","1617451757.3759878","7","-31","40","56","38","-15","0.815613","0.03656","-0.575867","0.042175","0.007634","-0.007634","-0.015267","8.76521","0.094507","3.160596","-0.470142","-0.013159","-0.112451","-0.049048","-0.013159","-0.479712"
"Y","1617451757.366215","7","-37","41","54","36","-16","0.815552","0.036255","-0.575928","0.042114","0.022901","0.007634","-0.007634","8.850146","0.025122","3.149829","-0.385205","-0.078955","-0.122021","-0.004785","-0.075366","-0.404346"
"Y","1617451757.3559687","7","-36","58","53","36","-13","0.815491","0.035889","-0.576111","0.041931","0.022901","0.007634","0","8.917139","-0.00957","3.13667","-0.320605","-0.108862","-0.131592","0.027515","-0.101685","-0.346924"
"Y","1617451757.3462312","7","-35","41","54","36","-24","0.815369","0.035583","-0.576294","0.041626","0.022901","0.015267","0","8.966187","-0.013159","3.142651","-0.271558","-0.111255","-0.122021","0.035889","-0.104077","-0.29668"
"Y","1617451757.3362727","7","-36","39","58","40","-15","0.815247","0.035461","-0.576538","0.041321","0.007634","0.007634","0","8.986524","0.014355","3.157007","-0.253613","-0.084937","-0.102881","0.020337","-0.080151","-0.27395"
"Y","1617451757.3268027","7","-35","41","54","39","-23","0.815186","0.035461","-0.57666","0.041138","0","0","0","8.943457","0.065796","3.161792","-0.297876","-0.034692","-0.095703","-0.004785","-0.031104","-0.312231"
"Y","1617451757.31632","7","-33","42","53","36","-23","0.815186","0.035583","-0.57666","0.041016","-0.015267","-0.007634","0","8.870483","0.11604","3.14624","-0.37085","0.010767","-0.111255","-0.019141","0.011963","-0.386401"
"Y","1617451757.306172","7","-35","37","55","39","-16","0.815186","0.035889","-0.576599","0.041077","-0.030534","0","0","8.858521","0.193799","3.151025","-0.382812","0.08374","-0.10647","-0.035889","0.08374","-0.394775"
"Y","1617451757.296234","7","-35","39","54","36","-16","0.815125","0.036194","-0.57666","0.041321","-0.030534","0.007634","-0.007634","8.893213","0.248828","3.145044","-0.34812","0.137573","-0.111255","-0.025122","0.13877","-0.363672"
"Y","1617451757.286409","7","-35","39","53","38","-23","0.814941","0.036316","-0.576904","0.041565","-0.007634","0.015267","-0.007634","8.949438","0.206958","3.116333","-0.294287","0.095703","-0.133984","0.016748","0.101685","-0.320605"
"Y","1617451757.2760296","7","-35","40","54","38","-17","0.814697","0.036255","-0.577209","0.041687","0.007634","0.015267","0","9.005664","0.098096","3.068481","-0.240454","-0.008374","-0.174658","0.084937","0.003589","-0.284717"
"Y","1617451757.2661264","7","-34","39","57","39","-23","0.814514","0.036194","-0.577454","0.041504","0.007634","0.015267","0.007634","9.048731","-0.00957","3.019433","-0.198584","-0.117236","-0.217725","0.150732","-0.098096","-0.259595"
"Y","1617451757.2568114","7","-35","39","53","37","-15","0.814392","0.036133","-0.577637","0.041321","0","0.007634","0","9.058301","-0.057422","3.005078","-0.19021","-0.166284","-0.228491","0.168677","-0.144751","-0.256006"
"Y","1617451757.246961","7","-32","40","54","36","-23","0.814331","0.036194","-0.577759","0.041199","-0.007634","0.007634","0","9.051123","-0.066992","3.017041","-0.198584","-0.177051","-0.214136","0.154321","-0.15791","-0.259595"
"Y","1617451757.2362","7","-35","40","57","39","-18","0.814331","0.036377","-0.57782","0.04126","-0.015267","0","-0.007634","9.028394","-0.066992","3.046948","-0.22251","-0.179443","-0.183032","0.117236","-0.163892","-0.271558"
"Y","1617451757.2268114","7","-33","39","57","35","-23","0.814331","0.036621","-0.577759","0.041321","-0.022901","0","-0.007634","8.980542","-0.050244","3.078052","-0.270361","-0.166284","-0.151929","0.071777","-0.155518","-0.30625"
"Y","1617451757.216841","7","-35","42","56","36","-23","0.814331","0.036987","-0.577698","0.041504","-0.030534","-0.007634","0","8.930298","0.015552","3.134277","-0.319409","-0.104077","-0.096899","-0.002393","-0.100488","-0.333765"
"Y","1617451757.2063608","7","-31","41","56","40","-17","0.814392","0.037537","-0.577576","0.041687","-0.038168","-0.007634","0","8.88125","0.118433","3.202466","-0.368457","-0.008374","-0.031104","-0.090918","-0.013159","-0.35769"
"Y","1617451757.1961968","7","-35","41","53","39","-16","0.814453","0.038086","-0.577393","0.041931","-0.038168","-0.007634","0","8.840576","0.204565","3.258691","-0.406738","0.070581","0.021533","-0.161499","0.057422","-0.375635"
"Y","1617451757.1861737","7","-32","41","56","36","-23","0.814514","0.038513","-0.577332","0.042114","-0.022901","-0.007634","0.007634","8.810669","0.245239","3.293384","-0.437842","0.10647","0.055029","-0.206958","0.088525","-0.392383"
"Y","1617451757.1760511","7","-35","40","53","38","-23","0.814453","0.038635","-0.577393","0.042175","0","0","0.007634","8.827417","0.19978","3.287402","-0.421094","0.059814","0.050244","-0.192603","0.043066","-0.379224"
"Y","1617451757.166279","7","-35","39","55","36","-17","0.814331","0.038574","-0.577576","0.041992","0.022901","0.007634","0.007634","8.888428","0.095703","3.250317","-0.361279","-0.044263","0.017944","-0.130396","-0.053833","-0.334961"
"Y","1617451757.1568365","7","-35","40","54","36","-23","0.814148","0.038391","-0.577881","0.041565","0.022901","0.015267","0.007634","8.969775","0.014355","3.223999","-0.282324","-0.126807","-0.001196","-0.076563","-0.131592","-0.267969"
"Y","1617451757.1469562","7","-33","41","54","38","-23","0.814026","0.03833","-0.578125","0.041138","0.007634","0.007634","0.015267","9.012842","0.014355","3.206055","-0.24165","-0.130396","-0.014355","-0.050244","-0.132788","-0.234473"
"Y","1617451757.1370678","7","-32","40","54","38","-23","0.813904","0.038452","-0.578247","0.040771","-0.007634","-0.007634","0.015267","8.992505","0.057422","3.182129","-0.261987","-0.093311","-0.034692","-0.04187","-0.094507","-0.259595"
"Y","1617451757.126964","7","-35","40","54","37","-15","0.813904","0.038879","-0.578247","0.040588","-0.022901","-0.007634","0.015267","8.984131","0.126807","3.164185","-0.270361","-0.0323","-0.05144","-0.035889","-0.031104","-0.271558"
"Y","1617451757.1162782","7","-32","41","54","36","-23","0.813965","0.039368","-0.578125","0.040527","-0.030534","-0.007634","0.015267","8.973364","0.196191","3.1594","-0.281128","0.026318","-0.058618","-0.039478","0.026318","-0.283521"
"Y","1617451757.1062","7","-36","40","52","36","-23","0.813965","0.039856","-0.578125","0.040527","-0.030534","0","0.015267","8.978149","0.248828","3.1594","-0.276343","0.071777","-0.057422","-0.044263","0.071777","-0.277539"
"Y","1617451757.0962489","7","-32","41","57","40","-16","0.813904","0.040222","-0.578125","0.040527","-0.015267","0.007634","0.015267","9.009253","0.257202","3.164185","-0.245239","0.07417","-0.05144","-0.039478","0.07417","-0.246436"
"Y","1617451757.0868876","7","-35","43","54","41","-16","0.813782","0.040344","-0.578308","0.040466","0.007634","0.007634","0.007634","9.041553","0.19978","3.155811","-0.214136","0.014355","-0.056226","-0.017944","0.015552","-0.220117"
"Y","1617451757.0770333","7","-33","41","53","37","-13","0.81366","0.040222","-0.578552","0.040161","0.022901","0.015267","0.007634","9.082227","0.105273","3.137866","-0.175854","-0.080151","-0.069385","0.015552","-0.07417","-0.19021"
"Y","1617451757.066072","7","-32","41","54","35","-23","0.813538","0.040039","-0.578735","0.039734","0.022901","0.007634","0.007634","9.102564","0.056226","3.119922","-0.156714","-0.130396","-0.082544","0.040674","-0.123218","-0.177051"
"Y","1617451757.0569658","7","-35","39","54","37","-24","0.813477","0.039917","-0.578857","0.039368","0.015267","0","0.007634","9.106153","0.068188","3.137866","-0.153125","-0.120825","-0.062207","0.021533","-0.114844","-0.166284"
"Y","1617451757.0470788","7","-33","40","54","36","-15","0.813538","0.039856","-0.578857","0.039001","0.007634","-0.015267","0.007634","9.067871","0.110059","3.152222","-0.192603","-0.082544","-0.049048","-0.007178","-0.078955","-0.198584"
"Y","1617451757.036919","7","-33","41","54","38","-17","0.81366","0.039978","-0.578613","0.038818","-0.007634","-0.022901","0.007634","9.011645","0.172266","3.16897","-0.245239","-0.023926","-0.037085","-0.04187","-0.022729","-0.244043"
"Y","1617451757.0267882","7","-35","42","57","36","-17","0.813904","0.040283","-0.578308","0.038757","-0.022901","-0.030534","0.007634","8.982935","0.278735","3.209644","-0.272754","0.075366","-0.002393","-0.094507","0.070581","-0.256006"
"Y","1617451757.0168636","7","-35","40","54","37","-16","0.814148","0.04071","-0.577942","0.038818","-0.030534","-0.030534","0","8.937475","0.399561","3.25271","-0.31582","0.189014","0.031104","-0.153125","0.178247","-0.283521"
"Y","1617451757.006863","7","-34","40","57","35","-23","0.814331","0.041016","-0.577637","0.039062","-0.015267","-0.030534","0","8.909961","0.455786","3.269458","-0.340942","0.242847","0.04187","-0.178247","0.230884","-0.302661"
"Y","1617451756.9968772","7","-35","40","54","40","-17","0.814453","0.040955","-0.577393","0.039124","0.015267","-0.022901","0.007634","8.924316","0.387598","3.277832","-0.322998","0.175854","0.045459","-0.168677","0.163892","-0.285913"
"Y","1617451756.9871075","7","-35","41","54","36","-15","0.814575","0.040405","-0.577332","0.038879","0.045802","-0.007634","0.007634","8.968579","0.221313","3.255103","-0.278735","0.015552","0.019141","-0.111255","0.008374","-0.256006"
"Y","1617451756.9768536","7","-35","42","53","36","-23","0.814575","0.039734","-0.577393","0.038269","0.061069","0","0.007634","9.040357","0.058618","3.234766","-0.206958","-0.142358","0","-0.052637","-0.144751","-0.197388"
"Y","1617451756.966987","7","-35","39","53","35","-17","0.814575","0.039124","-0.577515","0.037476","0.045802","0","0.007634","9.088208","0.00957","3.22998","-0.160303","-0.19021","-0.002393","-0.029907","-0.19021","-0.155518"
"Y","1617451756.9568267","7","-40","41","57","38","-8","0.814575","0.038818","-0.577576","0.036865","0.007634","0","0","9.088208","0.084937","3.22998","-0.160303","-0.117236","-0.001196","-0.039478","-0.118433","-0.153125"
"Y","1617451756.9467933","7","-32","41","52","35","-15","0.814575","0.039001","-0.577576","0.036682","-0.030534","-0.007634","-0.007634","9.076245","0.261987","3.247925","-0.172266","0.053833","0.015552","-0.076563","0.049048","-0.155518"
"Y","1617451756.5172324","7","-36","40","54","37","-23","0.817993","0.036987","-0.572632","0.040039","0.007634","-0.007634","-0.007634","8.911158","-0.165088","3.444116","-0.297876","-0.308643","0.096899","-0.15791","-0.322998","-0.251221"
"Y","1617451756.5071828","7","-35","39","57","39","-18","0.818115","0.037048","-0.57251","0.039917","-0.015267","-0.015267","-0.007634","8.836987","-0.065796","3.523071","-0.372046","-0.211743","0.173462","-0.265576","-0.236865","-0.293091"
"Y","1617451756.4978447","7","-35","41","56","38","-23","0.818176","0.037415","-0.572327","0.039978","-0.022901","-0.030534","-0.007634","8.759229","0.071777","3.588867","-0.447412","-0.078955","0.235669","-0.363672","-0.113647","-0.340942"
"Y","1617451756.4871688","7","-33","41","56","36","-25","0.818359","0.037659","-0.572083","0.040161","-0.015267","-0.038168","0","8.663526","0.141162","3.581689","-0.541919","-0.011963","0.223706","-0.392383","-0.047852","-0.43186"
"Y","1617451756.477255","7","-36","39","54","36","-23","0.818481","0.03772","-0.571838","0.040222","0.015267","-0.030534","0.007634","8.615674","0.11604","3.530249","-0.587378","-0.037085","0.16748","-0.352905","-0.068188","-0.494067"
"Y","1617451756.4671","7","-33","39","53","40","-24","0.818604","0.037415","-0.571777","0.039917","0.038168","-0.007634","0.007634","8.652759","0.043066","3.45249","-0.550293","-0.108862","0.087329","-0.258398","-0.129199","-0.488086"
"Y","1617451756.457266","7","-35","39","52","34","-23","0.818481","0.036926","-0.57196","0.039307","0.053435","0.015267","0.007634","8.740088","-0.031104","3.371143","-0.462964","-0.181836","0.00957","-0.147144","-0.191406","-0.434253"
"Y","1617451756.4471917","7","-36","39","53","37","-25","0.818298","0.036377","-0.572388","0.038574","0.053435","0.030534","0.007634","8.851343","-0.057422","3.316113","-0.355298","-0.206958","-0.035889","-0.065796","-0.209351","-0.34812"
"Y","1617451756.437231","7","-33","37","53","38","-24","0.817932","0.03595","-0.572876","0.037903","0.030534","0.038168","0","8.925512","0","3.280225","-0.284717","-0.150732","-0.061011","-0.023926","-0.149536","-0.290698"
"Y","1617451756.42725","7","-36","37","54","31","-23","0.817627","0.035828","-0.573425","0.037476","0.007634","0.030534","0","8.972168","0.122021","3.271851","-0.242847","-0.029907","-0.057422","-0.025122","-0.028711","-0.247632"
"Y","1617451756.417772","7","-33","37","52","36","-23","0.817322","0.03595","-0.573792","0.037292","-0.022901","0.022901","0","8.963794","0.282324","3.281421","-0.253613","0.12561","-0.039478","-0.061011","0.123218","-0.248828"
"Y","1617451756.4079232","7","-36","38","53","36","-25","0.817078","0.036316","-0.574097","0.037476","-0.030534","0.015267","0","8.950635","0.415112","3.295776","-0.269165","0.25481","-0.016748","-0.100488","0.248828","-0.253613"
"Y","1617451756.3971813","7","-35","39","61","36","-16","0.816956","0.036621","-0.574341","0.03772","-0.022901","0","0.007634","8.954224","0.440234","3.295776","-0.269165","0.277539","-0.011963","-0.107666","0.271558","-0.252417"
"Y","1617451756.3873954","7","-59","40","53","35","-17","0.816833","0.036621","-0.574463","0.037842","0.007634","0","0","8.926709","0.333765","3.239551","-0.29668","0.173462","-0.065796","-0.056226","0.172266","-0.297876"
"Y","1617451756.3779614","7","-36","38","52","36","-23","0.816711","0.036316","-0.574646","0.03772","0.030534","0.007634","0","8.949438","0.183032","3.153418","-0.275146","0.026318","-0.147144","0.04187","0.034692","-0.307446"
"Y","1617451756.3678055","7","-36","41","53","35","-23","0.816589","0.035828","-0.57489","0.037354","0.038168","0.022901","-0.007634","9.004468","0.088525","3.084033","-0.22251","-0.063403","-0.212939","0.130396","-0.045459","-0.281128"
"Y","1617451756.3579051","7","-33","39","54","36","-23","0.816284","0.035278","-0.575378","0.036987","0.030534","0.038168","-0.007634","9.095386","0.037085","3.040967","-0.135181","-0.110059","-0.245239","0.194995","-0.087329","-0.210547"
"Y","1617451756.347294","7","-35","41","56","39","-15","0.815918","0.034973","-0.575989","0.036682","0.015267","0.045802","-0.015267","9.179126","0.058618","3.024219","-0.056226","-0.086133","-0.248828","0.22251","-0.061011","-0.136377"
"Y","1617451756.3370328","7","-34","40","53","38","-18","0.815491","0.034851","-0.576538","0.036621","-0.007634","0.038168","-0.015267","9.21023","0.137573","3.029004","-0.029907","-0.004785","-0.230884","0.206958","0.016748","-0.104077"
"Y","1617451756.3276331","7","-37","39","54","34","-23","0.815186","0.034851","-0.576965","0.036804","-0.022901","0.030534","-0.015267","9.182714","0.228491","3.05293","-0.059814","0.087329","-0.197388","0.155518","0.105273","-0.119629"
"Y","1617451756.317901","7","-37","40","54","36","-23","0.815002","0.034912","-0.577209","0.03717","-0.022901","0.015267","-0.015267","9.132471","0.275146","3.085229","-0.112451","0.137573","-0.160303","0.099292","0.149536","-0.156714"
"Y","1617451756.3079906","7","-35","41","54","37","-24","0.814819","0.034851","-0.577454","0.037476","0","0.007634","-0.015267","9.095386","0.234473","3.10437","-0.151929","0.101685","-0.135181","0.065796","0.111255","-0.186621"
"Y","1617451756.297777","7","-32","40","53","39","-23","0.814697","0.034546","-0.577576","0.03772","0.015267","0","-0.015267","9.049927","0.123218","3.092407","-0.197388","-0.001196","-0.144751","0.070581","0.008374","-0.233276"
"Y","1617451756.2879467","7","-35","39","54","35","-24","0.814697","0.033997","-0.577637","0.037659","0.030534","0","-0.015267","9.010449","0.011963","3.063696","-0.238062","-0.104077","-0.173462","0.094507","-0.090918","-0.282324"
"Y","1617451756.2777514","7","-36","39","52","36","-23","0.814758","0.033569","-0.577637","0.037537","0.022901","-0.007634","-0.015267","8.973364","-0.020337","3.069678","-0.275146","-0.130396","-0.168677","0.080151","-0.118433","-0.31582"
"Y","1617451756.2680922","7","-35","41","53","38","-24","0.814819","0.033203","-0.577576","0.037476","0.007634","-0.007634","-0.015267","8.920728","0.005981","3.068481","-0.327783","-0.099292","-0.171069","0.062207","-0.088525","-0.366064"
"Y","1617451756.257926","7","-36","38","56","37","-24","0.81488","0.03302","-0.577454","0.037476","0","-0.007634","-0.007634","8.896802","0.034692","3.076855","-0.349316","-0.068188","-0.165088","0.045459","-0.059814","-0.384009"
"Y","1617451756.248039","7","-36","39","57","35","-23","0.81488","0.032959","-0.577454","0.037476","-0.007634","0","-0.007634","8.890821","0.061011","3.079248","-0.355298","-0.040674","-0.162695","0.038281","-0.0323","-0.388794"
"Y","1617451756.2378378","7","-31","39","56","38","-16","0.81488","0.033081","-0.577515","0.037476","-0.015267","0","0","8.918335","0.094507","3.080444","-0.328979","-0.00957","-0.161499","0.043066","-0.001196","-0.363672"
"Y","1617451756.2279916","7","-36","42","57","36","-15","0.814819","0.033325","-0.577576","0.037537","-0.022901","0.007634","0","8.932691","0.149536","3.079248","-0.31582","0.04187","-0.160303","0.04187","0.049048","-0.350513"
"Y","1617451756.2179472","7","-33","40","53","38","-23","0.814697","0.033569","-0.577637","0.03772","-0.022901","0.007634","0","8.938672","0.194995","3.084033","-0.309839","0.084937","-0.153125","0.0323","0.092114","-0.340942"
"Y","1617451756.2078657","7","-33","40","57","34","-23","0.814636","0.03363","-0.577759","0.037903","0","0","-0.007634","8.948242","0.16748","3.080444","-0.301465","0.058618","-0.154321","0.039478","0.065796","-0.333765"
"Y","1617451756.1977932","7","-35","41","58","34","-16","0.814575","0.033386","-0.57782","0.037842","0.022901","0","0","8.945849","0.053833","3.039771","-0.303857","-0.050244","-0.193799","0.086133","-0.037085","-0.350513"
"Y","1617451756.1879065","7","-35","43","60","36","-23","0.814575","0.032959","-0.577881","0.037537","0.030534","0.007634","0","8.968579","-0.038281","3.009863","-0.281128","-0.13877","-0.22251","0.129199","-0.122021","-0.339746"
"Y","1617451756.177848","7","-32","40","53","37","-23","0.814575","0.032593","-0.577942","0.037109","0.022901","0","0","8.986524","-0.046655","3.037378","-0.26438","-0.145947","-0.193799","0.108862","-0.131592","-0.314624"
"Y","1617451756.1678476","7","-37","39","53","36","-17","0.814575","0.032471","-0.578003","0.036804","0.007634","0","0","8.982935","0.017944","3.091211","-0.267969","-0.082544","-0.139966","0.050244","-0.07417","-0.299072"
"Y","1617451756.158033","7","-32","41","54","35","-16","0.814575","0.032532","-0.577942","0.036621","-0.015267","-0.007634","0","8.974561","0.101685","3.151025","-0.275146","-0.002393","-0.080151","-0.014355","0","-0.285913"
"Y","1617451756.1478946","7","-32","39","53","36","-23","0.814636","0.032776","-0.577881","0.03656","-0.022901","-0.007634","0","8.966187","0.186621","3.209644","-0.283521","0.076563","-0.022729","-0.078955","0.071777","-0.27395"
"Y","1617451756.1379256","7","-35","39","50","36","-23","0.814636","0.033142","-0.577881","0.036682","-0.030534","0","0","8.973364","0.24165","3.244336","-0.276343","0.126807","0.010767","-0.112451","0.118433","-0.25481"
"Y","1617451756.1278644","7","-37","40","56","34","-24","0.814575","0.033386","-0.577942","0.036865","-0.015267","0","0","8.999682","0.240454","3.259888","-0.251221","0.124414","0.027515","-0.120825","0.114844","-0.226099"
"Y","1617451756.1179037","7","-32","41","53","38","-23","0.814514","0.033386","-0.578003","0.036987","0","0","0","9.008057","0.165088","3.235962","-0.242847","0.050244","0.004785","-0.088525","0.044263","-0.226099"
"Y","1617451756.1079454","7","-31","39","53","36","-23","0.814392","0.033264","-0.578125","0.036865","0.015267","0.007634","0","9.016431","0.082544","3.195288","-0.235669","-0.029907","-0.031104","-0.044263","-0.031104","-0.23208"
"Y","1617451756.0979412","7","-35","37","52","35","-23","0.814331","0.033142","-0.578308","0.03656","0.007634","0.007634","0.007634","9.024805","0.077759","3.171362","-0.228491","-0.035889","-0.05144","-0.022729","-0.034692","-0.23208"
"Y","1617451756.0878022","7","-33","39","53","39","-24","0.814209","0.033203","-0.578491","0.036255","0","0.022901","0.007634","9.047534","0.143555","3.162988","-0.206958","0.023926","-0.056226","-0.016748","0.023926","-0.212939"
"Y","1617451756.0780869","7","-35","41","52","35","-23","0.813965","0.033325","-0.578857","0.036072","-0.007634","0.030534","0.007634","9.073853","0.246436","3.179736","-0.184229","0.123218","-0.031104","-0.04187","0.120825","-0.181836"
"Y","1617451756.0680196","7","-35","39","53","35","-23","0.813599","0.033569","-0.579346","0.036011","-0.015267","0.030534","0.007634","9.112134","0.339746","3.206055","-0.149536","0.212939","0.005981","-0.07417","0.208154","-0.136377"
"Y","1617451756.0579531","7","-35","42","54","39","-17","0.813232","0.033875","-0.579773","0.03595","-0.022901","0.030534","0.007634","9.106153","0.411523","3.219214","-0.15791","0.279932","0.029907","-0.10647","0.271558","-0.135181"
"Y","1617451756.04803","7","-37","40","54","35","-15","0.812927","0.034119","-0.580261","0.036011","-0.015267","0.030534","0.007634","9.100171","0.46416","3.237158","-0.168677","0.328979","0.058618","-0.141162","0.318213","-0.135181"
"Y","1617451756.037913","7","-36","39","56","39","-16","0.812561","0.03418","-0.58075","0.036133","-0.007634","0.030534","0","9.100171","0.439038","3.237158","-0.172266","0.305054","0.069385","-0.150732","0.293091","-0.136377"
"Y","1617451756.0279","7","-36","38","34","36","-16","0.812195","0.033997","-0.581238","0.036194","0.015267","0.015267","0","9.104956","0.334961","3.208447","-0.171069","0.205762","0.052637","-0.124414","0.196191","-0.141162"
"Y","1617451756.0178802","7","-36","41","57","32","-23","0.812012","0.033569","-0.581604","0.036072","0.022901","0.007634","-0.007634","9.085815","0.223706","3.151025","-0.193799","0.100488","0.002393","-0.07417","0.095703","-0.18064"
"Y","1617451756.0079696","7","-36","37","55","40","-15","0.811829","0.033203","-0.581787","0.035889","0.015267","0","-0.007634","9.077441","0.194995","3.088818","-0.202173","0.075366","-0.053833","-0.020337","0.075366","-0.206958"
"Y","1617451755.9979498","7","-37","40","54","36","-17","0.811768","0.032959","-0.581909","0.035767","0","0","-0.015267","9.082227","0.228491","3.038574","-0.198584","0.111255","-0.101685","0.020337","0.11604","-0.218921"
"Y","1617451755.9880855","7","-36","40","55","39","-16","0.811768","0.032898","-0.58197","0.035828","-0.015267","0","-0.022901","9.077441","0.326587","3.007471","-0.204565","0.211743","-0.132788","0.038281","0.218921","-0.233276"
"Y","1617451755.9779634","7","-33","40","54","36","-23","0.811707","0.032959","-0.58197","0.036255","-0.030534","0.007634","-0.030534","9.079834","0.437842","2.987134","-0.202173","0.326587","-0.151929","0.046655","0.334961","-0.235669"
"Y","1617451755.9680283","7","-37","40","54","34","-17","0.811584","0.032898","-0.582153","0.036865","-0.022901","0.022901","-0.038168","9.13606","0.484497","2.991919","-0.147144","0.381616","-0.143555","0.050244","0.38999","-0.18064"
"Y","1617451755.9578407","7","-37","39","52","36","-16","0.811279","0.03241","-0.582581","0.037598","0.015267","0.038168","-0.038168","9.247314","0.372046","2.97876","-0.039478","0.285913","-0.14834","0.098096","0.297876","-0.081348"
"Y","1617451755.9481478","7","-35","38","54","39","-13","0.810852","0.031494","-0.58313","0.038025","0.045802","0.038168","-0.045802","9.352588","0.120825","2.95603","0.061011","0.053833","-0.159106","0.163892","0.069385","0.007178"
"Y","1617451755.938037","7","-36","38","54","39","-16","0.810547","0.030151","-0.583679","0.038147","0.068702","0.030534","-0.053435","9.37771","-0.149536","2.944067","0.081348","-0.191406","-0.160303","0.194995","-0.172266","0.025122"
"Y","1617451755.9279983","7","-33","41","54","38","-16","0.810364","0.028687","-0.583984","0.038147","0.061069","0.007634","-0.061069","9.337036","-0.351709","2.953638","0.039478","-0.369653","-0.144751","0.184229","-0.352905","-0.008374"
"Y","1617451755.9181046","7","-35","40","53","34","-23","0.810364","0.027527","-0.583984","0.038208","0.038168","-0.022901","-0.061069","9.228174","-0.435449","3.002686","-0.066992","-0.434253","-0.096899","0.111255","-0.424683","-0.093311"
"Y","1617451755.9082026","7","-33","41","53","38","-16","0.810669","0.026794","-0.583557","0.038513","0","-0.053435","-0.061069","9.049927","-0.387598","3.073267","-0.24165","-0.372046","-0.037085","-0.005981","-0.374438","-0.239258"
