timestamp,user_id,flex_1,flex_2,flex_3,flex_4,flex_5,Qw,Qx,Qy,Qz,GYRx,GYRy,GYRz,ACCx,ACCy,ACCz,ACCx_body,ACCy_body,ACCz_body,ACCx_world,ACCy_world,ACCz_world,Alphabet
1616135393.6235082,1,59.0,58.0,75.0,76.0,63.0,0.846191,0.130859,-0.511841,0.069092,-0.007634,0.0,0.0,8.69104,1.460669,4.114038,0.023926,-0.015552,-0.214136,0.196191,0.046655,-0.075366,yes
1616135393.6334772,1,63.0,58.0,76.0,76.0,63.0,0.846191,0.130859,-0.511841,0.069153,-0.007634,0.0,0.0,8.693433,1.467847,4.100879,0.026318,-0.008374,-0.227295,0.206958,0.057422,-0.077759,yes
1616135393.6433313,1,61.0,58.0,73.0,77.0,62.0,0.846191,0.130798,-0.511841,0.069214,-0.007634,0.007634,0.0,8.703003,1.48938,4.105664,0.035889,0.014355,-0.22251,0.200977,0.077759,-0.063403,yes
1616135393.653447,1,51.0,58.0,72.0,133.0,61.0,0.846252,0.130676,-0.51178,0.069336,-0.007634,0.007634,0.007634,8.708984,1.502539,4.102075,0.04187,0.029907,-0.228491,0.205762,0.094507,-0.058618,yes
1616135393.663674,1,60.0,58.0,73.0,85.0,61.0,0.846375,0.130554,-0.511597,0.069458,-0.007634,0.015267,0.007634,8.697021,1.497754,4.09729,0.0323,0.027515,-0.238062,0.209351,0.094507,-0.071777,yes
1616135393.6733992,1,61.0,56.0,73.0,74.0,61.0,0.846497,0.130432,-0.511414,0.069641,-0.007634,0.015267,0.007634,8.676684,1.488184,4.099683,0.013159,0.021533,-0.239258,0.203369,0.089722,-0.090918,yes
1616135393.6835363,1,60.0,56.0,72.0,76.0,63.0,0.846619,0.13031,-0.51123,0.069824,0.0,0.015267,0.007634,8.665918,1.492969,4.122412,0.003589,0.029907,-0.221313,0.18064,0.092114,-0.089722,yes
1616135393.6934073,1,61.0,58.0,72.0,74.0,61.0,0.846741,0.130249,-0.511047,0.070068,0.0,0.015267,0.007634,8.641993,1.507324,4.159497,-0.017944,0.046655,-0.189014,0.139966,0.099292,-0.092114,yes
1616135393.7036035,1,60.0,57.0,72.0,76.0,59.0,0.846863,0.130188,-0.510864,0.070251,-0.007634,0.015267,0.015267,8.625244,1.53125,4.196582,-0.033496,0.072974,-0.155518,0.096899,0.114844,-0.087329,yes
1616135393.7133431,1,59.0,58.0,70.0,74.0,61.0,0.846924,0.130005,-0.510681,0.070435,-0.007634,0.007634,0.015267,8.61687,1.538428,4.224097,-0.039478,0.084937,-0.131592,0.070581,0.119629,-0.080151,yes
1616135393.7233407,1,59.0,57.0,70.0,74.0,61.0,0.847046,0.129761,-0.510559,0.070618,-0.015267,0.007634,0.015267,8.610888,1.525269,4.234863,-0.044263,0.076563,-0.12561,0.065796,0.110059,-0.082544,yes
1616135393.7333844,1,61.0,57.0,72.0,149.0,61.0,0.847168,0.129517,-0.510376,0.070801,-0.007634,0.007634,0.015267,8.612085,1.503735,4.254004,-0.04187,0.061011,-0.111255,0.058618,0.090918,-0.076563,yes
1616135393.7434616,1,63.0,58.0,73.0,76.0,62.0,0.847229,0.129272,-0.510254,0.071045,-0.007634,0.007634,0.015267,8.609693,1.484595,4.27793,-0.043066,0.047852,-0.089722,0.043066,0.071777,-0.070581,yes
1616135393.7534213,1,63.0,58.0,72.0,76.0,60.0,0.847351,0.128967,-0.510132,0.071289,-0.007634,0.007634,0.015267,8.59773,1.470239,4.311426,-0.053833,0.040674,-0.061011,0.015552,0.056226,-0.068188,yes
1616135393.763439,1,60.0,56.0,70.0,76.0,60.0,0.847473,0.128723,-0.51001,0.071533,-0.007634,0.007634,0.015267,8.575,1.449902,4.324585,-0.076563,0.026318,-0.05144,0.0,0.040674,-0.086133,yes
1616135393.773377,1,59.0,56.0,66.0,76.0,61.0,0.847534,0.128479,-0.509949,0.071838,-0.007634,0.0,0.015267,8.530737,1.423584,4.336548,-0.120825,0.007178,-0.043066,-0.021533,0.020337,-0.124414,yes
1616135393.7835069,1,61.0,58.0,72.0,78.0,60.0,0.847534,0.128235,-0.509888,0.072083,-0.007634,0.0,0.015267,8.505615,1.411621,4.355689,-0.144751,0.001196,-0.025122,-0.046655,0.00957,-0.13877,yes
1616135393.7935078,1,63.0,57.0,72.0,75.0,61.0,0.847595,0.127991,-0.509827,0.072388,-0.007634,0.0,0.015267,8.480494,1.422388,4.383203,-0.169873,0.019141,0.0,-0.08374,0.019141,-0.147144,yes
1616135393.8034077,1,60.0,58.0,71.0,75.0,61.0,0.847656,0.127747,-0.509705,0.072632,-0.015267,0.0,0.022901,8.462549,1.42478,4.398755,-0.186621,0.027515,0.010767,-0.102881,0.023926,-0.155518,yes
1616135393.81336,1,62.0,56.0,73.0,76.0,60.0,0.847778,0.12738,-0.509644,0.072876,-0.015267,0.0,0.022901,8.429052,1.403247,4.390381,-0.221313,0.014355,0.0,-0.10647,0.014355,-0.192603,yes
1616135393.8234155,1,61.0,56.0,73.0,74.0,59.0,0.847778,0.127014,-0.509644,0.07312,-0.015267,-0.007634,0.022901,8.381201,1.366162,4.372437,-0.269165,-0.013159,-0.019141,-0.10647,-0.004785,-0.247632,yes
1616135393.833387,1,61.0,58.0,73.0,77.0,62.0,0.847717,0.126709,-0.509766,0.073364,-0.007634,-0.015267,0.015267,8.368042,1.321899,4.354492,-0.283521,-0.050244,-0.035889,-0.089722,-0.035889,-0.272754,yes
1616135393.8435817,1,60.0,57.0,72.0,79.0,63.0,0.847656,0.126465,-0.509949,0.073608,-0.007634,-0.015267,0.015267,8.400342,1.296777,4.340137,-0.253613,-0.068188,-0.049048,-0.059814,-0.049048,-0.25481,yes
1616135393.8533866,1,63.0,57.0,70.0,78.0,59.0,0.847595,0.126282,-0.510071,0.073853,-0.007634,-0.007634,0.015267,8.431445,1.301563,4.3198,-0.224902,-0.057422,-0.066992,-0.033496,-0.034692,-0.235669,yes
1616135393.863806,1,60.0,58.0,74.0,74.0,63.0,0.847534,0.126099,-0.510193,0.073975,-0.015267,-0.007634,0.007634,8.455371,1.293188,4.295874,-0.202173,-0.061011,-0.089722,-0.002393,-0.031104,-0.226099,yes
1616135393.873363,1,61.0,57.0,72.0,79.0,60.0,0.847473,0.125854,-0.510376,0.074097,-0.015267,-0.007634,0.007634,8.454175,1.262085,4.259985,-0.205762,-0.086133,-0.123218,0.028711,-0.045459,-0.247632,yes
1616135393.8835807,1,60.0,58.0,74.0,76.0,65.0,0.84729,0.125671,-0.51062,0.074158,-0.007634,-0.022901,0.0,8.462549,1.225,4.231275,-0.19978,-0.119629,-0.147144,0.061011,-0.070581,-0.258398,yes
1616135393.8934317,1,60.0,59.0,73.0,74.0,61.0,0.847107,0.12561,-0.510986,0.074158,-0.007634,-0.030534,0.0,8.485278,1.202271,4.214526,-0.18064,-0.139966,-0.15791,0.084937,-0.087329,-0.248828,yes
1616135393.9033144,1,59.0,58.0,74.0,76.0,65.0,0.846863,0.12561,-0.511414,0.074097,0.0,-0.030534,-0.007634,8.553467,1.199878,4.212134,-0.117236,-0.141162,-0.151929,0.108862,-0.090918,-0.19021,yes
1616135393.9132936,1,61.0,57.0,73.0,76.0,61.0,0.846619,0.125732,-0.511841,0.074036,0.0,-0.022901,-0.007634,8.679077,1.205859,4.20376,0.002393,-0.137573,-0.150732,0.163892,-0.087329,-0.082544,yes
1616135393.923573,1,61.0,57.0,70.0,73.0,59.0,0.846375,0.125732,-0.512146,0.073975,0.0,-0.015267,-0.007634,8.75564,1.217822,4.198975,0.076563,-0.124414,-0.14834,0.192603,-0.076563,-0.014355,yes
1616135393.9332716,1,58.0,58.0,74.0,76.0,61.0,0.846252,0.125793,-0.51239,0.073914,0.0,-0.015267,-0.007634,8.781958,1.248926,4.192993,0.100488,-0.094507,-0.150732,0.197388,-0.046655,0.008374,yes
1616135393.9435108,1,61.0,58.0,76.0,75.0,62.0,0.846069,0.125854,-0.512634,0.073792,-0.007634,-0.015267,-0.015267,8.83938,1.246533,4.200171,0.155518,-0.098096,-0.137573,0.212939,-0.053833,0.063403,yes
1616135393.9533226,1,63.0,58.0,70.0,76.0,59.0,0.845947,0.125916,-0.512939,0.07373,0.0,-0.015267,-0.007634,8.892016,1.253711,4.206152,0.204565,-0.092114,-0.12561,0.223706,-0.052637,0.112451,yes
1616135393.9634864,1,63.0,57.0,72.0,80.0,60.0,0.845764,0.125977,-0.513184,0.073669,0.0,-0.022901,0.0,8.907568,1.280029,4.224097,0.217725,-0.066992,-0.101685,0.203369,-0.034692,0.13877,yes
1616135393.9733443,1,59.0,58.0,73.0,78.0,59.0,0.84552,0.125977,-0.51355,0.073669,-0.007634,-0.030534,0.0,8.905176,1.317114,4.24563,0.211743,-0.028711,-0.072974,0.166284,-0.007178,0.150732,yes
1616135393.9833426,1,60.0,58.0,73.0,77.0,61.0,0.845215,0.125977,-0.514038,0.073669,-0.007634,-0.038168,0.007634,8.883642,1.347021,4.280322,0.185425,0.001196,-0.028711,0.108862,0.008374,0.151929,yes
1616135393.9933932,1,61.0,58.0,70.0,78.0,63.0,0.844849,0.125854,-0.514709,0.073669,-0.015267,-0.053435,0.007634,8.856128,1.36377,4.303052,0.150732,0.022729,0.005981,0.057422,0.019141,0.13877,yes
1616135394.0034783,1,57.0,57.0,70.0,76.0,60.0,0.84436,0.125732,-0.515564,0.073608,-0.015267,-0.068702,0.007634,8.865698,1.368555,4.332959,0.151929,0.031104,0.052637,0.016748,0.013159,0.161499,yes
1616135394.013208,1,60.0,58.0,72.0,79.0,60.0,0.84375,0.12561,-0.516541,0.073486,-0.015267,-0.076336,0.007634,8.917139,1.361377,4.362866,0.193799,0.027515,0.101685,-0.004785,-0.003589,0.220117,yes
1616135394.0233262,1,59.0,58.0,70.0,78.0,59.0,0.843262,0.125427,-0.517517,0.073425,-0.015267,-0.068702,0.007634,8.951831,1.355396,4.385596,0.217725,0.026318,0.142358,-0.028711,-0.016748,0.258398,yes
1616135394.033331,1,63.0,58.0,72.0,76.0,62.0,0.842712,0.125183,-0.518433,0.073364,-0.015267,-0.068702,0.007634,8.936279,1.344629,4.380811,0.192603,0.021533,0.155518,-0.05144,-0.025122,0.24165,yes
1616135394.043224,1,62.0,56.0,74.0,74.0,61.0,0.842163,0.124939,-0.519348,0.073364,-0.022901,-0.076336,0.015267,8.888428,1.343433,4.362866,0.135181,0.027515,0.155518,-0.078955,-0.017944,0.19021,yes
1616135394.0532908,1,58.0,58.0,72.0,78.0,61.0,0.841553,0.124573,-0.520447,0.073303,-0.022901,-0.083969,0.015267,8.826221,1.330273,4.324585,0.062207,0.022729,0.137573,-0.095703,-0.017944,0.117236,yes
1616135394.0632644,1,60.0,57.0,79.0,73.0,62.0,0.840881,0.124146,-0.521667,0.073242,-0.030534,-0.091603,0.015267,8.772388,1.317114,4.273145,-0.002393,0.019141,0.108862,-0.099292,-0.011963,0.045459,yes
1616135394.0733385,1,59.0,58.0,70.0,76.0,58.0,0.840088,0.123657,-0.523071,0.073059,-0.038168,-0.099237,0.015267,8.766406,1.278833,4.21333,-0.022729,-0.007178,0.075366,-0.072974,-0.027515,0.00957,yes
1616135394.0833466,1,59.0,57.0,70.0,78.0,59.0,0.839294,0.123169,-0.524536,0.072937,-0.030534,-0.099237,0.015267,8.789136,1.222607,4.143945,-0.015552,-0.052637,0.033496,-0.021533,-0.059814,-0.005981,yes
1616135394.0932944,1,59.0,57.0,72.0,79.0,52.0,0.838501,0.122681,-0.525879,0.072815,-0.030534,-0.099237,0.015267,8.795117,1.181934,4.057813,-0.021533,-0.08374,-0.026318,0.033496,-0.071777,-0.040674,yes
1616135394.1035018,1,60.0,58.0,70.0,77.0,62.0,0.837708,0.122314,-0.527283,0.072754,-0.022901,-0.091603,0.015267,8.775976,1.169971,3.97168,-0.055029,-0.086133,-0.084937,0.070581,-0.057422,-0.095703,yes
1616135394.1132927,1,60.0,56.0,72.0,75.0,104.0,0.836914,0.122009,-0.528625,0.072632,-0.022901,-0.091603,0.015267,8.747266,1.172363,3.901099,-0.096899,-0.075366,-0.129199,0.088525,-0.034692,-0.149536,yes
1616135394.1233273,1,61.0,58.0,73.0,79.0,61.0,0.83606,0.121765,-0.529968,0.07251,-0.022901,-0.099237,0.007634,8.708984,1.17356,3.84248,-0.14834,-0.068188,-0.160303,0.092114,-0.019141,-0.208154,yes
1616135394.1334088,1,63.0,58.0,74.0,80.0,59.0,0.835205,0.121521,-0.531433,0.072327,-0.022901,-0.10687,0.007634,8.664721,1.175952,3.776685,-0.206958,-0.059814,-0.197388,0.098096,0.0,-0.27395,yes
1616135394.1434786,1,63.0,88.0,73.0,77.0,65.0,0.834229,0.121399,-0.53302,0.072083,-0.015267,-0.114504,0.007634,8.634814,1.18313,3.7073,-0.251221,-0.047852,-0.234473,0.110059,0.021533,-0.327783,yes
1616135394.153308,1,64.0,57.0,72.0,75.0,61.0,0.83313,0.121277,-0.534729,0.071838,-0.015267,-0.122137,0.0,8.615674,1.184326,3.643897,-0.285913,-0.043066,-0.261987,0.119629,0.033496,-0.368457,yes
1616135394.1633866,1,61.0,57.0,73.0,74.0,61.0,0.832031,0.121277,-0.53656,0.071594,-0.015267,-0.129771,0.0,8.580981,1.185522,3.590064,-0.33855,-0.038281,-0.278735,0.112451,0.044263,-0.42229,yes
1616135394.173199,1,64.0,57.0,72.0,78.0,62.0,0.830811,0.121399,-0.538452,0.071228,-0.007634,-0.145038,-0.007634,8.522364,1.1927,3.536231,-0.415112,-0.0323,-0.291895,0.093311,0.055029,-0.49646,yes
1616135394.183265,1,61.0,58.0,72.0,76.0,61.0,0.829407,0.121643,-0.540588,0.070679,-0.007634,-0.167939,-0.022901,8.475708,1.1927,3.474023,-0.479712,-0.035889,-0.307446,0.08374,0.057422,-0.56106,yes
1616135394.1932998,1,63.0,57.0,72.0,78.0,61.0,0.827881,0.122131,-0.542908,0.070007,0.0,-0.175573,-0.038168,8.49126,1.181934,3.405835,-0.485693,-0.053833,-0.324194,0.104077,0.045459,-0.574219,yes
1616135394.20349,1,60.0,58.0,73.0,78.0,62.0,0.826294,0.122864,-0.545227,0.069275,0.007634,-0.183206,-0.045802,8.557055,1.161597,3.335254,-0.439038,-0.087329,-0.340942,0.14834,0.019141,-0.541919,yes
1616135394.2132487,1,60.0,58.0,69.0,75.0,61.0,0.824707,0.123657,-0.547607,0.068604,0.022901,-0.175573,-0.045802,8.592944,1.154419,3.240747,-0.424683,-0.107666,-0.381616,0.198584,0.011963,-0.545508,yes
1616135394.223278,1,63.0,58.0,70.0,76.0,61.0,0.823059,0.124634,-0.549927,0.067932,0.022901,-0.183206,-0.045802,8.577393,1.187915,3.133081,-0.459375,-0.089722,-0.434253,0.229687,0.046655,-0.593359,yes
1616135394.2332478,1,63.0,58.0,72.0,75.0,60.0,0.821289,0.125732,-0.552429,0.067139,0.022901,-0.19084,-0.053435,8.578588,1.241748,3.044556,-0.478516,-0.055029,-0.46416,0.244043,0.090918,-0.614893,yes
1616135394.2432334,1,65.0,58.0,75.0,73.0,67.0,0.819519,0.12677,-0.554932,0.066162,0.015267,-0.19084,-0.061069,8.622851,1.281226,2.964404,-0.45459,-0.034692,-0.484497,0.270361,0.117236,-0.595752,yes
1616135394.2533624,1,63.0,58.0,73.0,75.0,64.0,0.817688,0.127686,-0.557495,0.065186,0.007634,-0.19084,-0.053435,8.646777,1.290796,2.871094,-0.451001,-0.043066,-0.516797,0.30625,0.119629,-0.60293,yes
1616135394.263272,1,59.0,57.0,74.0,79.0,60.0,0.815857,0.128479,-0.560059,0.064209,0.007634,-0.198473,-0.053435,8.633618,1.295581,2.790942,-0.483301,-0.053833,-0.535937,0.318213,0.117236,-0.638818,yes
1616135394.2731342,1,60.0,58.0,84.0,76.0,59.0,0.813965,0.129333,-0.562744,0.06311,0.0,-0.21374,-0.061069,8.571411,1.313525,2.717969,-0.565845,-0.052637,-0.545508,0.300269,0.126807,-0.716577,yes
1616135394.28321,1,59.0,57.0,72.0,76.0,63.0,0.811951,0.130188,-0.565613,0.061829,0.0,-0.229008,-0.068702,8.515185,1.324292,2.654565,-0.643604,-0.061011,-0.541919,0.276343,0.123218,-0.785962,yes
1616135394.2931793,1,61.0,58.0,76.0,79.0,64.0,0.809753,0.131165,-0.568726,0.060364,0.0,-0.244275,-0.083969,8.505615,1.31831,2.600732,-0.675903,-0.089722,-0.521582,0.259595,0.094507,-0.81228,yes
1616135394.3026223,1,59.0,58.0,72.0,75.0,61.0,0.807434,0.132202,-0.571899,0.058716,-0.007634,-0.259542,-0.091603,8.540308,1.317114,2.539722,-0.661548,-0.11604,-0.50603,0.263184,0.066992,-0.794336,yes
1616135394.313301,1,60.0,58.0,76.0,75.0,60.0,0.805054,0.13324,-0.575195,0.056946,-0.007634,-0.259542,-0.099237,8.633618,1.305151,2.429663,-0.590967,-0.154321,-0.537134,0.330176,0.038281,-0.741699,yes
1616135394.32345,1,64.0,58.0,74.0,78.0,63.0,0.802734,0.134216,-0.57843,0.055176,-0.007634,-0.244275,-0.099237,8.74248,1.246533,2.229883,-0.502441,-0.239258,-0.659155,0.49646,-0.010767,-0.704614,yes
1616135394.3331647,1,60.0,58.0,74.0,74.0,58.0,0.800476,0.135254,-0.581482,0.053467,-0.007634,-0.21374,-0.10687,8.953028,1.144849,1.937988,-0.311035,-0.367261,-0.875684,0.791943,-0.084937,-0.601733,yes
1616135394.3432393,1,61.0,58.0,72.0,76.0,60.0,0.798523,0.136475,-0.583923,0.052002,0.007634,-0.145038,-0.122137,9.241333,0.998901,1.556372,-0.035889,-0.540723,-1.193897,1.21543,-0.181836,-0.453394,yes
1616135394.35268,1,65.0,58.0,74.0,78.0,62.0,0.797302,0.137817,-0.585449,0.050781,0.030534,-0.045802,-0.129771,9.602612,0.840991,1.131689,0.31582,-0.729736,-1.577905,1.725049,-0.282324,-0.253613,yes
1616135394.362594,1,61.0,58.0,75.0,75.0,58.0,0.79718,0.139526,-0.585205,0.049866,0.045802,0.10687,-0.152672,10.117017,0.823047,0.840991,0.836206,-0.784766,-1.863818,2.161694,-0.29668,0.14834,yes
1616135394.3725123,1,59.0,57.0,73.0,74.0,62.0,0.799011,0.141541,-0.582336,0.048828,0.045802,0.335878,-0.198473,10.70918,0.884058,0.596948,1.453491,-0.775195,-2.162891,2.63064,-0.253613,0.631641,yes
1616135394.3825722,1,63.0,58.0,74.0,77.0,63.0,0.803223,0.144043,-0.57605,0.047546,0.045802,0.610687,-0.282443,11.320483,0.893628,0.400757,2.116235,-0.836206,-2.488281,3.172559,-0.275146,1.105371,yes
1616135394.39317,1,61.0,58.0,72.0,77.0,61.0,0.810242,0.147339,-0.565369,0.045898,0.076336,0.954198,-0.396947,12.247607,0.881665,0.279932,3.135474,-0.948657,-2.828027,3.898706,-0.369653,1.839893,yes
1616135394.4024558,1,59.0,58.0,74.0,76.0,59.0,0.821106,0.152039,-0.548401,0.043823,0.114504,1.496183,-0.572519,13.926001,0.832617,0.165088,4.969385,-1.142456,-3.286206,5.148828,-0.577808,3.153418,yes
1616135394.412491,1,61.0,58.0,73.0,73.0,62.0,0.837402,0.158386,-0.521484,0.041138,0.152672,2.29771,-0.80916,15.429736,0.647192,-0.078955,6.742285,-1.53125,-4.056616,6.900195,-0.848169,3.988428,yes
1616135394.4224477,1,58.0,57.0,74.0,77.0,58.0,0.859985,0.16626,-0.480957,0.037598,0.167939,3.29771,-1.091603,16.536304,0.287109,-0.88645,8.305835,-2.160498,-5.609399,9.49375,-1.018042,3.730029,yes
1616135394.4325316,1,58.0,58.0,74.0,79.0,62.0,0.886597,0.175354,-0.426697,0.033325,0.21374,4.19084,-1.343511,15.859204,-0.829028,-2.877075,8.329761,-3.597241,-8.505615,12.364843,-1.23457,0.497656,yes
1616135394.4426465,1,56.0,56.0,74.0,77.0,63.0,0.913696,0.184753,-0.360657,0.030029,0.305344,4.801527,-1.389313,13.441504,-2.025317,-4.864111,6.873877,-5.121314,-11.444898,13.452271,-1.189111,-4.696631,yes
1616135394.4532351,1,55.0,58.0,70.0,75.0,62.0,0.937683,0.19281,-0.287537,0.029663,0.244275,4.877862,-1.053435,9.284399,-1.265674,-5.895312,3.886743,-4.641602,-13.3458,11.053711,0.550293,-9.605005,yes
1616135394.4632585,1,53.0,58.0,73.0,74.0,59.0,0.955505,0.19574,-0.217712,0.034912,-0.068702,4.267176,-0.328244,4.544702,1.195093,-5.306738,0.332568,-2.320801,-13.425952,6.054419,3.082837,-11.812159,yes
1616135394.473205,1,53.0,58.0,72.0,77.0,59.0,0.967407,0.191772,-0.158813,0.04541,-0.389313,3.366412,0.236641,-0.062207,3.253906,-3.332861,-3.24314,-0.240454,-11.916235,0.423486,4.283911,-11.576489,yes
1616135394.483401,1,53.0,57.0,73.0,75.0,58.0,0.974609,0.184204,-0.113647,0.056885,-0.396947,2.366412,0.396947,-3.999194,3.546997,-0.638818,-6.375024,0.154321,-9.520068,-4.282715,3.24314,-10.11941,yes
1616135394.4924457,1,53.0,58.0,77.0,78.0,60.0,0.978271,0.178955,-0.082153,0.064392,-0.083969,1.442748,0.19084,-6.709985,3.088818,2.374634,-8.510401,-0.238062,-6.664526,-7.369141,1.360181,-7.79143,yes
1616135394.502448,1,54.0,58.0,75.0,79.0,60.0,0.979614,0.178894,-0.062439,0.065918,0.129771,0.70229,-0.068702,-8.024707,3.700122,5.349805,-9.454272,0.345728,-3.744385,-8.979345,0.653174,-4.736108,yes
1616135394.5127463,1,54.0,57.0,74.0,79.0,63.0,0.980164,0.180359,-0.051941,0.063354,0.015267,0.221374,-0.198473,-8.134766,5.054321,7.951734,-9.356176,1.653271,-1.156811,-9.374121,0.961816,-1.667627,yes
1616135394.5226798,1,54.0,58.0,74.0,79.0,59.0,0.980957,0.178711,-0.047302,0.058899,-0.251908,-0.030534,-0.251908,-7.628736,5.891724,9.863403,-8.743677,2.509815,0.733325,-9.027197,1.207056,0.552686,yes
1616135394.532509,1,54.0,58.0,74.0,76.0,60.0,0.9823,0.173401,-0.046265,0.053223,-0.419847,-0.19084,-0.290076,-7.050928,5.615381,11.127881,-8.121607,2.32439,1.959522,-8.462549,0.775195,1.725049,yes
1616135394.5425074,1,53.0,58.0,70.0,78.0,61.0,0.983643,0.166931,-0.048157,0.046814,-0.374046,-0.381679,-0.312977,-6.646582,4.580591,11.919825,-7.728027,1.40564,2.711987,-8.023511,-0.168677,2.149731,yes
1616135394.5525608,1,55.0,57.0,70.0,76.0,59.0,0.984436,0.162292,-0.05365,0.040405,-0.19084,-0.625954,-0.267176,-6.286499,3.514697,12.459351,-7.449292,0.424683,3.231177,-7.72085,-1.107764,2.290894,yes
1616135394.5624826,1,54.0,57.0,70.0,75.0,61.0,0.984253,0.16095,-0.063416,0.034912,0.030534,-0.885496,-0.175573,-5.868994,2.713184,12.844556,-7.20166,-0.34812,3.631934,-7.506714,-1.843481,2.32439,yes
1616135394.5724535,1,54.0,58.0,74.0,76.0,61.0,0.983032,0.163208,-0.077698,0.030396,0.244275,-1.160305,-0.091603,-5.425171,2.204761,13.008448,-7.018628,-0.892432,3.848462,-7.394263,-2.337549,2.172461,yes
1616135394.582549,1,54.0,58.0,75.0,77.0,63.0,0.980469,0.169067,-0.096802,0.026184,0.450382,-1.473282,-0.045802,-4.926318,2.06958,12.964185,-6.872681,-1.129297,3.908276,-7.346411,-2.506226,1.876978,yes
1616135394.5924764,1,55.0,58.0,69.0,74.0,58.0,0.976318,0.177795,-0.120911,0.021484,0.587786,-1.78626,-0.038168,-4.378418,2.404541,12.718946,-6.766211,-0.946265,3.825732,-7.354785,-2.226294,1.497754,yes
1616135394.6025488,1,54.0,57.0,72.0,75.0,60.0,0.970459,0.188171,-0.149902,0.016235,0.618321,-2.099237,-0.015267,-3.574512,3.173755,12.24043,-6.485083,-0.35769,3.574512,-7.175342,-1.492969,1.104175,yes
1616135394.6124322,1,54.0,58.0,70.0,75.0,59.0,0.962891,0.197815,-0.183289,0.010803,0.496183,-2.290076,0.045802,-2.048047,4.364062,11.810962,-5.548388,0.668726,3.435742,-6.433642,-0.418701,1.205859,yes
1616135394.6224008,1,55.0,53.0,95.0,79.0,59.0,0.954224,0.204041,-0.218567,0.006165,0.267176,-2.305344,0.167939,-0.314624,5.28999,11.184107,-4.42627,1.500147,3.135474,-5.453882,0.488086,1.296777,yes
1616135394.6324391,1,54.0,58.0,74.0,79.0,60.0,0.944824,0.206116,-0.254395,0.003174,0.083969,-2.312977,0.328244,1.00249,5.495752,10.200757,-3.720459,1.693945,2.502637,-4.62605,0.937891,0.829028,yes
1616135394.6425853,1,57.0,58.0,70.0,78.0,61.0,0.934387,0.2052,-0.291077,0.001953,0.0,-2.343511,0.458015,2.247827,5.20625,9.022412,-3.090015,1.458276,1.708301,-3.672607,1.035986,0.14834,yes
1616135394.652378,1,55.0,57.0,73.0,77.0,63.0,0.922729,0.20282,-0.327637,0.002258,-0.022901,-2.282443,0.534351,3.592456,4.78396,7.901489,-2.341138,1.129297,1.012061,-2.603125,0.957031,-0.284717,yes
1616135394.662629,1,56.0,56.0,73.0,75.0,61.0,0.910217,0.199829,-0.362671,0.003601,0.0,-2.175573,0.572519,4.51001,4.268359,6.671704,-1.973877,0.72854,0.23208,-1.716675,0.857739,-0.890039,yes
1616135394.6724205,1,54.0,57.0,72.0,78.0,64.0,0.896729,0.197266,-0.396057,0.005188,0.038168,-2.10687,0.534351,5.306738,3.853247,5.508911,-1.673608,0.425879,-0.452197,-0.898413,0.800317,-1.31831,yes
1616135394.6824296,1,54.0,61.0,69.0,78.0,61.0,0.882751,0.195312,-0.427185,0.006042,0.038168,-1.938931,0.435115,6.78894,3.768311,4.648779,-0.624463,0.439038,-0.825439,0.145947,0.790747,-0.783569,yes
1616135394.6925583,1,54.0,58.0,74.0,80.0,59.0,0.869995,0.193054,-0.453674,0.00647,-0.015267,-1.564885,0.351145,8.720947,3.671411,3.871192,0.959424,0.436646,-1.163989,1.398462,0.643604,0.305054,yes
1616135394.7026105,1,56.0,58.0,73.0,78.0,61.0,0.859802,0.190125,-0.473755,0.007263,-0.068702,-1.091603,0.305344,10.406519,3.459668,3.045752,2.394971,0.322998,-1.644897,2.592358,0.446216,1.272852,yes
1616135394.7125094,1,54.0,58.0,73.0,64.0,61.0,0.853027,0.186768,-0.487183,0.00885,-0.099237,-0.625954,0.274809,11.440112,3.139062,2.238257,3.26228,0.100488,-2.225098,3.535034,0.276343,1.739404,yes
1616135394.722515,1,55.0,58.0,69.0,79.0,61.0,0.849609,0.18335,-0.494324,0.011169,-0.099237,-0.19084,0.236641,12.028687,2.749072,1.504932,3.756348,-0.194995,-2.845972,4.336548,0.12561,1.848267,yes
1616135394.7325842,1,58.0,58.0,72.0,80.0,63.0,0.849548,0.180298,-0.495422,0.014343,-0.083969,0.259542,0.183206,12.785937,2.40813,0.912769,4.484888,-0.45459,-3.438135,5.249316,-0.014355,2.138965,yes
1616135394.7423494,1,55.0,61.0,72.0,76.0,60.0,0.853577,0.177795,-0.489258,0.018188,-0.083969,0.839695,0.099237,13.776464,2.207153,0.41272,5.526855,-0.592163,-4.074561,6.373828,-0.034692,2.616284,yes
1616135394.752411,1,57.0,58.0,73.0,74.0,59.0,0.862427,0.176025,-0.473999,0.022278,-0.083969,1.541985,-0.038168,14.969165,2.026514,-0.147144,6.879858,-0.741699,-4.934692,7.929004,0.022729,3.057715,yes
1616135394.7625053,1,56.0,58.0,49.0,78.0,61.0,0.876648,0.17511,-0.447327,0.026184,-0.091603,2.419847,-0.244275,16.196558,1.800415,-0.90918,8.419482,-0.978564,-6.184814,10.029688,0.193799,3.07207,yes
1616135394.7723722,1,54.0,58.0,73.0,77.0,64.0,0.896118,0.17511,-0.406677,0.029175,-0.10687,3.40458,-0.503817,16.599707,1.24773,-2.300464,9.356176,-1.594653,-8.256787,12.488062,0.449805,1.433154,yes
1616135394.7822888,1,55.0,58.0,75.0,75.0,59.0,0.919067,0.175537,-0.351379,0.031128,-0.122137,4.29771,-0.732824,15.353174,0.49646,-4.233667,8.915942,-2.451196,-11.008252,14.128174,0.906787,-2.49187,yes
1616135394.7924242,1,54.0,57.0,75.0,76.0,63.0,0.942139,0.174683,-0.284119,0.033325,-0.229008,4.801527,-0.679389,12.358862,0.540723,-5.991015,6.997095,-2.499048,-13.610181,13.384082,2.141357,-7.529443,yes
1616135394.8025763,1,53.0,56.0,73.0,75.0,59.0,0.961548,0.169128,-0.212646,0.039062,-0.519084,4.70229,-0.229008,7.9625,1.835107,-6.731519,3.824536,-1.189111,-15.082812,9.60979,4.050635,-11.606397,yes
1616135394.8124957,1,52.0,58.0,74.0,78.0,61.0,0.975342,0.157104,-0.146362,0.049988,-0.839695,3.984733,0.343511,2.725147,3.111548,-5.749365,-0.226099,0.251221,-14.643774,3.698926,4.927515,-13.285986,yes
1616135394.822364,1,52.0,58.0,72.0,75.0,63.0,0.983398,0.141724,-0.093445,0.064026,-0.763359,2.870229,0.610687,-2.150928,2.173657,-3.352002,-4.12959,-0.440234,-12.586157,-1.870996,2.829224,-12.81106,yes
1616135394.8325715,1,52.0,58.0,74.0,76.0,61.0,0.986877,0.131775,-0.056458,0.074158,-0.129771,1.740458,0.335878,-5.681177,0.368457,0.031104,-6.963599,-2.098291,-9.365747,-5.642896,-0.403149,-10.419678,yes
1616135394.8424163,1,53.0,57.0,72.0,76.0,59.0,0.98761,0.132263,-0.034302,0.077148,0.343511,0.78626,0.007634,-7.558154,1.027612,3.996802,-8.421875,-1.47981,-5.437134,-7.80459,-1.167578,-6.354688,yes
1616135394.8523846,1,54.0,58.0,76.0,78.0,33.0,0.987366,0.13678,-0.024414,0.075562,0.19084,0.122137,-0.129771,-8.115625,3.34602,7.622754,-8.790332,0.734522,-1.796826,-8.74248,-0.062207,-2.136572,yes
1616135394.862466,1,53.0,56.0,73.0,76.0,63.0,0.987671,0.137146,-0.022461,0.071228,-0.19084,-0.21374,-0.251908,-7.763916,4.671509,10.235449,-8.389575,2.046851,0.814673,-8.615674,0.595752,0.794336,yes
1616135394.872377,1,54.0,58.0,70.0,76.0,61.0,0.98877,0.132263,-0.024658,0.06427,-0.396947,-0.389313,-0.396947,-7.151416,4.231275,11.936572,-7.79502,1.69873,2.49187,-8.025904,0.025122,2.326782,yes
1616135394.8824766,1,53.0,58.0,72.0,78.0,59.0,0.989929,0.125977,-0.030579,0.055969,-0.328244,-0.633588,-0.427481,-6.651367,2.873486,12.962988,-7.3823,0.461768,3.493164,-7.537817,-1.199878,2.93689,yes
1616135394.8925033,1,54.0,58.0,73.0,75.0,62.0,0.990417,0.122498,-0.041321,0.048035,-0.045802,-0.961832,-0.366412,-6.290088,1.226196,13.507299,-7.206445,-1.112549,4.035083,-7.312915,-2.680884,2.959619,yes
1616135394.902325,1,54.0,57.0,75.0,76.0,62.0,0.989685,0.124268,-0.057678,0.040955,0.29771,-1.351145,-0.267176,-6.163281,0.126807,13.702295,-7.381104,-2.237061,4.270752,-7.536621,-3.722852,2.652173,yes
1616135394.9124272,1,53.0,56.0,74.0,79.0,63.0,0.987305,0.131897,-0.080994,0.034302,0.618321,-1.839695,-0.221374,-5.991015,-0.311035,13.522852,-7.64668,-2.808887,4.192993,-7.909863,-4.173852,1.983447,yes
1616135394.922351,1,54.0,58.0,72.0,74.0,60.0,0.982788,0.144592,-0.111511,0.026367,0.847328,-2.267176,-0.290076,-5.172754,0.137573,13.104151,-7.395459,-2.589966,3.95852,-7.820142,-3.770703,1.295581,yes
1616135394.932409,1,54.0,55.0,72.0,77.0,63.0,0.976013,0.159851,-0.146851,0.016479,0.870229,-2.458015,-0.381679,-3.387891,1.408032,12.686646,-6.248218,-1.601831,3.810181,-6.920532,-2.633032,1.134082,yes
1616135394.942358,1,54.0,57.0,73.0,74.0,62.0,0.967529,0.173523,-0.183655,0.006348,0.671756,-2.419847,-0.328244,-0.85415,2.970386,12.327759,-4.358081,-0.29668,3.779077,-5.374927,-1.33147,1.638916,yes
1616135394.9524975,1,54.0,57.0,72.0,75.0,61.0,0.958496,0.182495,-0.218994,-0.001831,0.389313,-2.221374,-0.160305,1.626953,4.10686,11.737988,-2.479907,0.669922,3.530249,-3.776685,-0.399561,2.150928,yes
1616135394.9624505,1,54.0,56.0,74.0,75.0,61.0,0.949524,0.186829,-0.251709,-0.00708,0.19084,-2.015267,0.038168,3.485986,4.550683,10.786939,-1.172363,1.038379,2.912964,-2.506226,0.068188,2.154517,yes
1616135394.9723284,1,54.0,58.0,72.0,78.0,60.0,0.940674,0.188049,-0.282227,-0.009399,0.10687,-1.877863,0.221374,4.679883,4.471728,9.539209,-0.488086,0.952246,1.993018,-1.558765,0.250024,1.618579,yes
1616135394.9823406,1,54.0,57.0,73.0,78.0,60.0,0.931335,0.187866,-0.311707,-0.008972,0.083969,-1.801527,0.389313,5.501733,4.316211,8.228076,-0.154321,0.831421,1.024023,-0.805103,0.440234,0.958228,yes
1616135394.992345,1,54.0,58.0,72.0,74.0,64.0,0.92157,0.186768,-0.340271,-0.00647,0.076336,-1.732824,0.503817,6.162085,4.208545,7.027002,0.039478,0.790747,0.179443,-0.173462,0.668726,0.424683,yes
1616135395.0021763,1,54.0,58.0,74.0,80.0,59.0,0.91156,0.18512,-0.367065,-0.003418,0.045802,-1.59542,0.496183,6.839185,4.2875,6.08313,0.293091,0.954639,-0.403149,0.360083,0.982153,0.252417,yes
1616135395.012457,1,53.0,58.0,74.0,75.0,63.0,0.902161,0.183594,-0.390259,-0.001526,0.007634,-1.358779,0.366412,7.677783,4.355689,5.366553,0.782373,1.096997,-0.785962,0.942676,1.167578,0.421094,yes
1616135395.0223775,1,54.0,58.0,73.0,79.0,61.0,0.894287,0.182251,-0.40863,-0.001221,-0.022901,-1.038168,0.206107,8.6719,4.283911,4.800708,1.513306,1.079053,-1.074268,1.634131,1.126904,0.813477,yes
1616135395.0315535,1,73.0,57.0,75.0,78.0,58.0,0.888428,0.180908,-0.421814,-0.001282,-0.045802,-0.687023,0.137405,9.494946,3.965698,4.257593,2.15332,0.803906,-1.412817,2.325586,0.869702,1.053931,yes
1616135395.0414855,1,54.0,57.0,72.0,73.0,63.0,0.884583,0.179504,-0.430481,-0.000549,-0.038168,-0.396947,0.129771,9.833496,3.592456,3.7396,2.371045,0.474927,-1.796826,2.787354,0.6448,0.940283,yes
1616135395.0522614,1,61.0,56.0,77.0,76.0,61.0,0.882324,0.178284,-0.435547,0.001038,-0.007634,-0.175573,0.145038,9.721045,3.213233,3.31731,2.184424,0.13877,-2.141357,2.97876,0.470142,0.529956,yes
1616135395.062259,1,54.0,57.0,74.0,78.0,60.0,0.881104,0.17749,-0.438232,0.003601,0.038168,-0.053435,0.167939,9.218603,2.861523,2.999097,1.63772,-0.172266,-2.4177,2.899805,0.35769,-0.122021,yes
1616135395.0716665,1,54.0,59.0,76.0,78.0,62.0,0.880371,0.177124,-0.43988,0.006958,0.076336,-0.015267,0.198473,8.524755,2.604321,2.822046,0.90918,-0.391187,-2.569629,2.606714,0.319409,-0.826636,yes
1616135395.0815651,1,55.0,58.0,73.0,75.0,61.0,0.879578,0.177002,-0.441406,0.010742,0.083969,-0.038168,0.229008,7.864404,2.666528,2.869897,0.216528,-0.291895,-2.495459,2.11145,0.49646,-1.284814,yes
1616135395.0923066,1,54.0,57.0,73.0,78.0,64.0,0.878784,0.176636,-0.443054,0.014099,0.045802,-0.068702,0.221374,7.375122,2.918945,3.057715,-0.303857,0.0,-2.28252,1.581494,0.776392,-1.481006,yes
1616135395.1023602,1,54.0,44.0,72.0,78.0,61.0,0.878113,0.175842,-0.44458,0.016235,-0.030534,-0.076336,0.167939,7.070068,3.185718,3.310132,-0.636426,0.300269,-2.008569,1.116138,1.012061,-1.501343,yes
1616135395.1123536,1,54.0,58.0,77.0,75.0,61.0,0.877808,0.174255,-0.445801,0.016724,-0.114504,-0.061069,0.091603,7.023413,3.228784,3.51709,-0.703418,0.376831,-1.790845,0.897217,1.016846,-1.414014,yes
1616135396.7503,1,54.0,58.0,76.0,76.0,60.0,0.897339,0.144897,-0.416809,-0.004639,-0.007634,0.0,0.0,7.29856,2.564844,5.981445,-0.017944,-0.020337,-0.001196,-0.008374,-0.016748,-0.019141,yes
1616135396.7602663,1,54.0,57.0,76.0,79.0,61.0,0.897339,0.144897,-0.416809,-0.004639,-0.007634,-0.007634,0.0,7.299756,2.576807,5.98623,-0.016748,-0.008374,0.002393,-0.010767,-0.005981,-0.013159,yes
1616135396.770362,1,56.0,58.0,74.0,79.0,63.0,0.897339,0.144897,-0.41687,-0.004639,-0.007634,-0.007634,0.0,7.303345,2.597144,5.992212,-0.014355,0.010767,0.00957,-0.016748,0.00957,-0.001196,yes
1616135396.7802796,1,57.0,58.0,74.0,78.0,60.0,0.897278,0.144836,-0.416931,-0.0047,-0.007634,-0.007634,0.0,7.316504,2.615088,5.987427,-0.002393,0.028711,0.005981,-0.008374,0.025122,0.008374,yes
1616135396.7895246,1,55.0,58.0,73.0,76.0,61.0,0.897217,0.144714,-0.417114,-0.004761,-0.015267,-0.015267,0.0,7.358374,2.64021,5.987427,0.035889,0.056226,0.008374,0.010767,0.046655,0.046655,yes
1616135396.7996254,1,55.0,58.0,74.0,75.0,64.0,0.897217,0.144531,-0.417175,-0.004761,-0.015267,-0.007634,0.0,7.405029,2.643799,5.982642,0.081348,0.062207,0.003589,0.043066,0.047852,0.078955,yes
1616135396.8094947,1,57.0,58.0,74.0,80.0,63.0,0.897278,0.144287,-0.417236,-0.004822,-0.022901,0.0,0.0,7.425366,2.619873,5.985034,0.100488,0.04187,0.004785,0.056226,0.025122,0.088525,yes
1616135396.8195918,1,55.0,58.0,73.0,75.0,61.0,0.897339,0.144043,-0.417175,-0.004822,-0.015267,0.0,0.0,7.406226,2.582788,6.002978,0.082544,0.00957,0.020337,0.037085,-0.005981,0.076563,yes
1616135396.8295767,1,54.0,58.0,73.0,76.0,59.0,0.897339,0.14386,-0.417114,-0.004761,-0.007634,-0.007634,0.0,7.358374,2.564844,6.0281,0.034692,-0.003589,0.044263,-0.00957,-0.019141,0.05144,yes
1616135396.8395236,1,59.0,58.0,75.0,78.0,60.0,0.897339,0.143799,-0.417175,-0.0047,-0.007634,-0.015267,0.007634,7.324878,2.572021,6.078345,0.0,0.003589,0.094507,-0.070581,-0.020337,0.058618,yes
1616135396.8495986,1,56.0,58.0,66.0,78.0,61.0,0.897278,0.143738,-0.417297,-0.004639,-0.007634,-0.022901,0.007634,7.318896,2.593555,6.126196,-0.005981,0.027515,0.144751,-0.114844,-0.00957,0.090918,yes
1616135396.8596313,1,55.0,58.0,76.0,76.0,63.0,0.897217,0.143616,-0.41748,-0.004578,-0.007634,-0.022901,0.007634,7.315308,2.599536,6.153711,-0.013159,0.035889,0.174658,-0.143555,-0.007178,0.105273,yes
1616135396.869472,1,57.0,57.0,74.0,79.0,62.0,0.897095,0.143433,-0.417786,-0.004517,-0.007634,-0.030534,0.007634,7.312915,2.592358,6.156104,-0.019141,0.0323,0.18064,-0.150732,-0.011963,0.104077,yes
1616135396.879713,1,58.0,58.0,75.0,80.0,62.0,0.896973,0.143311,-0.418152,-0.004517,-0.007634,-0.030534,0.007634,7.320093,2.576807,6.145337,-0.017944,0.019141,0.174658,-0.144751,-0.022729,0.096899,yes
1616135396.889572,1,56.0,58.0,73.0,75.0,63.0,0.89679,0.143188,-0.418518,-0.004456,-0.007634,-0.030534,0.007634,7.342822,2.564844,6.128589,0.0,0.010767,0.163892,-0.124414,-0.031104,0.101685,yes
1616135396.899511,1,56.0,58.0,70.0,74.0,62.0,0.896606,0.143066,-0.419006,-0.004395,-0.007634,-0.030534,0.007634,7.363159,2.545703,6.095093,0.011963,-0.003589,0.137573,-0.094507,-0.039478,0.090918,yes
1616135396.909644,1,54.0,57.0,72.0,76.0,63.0,0.896423,0.142944,-0.419434,-0.004333,-0.007634,-0.030534,0.007634,7.381104,2.530151,6.058008,0.022729,-0.016748,0.10647,-0.063403,-0.045459,0.076563,yes
1616135396.9196968,1,55.0,56.0,72.0,74.0,63.0,0.89624,0.142761,-0.419922,-0.004211,-0.007634,-0.030534,0.007634,7.400244,2.513403,6.019727,0.034692,-0.028711,0.075366,-0.031104,-0.050244,0.063403,yes
1616135396.9295132,1,56.0,58.0,74.0,74.0,61.0,0.895996,0.1427,-0.420471,-0.004089,-0.007634,-0.038168,0.007634,7.416992,2.505029,5.980249,0.044263,-0.034692,0.044263,0.0,-0.049048,0.050244,yes
1616135396.939687,1,55.0,58.0,73.0,78.0,62.0,0.895752,0.142578,-0.420959,-0.004028,-0.007634,-0.038168,0.007634,7.438525,2.505029,5.962305,0.058618,-0.031104,0.034692,0.014355,-0.045459,0.056226,yes
1616135396.949504,1,54.0,58.0,72.0,76.0,63.0,0.895569,0.142395,-0.421448,-0.003906,-0.007634,-0.038168,0.007634,7.455274,2.528955,5.940772,0.068188,-0.002393,0.019141,0.028711,-0.015552,0.062207,yes
1616135396.9596024,1,54.0,57.0,74.0,79.0,61.0,0.895386,0.142151,-0.421997,-0.003845,-0.015267,-0.030534,0.015267,7.454077,2.554077,5.918042,0.058618,0.027515,0.003589,0.031104,0.017944,0.052637,yes
1616135396.969597,1,56.0,58.0,74.0,77.0,63.0,0.895203,0.141907,-0.422424,-0.003784,-0.022901,-0.030534,0.007634,7.440918,2.568433,5.900098,0.039478,0.046655,-0.007178,0.025122,0.040674,0.037085,yes
1616135396.97963,1,55.0,57.0,74.0,80.0,59.0,0.89502,0.141541,-0.422913,-0.003784,-0.022901,-0.038168,0.015267,7.42417,2.558862,5.878564,0.015552,0.044263,-0.022729,0.021533,0.045459,0.008374,yes
1616135396.989505,1,54.0,57.0,73.0,75.0,61.0,0.894836,0.141174,-0.423462,-0.003723,-0.022901,-0.038168,0.015267,7.403833,2.536133,5.866601,-0.011963,0.028711,-0.027515,0.00957,0.035889,-0.017944,yes
1616135396.9996142,1,56.0,57.0,75.0,76.0,62.0,0.894592,0.140747,-0.424072,-0.003662,-0.022901,-0.045802,0.015267,7.385889,2.516992,5.858228,-0.039478,0.017944,-0.027515,-0.005981,0.028711,-0.040674,yes
1616135397.0096004,1,56.0,57.0,70.0,74.0,62.0,0.894348,0.140381,-0.424744,-0.00354,-0.022901,-0.053435,0.015267,7.377515,2.515796,5.848657,-0.057422,0.025122,-0.028711,-0.016748,0.038281,-0.053833,yes
1616135397.0195436,1,55.0,58.0,73.0,76.0,60.0,0.894043,0.139954,-0.425537,-0.00354,-0.022901,-0.053435,0.015267,7.395459,2.518188,5.841479,-0.05144,0.035889,-0.025122,-0.016748,0.046655,-0.044263,yes
1616135397.0295374,1,56.0,58.0,73.0,75.0,60.0,0.893738,0.139465,-0.42627,-0.00354,-0.030534,-0.053435,0.015267,7.422974,2.511011,5.821143,-0.033496,0.038281,-0.034692,0.0,0.049048,-0.035889,yes
1616135397.0394747,1,55.0,57.0,72.0,80.0,61.0,0.893433,0.138977,-0.427063,-0.00354,-0.030534,-0.053435,0.015267,7.448096,2.484692,5.811572,-0.020337,0.020337,-0.033496,0.00957,0.029907,-0.029907,yes
1616135397.0496728,1,57.0,58.0,73.0,76.0,61.0,0.893188,0.138489,-0.427795,-0.003479,-0.022901,-0.045802,0.015267,7.485181,2.469141,5.797217,0.004785,0.014355,-0.039478,0.031104,0.022729,-0.015552,yes
1616135397.0594723,1,55.0,58.0,72.0,79.0,60.0,0.892944,0.138062,-0.428406,-0.003479,-0.022901,-0.038168,0.007634,7.510303,2.442822,5.769702,0.021533,-0.002393,-0.058618,0.058618,0.008374,-0.017944,yes
1616135397.0694191,1,56.0,57.0,74.0,51.0,60.0,0.8927,0.137634,-0.429016,-0.003479,-0.022901,-0.038168,0.007634,7.494751,2.409326,5.733813,-0.001196,-0.027515,-0.086133,0.068188,-0.004785,-0.058618,yes
1616135397.079702,1,55.0,56.0,74.0,76.0,67.0,0.892456,0.137329,-0.429626,-0.003418,-0.015267,-0.045802,0.015267,7.448096,2.371045,5.690747,-0.057422,-0.059814,-0.120825,0.062207,-0.020337,-0.130396,yes
1616135397.089476,1,55.0,58.0,74.0,76.0,59.0,0.892151,0.137024,-0.430359,-0.003357,-0.015267,-0.053435,0.007634,7.436133,2.357886,5.673999,-0.080151,-0.065796,-0.126807,0.053833,-0.022729,-0.151929,yes
1616135397.0995958,1,54.0,58.0,71.0,76.0,61.0,0.891846,0.136902,-0.431091,-0.003357,-0.007634,-0.053435,0.007634,7.416992,2.354297,5.659644,-0.108862,-0.066992,-0.129199,0.038281,-0.019141,-0.175854,yes
1616135397.1095543,1,56.0,58.0,72.0,76.0,58.0,0.891479,0.136719,-0.431885,-0.003357,-0.007634,-0.061069,0.007634,7.366748,2.36626,5.648877,-0.169873,-0.050244,-0.128003,-0.001196,0.002393,-0.217725,yes
1616135397.1196463,1,57.0,57.0,74.0,77.0,58.0,0.891052,0.136597,-0.432861,-0.003357,-0.007634,-0.068702,0.007634,7.328467,2.3854,5.627344,-0.221313,-0.027515,-0.133984,-0.031104,0.0323,-0.256006,yes
1616135397.129455,1,57.0,57.0,74.0,76.0,59.0,0.890564,0.136475,-0.433899,-0.003479,-0.007634,-0.076336,0.0,7.320093,2.404541,5.590259,-0.244043,-0.007178,-0.154321,-0.031104,0.059814,-0.279932,yes
1616135397.1397164,1,57.0,58.0,72.0,78.0,59.0,0.890015,0.136414,-0.435059,-0.003662,-0.007634,-0.083969,0.0,7.27583,2.39856,5.540015,-0.302661,-0.011963,-0.185425,-0.04187,0.070581,-0.344531,yes
1616135397.1494815,1,55.0,58.0,74.0,78.0,61.0,0.889343,0.136353,-0.436401,-0.003906,-0.007634,-0.10687,0.0,7.193286,2.384204,5.468237,-0.403149,-0.025122,-0.233276,-0.0646,0.081348,-0.453394,yes
1616135397.1594963,1,54.0,58.0,72.0,77.0,61.0,0.888489,0.136475,-0.438049,-0.00415,0.0,-0.129771,-0.007634,7.132276,2.377026,5.40603,-0.484497,-0.034692,-0.266772,-0.086133,0.090918,-0.539526,yes
1616135397.1695726,1,55.0,58.0,72.0,79.0,59.0,0.887512,0.13678,-0.440002,-0.004517,0.015267,-0.145038,-0.015267,7.072461,2.372241,5.329468,-0.568237,-0.045459,-0.308643,-0.100488,0.102881,-0.631641,yes
1616135397.179505,1,55.0,57.0,73.0,74.0,102.0,0.886292,0.137268,-0.442322,-0.004944,0.022901,-0.183206,-0.022901,6.967187,2.360278,5.233765,-0.702222,-0.066992,-0.362476,-0.135181,0.112451,-0.772803,yes
1616135397.1895068,1,55.0,57.0,74.0,121.0,58.0,0.884705,0.138062,-0.445068,-0.005554,0.038168,-0.21374,-0.038168,6.896606,2.371045,5.151221,-0.805103,-0.070581,-0.391187,-0.168677,0.131592,-0.870898,yes
1616135397.1995091,1,57.0,58.0,73.0,68.0,60.0,0.882935,0.139038,-0.448425,-0.006348,0.045802,-0.251908,-0.045802,6.865503,2.386597,5.026807,-0.87688,-0.07417,-0.452197,-0.156714,0.155518,-0.964209,yes
1616135397.2094858,1,56.0,58.0,73.0,76.0,63.0,0.880737,0.140137,-0.452271,-0.007263,0.045802,-0.290076,-0.045802,6.865503,2.42727,4.823438,-0.921143,-0.055029,-0.581396,-0.072974,0.215332,-1.065894,yes
1616135397.2196214,1,55.0,53.0,54.0,77.0,61.0,0.878296,0.141113,-0.456726,-0.00824,0.030534,-0.312977,-0.038168,7.010254,2.512207,4.562646,-0.829028,0.008374,-0.757251,0.124414,0.308643,-1.071875,yes
1616135397.2294626,1,54.0,29.0,70.0,77.0,61.0,0.875854,0.141846,-0.461121,-0.009338,0.007634,-0.282443,-0.045802,7.315308,2.539722,4.140357,-0.574219,0.019141,-1.096997,0.556274,0.364868,-1.043164,yes
1616135397.2396634,1,57.0,58.0,72.0,77.0,63.0,0.873718,0.142151,-0.465027,-0.010315,-0.015267,-0.198473,-0.038168,7.737597,2.453589,3.580493,-0.196191,-0.07417,-1.583887,1.187915,0.336157,-1.012061,yes
1616135397.2494729,1,54.0,58.0,70.0,77.0,58.0,0.872314,0.142273,-0.467651,-0.010803,-0.007634,-0.068702,-0.030534,8.25559,2.268164,2.940479,0.289502,-0.263184,-2.17605,1.973877,0.221313,-0.967798,yes
1616135397.259641,1,57.0,58.0,73.0,84.0,59.0,0.871948,0.142456,-0.468262,-0.010498,0.007634,0.122137,-0.022901,8.914746,2.028906,2.258594,0.940283,-0.501245,-2.844775,2.916553,0.055029,-0.845776,yes
1616135397.2695532,1,56.0,57.0,73.0,76.0,61.0,0.873169,0.143188,-0.465759,-0.009277,0.053435,0.40458,-0.030534,9.922022,1.751367,1.648486,1.976269,-0.783569,-3.496753,4.062598,-0.202173,-0.435449,yes
1616135397.2793307,1,55.0,58.0,73.0,74.0,62.0,0.876953,0.144836,-0.45813,-0.006958,0.122137,0.854962,-0.076336,11.301343,1.461865,1.253711,3.446509,-1.089819,-4.020728,5.368945,-0.546704,0.313428,yes
1616135397.2894046,1,57.0,58.0,72.0,76.0,64.0,0.884155,0.148132,-0.442993,-0.003235,0.251908,1.419847,-0.145038,12.409106,0.800317,0.840991,4.740893,-1.794434,-4.681079,6.775781,-1.152026,0.595752,yes
1616135397.299478,1,56.0,58.0,74.0,78.0,59.0,0.894714,0.154724,-0.418945,0.002502,0.51145,2.099237,-0.274809,13.833887,-0.021533,0.443823,6.479102,-2.713184,-5.445508,8.645581,-1.874585,0.843384,yes
1616135397.309311,1,55.0,56.0,77.0,77.0,60.0,0.908936,0.166199,-0.382202,0.009399,0.778626,3.030534,-0.51145,14.903369,-0.428271,-0.260791,8.062988,-3.318506,-6.654956,10.785742,-1.961914,0.305054,yes
1616135397.319739,1,54.0,58.0,74.0,76.0,61.0,0.926025,0.181458,-0.330505,0.016174,0.870229,3.961832,-0.70229,14.695215,-0.104077,-1.409229,8.638403,-3.292187,-8.421875,12.344507,-0.929517,-1.758545,yes
1616135397.3294327,1,56.0,57.0,74.0,76.0,64.0,0.943604,0.195801,-0.265747,0.023804,0.694656,4.61832,-0.641221,12.775171,1.159204,-2.745483,7.768701,-2.337549,-10.408911,12.132764,1.362573,-5.005273,yes
1616135397.33945,1,54.0,58.0,75.0,76.0,61.0,0.958984,0.204407,-0.193298,0.033813,0.274809,4.801527,-0.328244,9.049927,3.344824,-3.598438,5.28042,-0.368457,-11.845654,9.154004,4.386792,-8.07854,yes
1616135397.349441,1,54.0,58.0,76.0,75.0,61.0,0.970154,0.20459,-0.121216,0.047119,-0.244275,4.419847,0.10687,3.910669,5.758935,-3.259888,1.416406,1.979858,-11.950928,3.669019,6.744678,-9.474609,yes
1616135397.3595085,1,53.0,58.0,73.0,77.0,60.0,0.976746,0.196533,-0.057922,0.062805,-0.618321,3.564885,0.450382,-1.476221,7.060498,-1.53125,-2.826831,3.36875,-10.507007,-2.345923,6.908569,-8.744873,yes
1616135397.3694484,1,51.0,58.0,74.0,75.0,63.0,0.979614,0.184937,-0.009399,0.077759,-0.59542,2.519084,0.526718,-5.891724,6.334351,1.136475,-6.353491,2.796924,-7.991211,-6.793725,4.532739,-6.732715,yes
1616135397.379638,1,53.0,58.0,70.0,78.0,59.0,0.980042,0.176636,0.023987,0.087585,-0.175573,1.541985,0.312977,-8.786743,4.853345,4.275537,-8.628833,1.418799,-4.9,-9.098974,1.429565,-3.951343,yes
1616135397.3894267,1,51.0,58.0,74.0,75.0,61.0,0.979248,0.175049,0.044617,0.091187,0.160305,0.778626,0.076336,-10.21272,4.721753,7.505517,-9.668408,1.281226,-1.653271,-9.872973,-0.142358,-0.558667,yes
1616135397.3992808,1,53.0,55.0,73.0,75.0,62.0,0.978516,0.176392,0.055298,0.091125,0.122137,0.259542,-0.038168,-10.627832,5.573511,10.314404,-9.881348,2.091113,1.184326,-9.821533,-0.424683,2.597144,yes
1616135397.4094665,1,53.0,57.0,73.0,77.0,60.0,0.978516,0.175964,0.059021,0.089111,-0.076336,-0.091603,-0.10687,-10.493848,5.932397,12.318189,-9.668408,2.453589,3.194092,-9.353785,-0.690259,4.657153,yes
1616135397.4195704,1,54.0,57.0,73.0,75.0,62.0,0.979431,0.17334,0.057617,0.085327,-0.129771,-0.374046,-0.183206,-10.11582,5.175147,13.492945,-9.298755,1.750171,4.347314,-8.738892,-1.552783,5.441919,yes
1616135397.4294171,1,52.0,58.0,76.0,76.0,63.0,0.980591,0.171326,0.051819,0.079712,-0.022901,-0.656489,-0.236641,-9.589453,4.21333,14.185596,-8.860913,0.838599,5.013648,-8.169458,-2.406934,5.639307,yes
1616135397.4394813,1,54.0,58.0,74.0,74.0,63.0,0.981506,0.171692,0.041016,0.073181,0.10687,-0.969466,-0.221374,-8.950635,3.497949,14.540894,-8.407519,0.135181,5.352197,-7.73999,-2.971582,5.529248,yes
1616135397.449344,1,51.0,57.0,74.0,78.0,63.0,0.982117,0.174377,0.024902,0.066284,0.229008,-1.305344,-0.19084,-8.277124,2.866309,14.562427,-8.023511,-0.521582,5.370142,-7.492358,-3.42019,5.062696,yes
1616135397.4594128,1,52.0,57.0,72.0,74.0,60.0,0.981934,0.179871,0.002808,0.058533,0.40458,-1.717557,-0.175573,-7.743579,2.249023,14.2167,-7.895508,-1.21543,5.050733,-7.567725,-3.825732,4.170264,yes
1616135397.4694266,1,54.0,58.0,72.0,74.0,59.0,0.980408,0.188721,-0.026489,0.049316,0.59542,-2.221374,-0.183206,-7.288989,1.929614,13.497729,-7.979248,-1.671216,4.409522,-7.896704,-3.878369,2.911767,yes
1616135397.4794736,1,52.0,58.0,73.0,75.0,61.0,0.976807,0.200684,-0.063782,0.038269,0.717557,-2.732824,-0.198473,-6.397754,2.281323,12.51438,-7.768701,-1.512109,3.582886,-7.921826,-3.189307,1.591064,yes
1616135397.4893594,1,52.0,58.0,70.0,79.0,61.0,0.970703,0.213196,-0.107483,0.026062,0.633588,-3.022901,-0.19084,-4.641602,3.375928,11.602808,-6.794922,-0.624463,2.920142,-7.144238,-1.823145,0.838599,yes
1616135397.4993012,1,54.0,58.0,73.0,76.0,62.0,0.962585,0.22229,-0.154297,0.014465,0.343511,-3.068702,-0.068702,-2.123413,4.725342,10.868286,-5.097388,0.574219,2.502637,-5.634521,-0.356494,0.831421,yes
1616135397.5093825,1,54.0,56.0,71.0,76.0,60.0,0.953491,0.224854,-0.200684,0.005554,-0.038168,-2.885496,0.145038,0.588574,5.684766,10.145727,-3.185718,1.503735,2.125806,-3.887939,0.689062,1.153223,yes
1616135397.5185924,1,53.0,58.0,76.0,76.0,63.0,0.944214,0.22113,-0.243835,6.1e-05,-0.29771,-2.603053,0.366412,2.713184,5.676392,9.125293,-1.799219,1.583887,1.449902,-2.422485,1.016846,0.967798,yes
1616135397.5293016,1,53.0,58.0,74.0,75.0,62.0,0.934753,0.213867,-0.28363,-0.001892,-0.351145,-2.396947,0.557252,3.757544,4.897607,7.826123,-1.430762,0.967798,0.498853,-1.579102,0.857739,0.002393,yes
1616135397.5388012,1,54.0,57.0,73.0,74.0,58.0,0.924011,0.206726,-0.321594,-0.001038,-0.221374,-2.335878,0.671756,4.068579,3.911865,6.419287,-1.751367,0.160303,-0.514404,-1.102978,0.577808,-1.342236,yes
1616135397.5493922,1,54.0,58.0,72.0,77.0,60.0,0.911316,0.201538,-0.358826,0.00116,-0.053435,-2.328244,0.679389,4.343726,3.391479,5.218213,-2.06958,-0.19978,-1.259692,-0.683081,0.574219,-2.25979,yes
1616135397.5592744,1,54.0,58.0,74.0,78.0,64.0,0.897217,0.198608,-0.394287,0.002563,0.015267,-2.221374,0.541985,5.201465,3.6104,4.469336,-1.741797,0.137573,-1.50852,-0.155518,0.931909,-2.105469,yes
1616135397.568721,1,54.0,58.0,72.0,76.0,60.0,0.883301,0.196777,-0.425476,0.001892,-0.015267,-1.931298,0.351145,6.766211,4.011157,3.977661,-0.606519,0.619678,-1.514502,0.643604,1.199878,-1.089819,yes
1616135397.5786695,1,54.0,58.0,72.0,74.0,59.0,0.871155,0.194641,-0.450745,0.000427,-0.083969,-1.503817,0.251908,8.61687,4.172656,3.468042,0.91875,0.852954,-1.606616,1.655664,1.172363,0.178247,yes
1616135397.5885532,1,54.0,57.0,73.0,79.0,64.0,0.861938,0.191528,-0.469421,-0.000122,-0.122137,-1.022901,0.244275,9.996191,4.053027,2.854346,2.065991,0.815869,-1.906885,2.551685,1.013257,1.014453,yes
1616135397.598652,1,54.0,58.0,73.0,77.0,60.0,0.855713,0.18811,-0.482056,0.00061,-0.129771,-0.618321,0.251908,10.57041,3.848462,2.18562,2.4823,0.698633,-2.36626,3.152222,0.964209,1.17356,yes
1616135397.6086214,1,54.0,58.0,73.0,83.0,63.0,0.852112,0.18512,-0.489502,0.002014,-0.10687,-0.282443,0.206107,10.687647,3.574512,1.533643,2.503833,0.501245,-2.897412,3.625952,0.94148,0.936694,yes
1616135397.6186402,1,54.0,57.0,74.0,78.0,67.0,0.85083,0.182983,-0.492493,0.003784,-0.068702,0.030534,0.145038,10.771387,3.204858,0.885254,2.544507,0.189014,-3.503931,4.206152,0.837402,0.624463,yes
1616135397.628502,1,54.0,58.0,73.0,79.0,63.0,0.851929,0.181885,-0.491028,0.006042,-0.022901,0.366412,0.068702,10.968775,2.874683,0.311035,2.747876,-0.104077,-4.114038,4.874878,0.739307,0.415112,yes
1616135397.6386456,1,53.0,58.0,84.0,78.0,61.0,0.855652,0.182068,-0.484375,0.008667,0.030534,0.755725,-0.022901,11.307324,2.542114,-0.229687,3.152222,-0.428271,-4.780371,5.701514,0.619678,0.272754,yes
1616135397.6485667,1,54.0,58.0,70.0,75.0,63.0,0.862427,0.183655,-0.471497,0.011597,0.076336,1.251908,-0.145038,12.14712,2.361475,-0.684277,4.134375,-0.635229,-5.464648,6.837988,0.564648,0.519189,yes
1616135397.6586652,1,54.0,57.0,73.0,76.0,61.0,0.873291,0.186401,-0.449829,0.014526,0.076336,1.938931,-0.312977,13.532422,2.359082,-1.189111,5.779273,-0.702222,-6.340332,8.519971,0.671118,1.018042,yes
1616135397.6686366,1,54.0,58.0,73.0,75.0,61.0,0.889221,0.189636,-0.415955,0.016785,0.0,2.870229,-0.534351,15.014624,2.347119,-1.996606,7.701709,-0.820654,-7.699317,10.832397,0.957031,0.998901,yes
1616135397.6784482,1,54.0,58.0,76.0,79.0,63.0,0.909851,0.1922,-0.367188,0.018372,-0.122137,3.900763,-0.748092,15.552954,1.984644,-3.570923,8.935083,-1.309937,-10.003369,13.360156,1.458276,-0.972583,yes
1616135397.6894245,1,54.0,57.0,74.0,88.0,64.0,0.932861,0.192627,-0.303589,0.020325,-0.267176,4.793893,-0.824427,14.672485,1.452295,-5.865405,9.043945,-1.948755,-13.130468,15.003858,2.362671,-5.217017,yes
1616135397.699402,1,48.0,56.0,73.0,76.0,58.0,0.954712,0.189514,-0.227966,0.024292,-0.465649,5.351145,-0.679389,11.947339,1.478613,-8.330957,7.590454,-1.958325,-16.407104,14.042041,3.999194,-10.83479,yes
1616135397.7094398,1,45.0,58.0,74.0,76.0,64.0,0.971985,0.180908,-0.146362,0.032104,-0.763359,5.320611,-0.244275,7.47561,2.323193,-9.561938,4.573413,-1.030005,-18.299633,9.480591,5.689551,-15.313696,yes
1616135397.718607,1,41.0,57.0,76.0,74.0,61.0,0.982544,0.165527,-0.070129,0.047119,-1.030534,4.572519,0.442748,2.044458,3.05293,-8.486475,0.540723,-0.069385,-17.651245,2.697632,5.829516,-16.447779,yes
1616135397.728588,1,41.0,58.0,73.0,79.0,61.0,0.986572,0.148499,-0.008972,0.067139,-0.816794,3.312977,0.870229,-3.578101,2.009766,-5.468237,-3.946558,-0.849365,-14.833984,-3.828125,3.046948,-14.573194,yes
1616135397.738691,1,44.0,58.0,72.0,83.0,63.0,0.986206,0.138733,0.033081,0.083679,-0.076336,1.984733,0.694656,-7.827319,0.436646,-0.95105,-7.414599,-2.299268,-10.351489,-7.851245,-0.693848,-10.259375,yes
1616135397.748515,1,45.0,55.0,73.0,78.0,60.0,0.984253,0.140564,0.057068,0.090576,0.480916,0.793893,0.259542,-10.949634,1.065894,3.957324,-10.097876,-1.746582,-5.390479,-10.325171,-2.174854,-4.766016,yes
1616135397.758762,1,44.0,57.0,70.0,78.0,63.0,0.982727,0.147461,0.066101,0.089539,0.412214,-0.10687,-0.068702,-12.73689,3.215625,8.106054,-11.722437,0.258398,-1.180737,-11.655444,-1.720264,0.172266,yes
1616135397.7687175,1,48.0,58.0,73.0,84.0,64.0,0.982971,0.150513,0.064026,0.083618,0.030534,-0.625954,-0.29771,-12.842163,4.422681,11.1542,-11.855225,1.417603,1.878174,-11.513086,-1.379321,3.405835,yes
1616135397.7785237,1,51.0,58.0,74.0,82.0,59.0,0.984619,0.148071,0.055359,0.074158,-0.198473,-0.89313,-0.496183,-12.009546,4.020728,13.247705,-11.155396,1.082642,3.936987,-10.588354,-1.903296,5.035181,yes
1616135397.7887256,1,52.0,58.0,73.0,82.0,61.0,0.986694,0.143799,0.042725,0.062622,-0.160305,-1.091603,-0.572519,-10.874268,2.621069,14.350683,-10.223486,-0.211743,4.990918,-9.571508,-2.97876,5.382104,yes
1616135397.7989402,1,48.0,58.0,74.0,79.0,61.0,0.98822,0.141663,0.026367,0.05127,0.053435,-1.312977,-0.48855,-9.788037,1.175952,14.723926,-9.41958,-1.593457,5.330664,-8.851343,-4.02312,5.012451,yes
1616135397.808539,1,52.0,57.0,77.0,78.0,64.0,0.988647,0.144104,0.005981,0.041443,0.351145,-1.557252,-0.343511,-8.683863,0.118433,14.605494,-8.683863,-2.678491,5.213428,-8.313013,-4.767212,4.230078,yes
1616135397.8187792,1,52.0,58.0,74.0,74.0,61.0,0.98761,0.151855,-0.018555,0.033264,0.648855,-1.793893,-0.221374,-7.445703,-0.233276,14.156885,-7.902686,-3.160596,4.81626,-7.780664,-4.9323,3.276636,yes
1616135397.8285222,1,52.0,56.0,72.0,80.0,60.0,0.984924,0.164185,-0.046997,0.026001,0.847328,-1.984733,-0.152672,-5.855835,0.301465,13.556348,-6.846362,-2.843579,4.328174,-6.980347,-4.341333,2.470337,yes
1616135397.8385365,1,53.0,57.0,76.0,78.0,61.0,0.980591,0.178711,-0.077881,0.019348,0.877863,-2.061069,-0.10687,-4.070971,1.604224,12.888819,-5.634521,-1.800415,3.834106,-6.001782,-3.095996,2.016943,yes
1616135397.848695,1,53.0,58.0,76.0,80.0,65.0,0.975037,0.192322,-0.110046,0.013672,0.709924,-2.083969,-0.007634,-2.10188,3.457275,12.260767,-4.256396,-0.187817,3.422583,-4.854541,-1.400854,2.080347,yes
1616135397.8585918,1,52.0,56.0,73.0,79.0,61.0,0.968933,0.20166,-0.142517,0.01001,0.374046,-2.022901,0.167939,-0.191406,5.243335,11.609985,-2.93689,1.441528,3.005078,-3.744385,0.252417,2.373437,yes
1616135397.8685503,1,50.0,58.0,68.0,76.0,63.0,0.963074,0.204773,-0.1745,0.009033,0.015267,-1.946565,0.396947,1.178345,6.267358,10.731909,-2.150928,2.432056,2.350708,-3.017041,1.409229,2.229883,yes
1616135397.878543,1,53.0,58.0,74.0,75.0,63.0,0.957153,0.202637,-0.20636,0.010559,-0.19084,-1.938931,0.59542,1.844678,6.29248,9.515284,-2.068384,2.532544,1.355396,-2.683276,1.922436,1.272852,yes
1616135397.888414,1,52.0,57.0,70.0,80.0,65.0,0.9505,0.198364,-0.238647,0.013489,-0.206107,-1.992366,0.679389,1.979858,5.67998,8.214917,-2.518188,2.046851,0.302661,-2.611499,1.941577,-0.151929,yes
1616135397.8984172,1,54.0,58.0,72.0,77.0,64.0,0.942261,0.19458,-0.271912,0.016235,-0.114504,-2.099237,0.633588,1.972681,4.823438,6.961206,-3.110352,1.315918,-0.645996,-2.500244,1.691553,-1.643701,yes
1616135397.9085567,1,53.0,58.0,74.0,79.0,64.0,0.932312,0.192688,-0.305542,0.017334,0.007634,-2.137405,0.473282,2.467944,4.152319,5.987427,-3.179736,0.734522,-1.254907,-1.987036,1.41521,-2.503833,yes
1616135397.9185438,1,54.0,58.0,76.0,78.0,63.0,0.921082,0.192871,-0.337769,0.016418,0.083969,-2.007634,0.274809,3.923828,3.804199,5.403638,-2.235864,0.430664,-1.429565,-0.912769,1.144849,-2.253808,yes
1616135397.9285748,1,54.0,56.0,72.0,78.0,61.0,0.910217,0.193726,-0.365662,0.014343,0.076336,-1.664122,0.145038,6.002978,3.770703,5.14165,-0.574219,0.416309,-1.300366,0.367261,0.922339,-1.096997,yes
1616135397.9383965,1,53.0,58.0,74.0,80.0,62.0,0.901245,0.193726,-0.38739,0.012756,0.0,-1.221374,0.137405,7.957715,3.84248,4.976562,1.065894,0.516797,-1.146045,1.449902,0.753662,0.208154,yes
1616135397.9485953,1,54.0,58.0,74.0,75.0,70.0,0.894897,0.192017,-0.402588,0.012329,-0.099237,-0.793893,0.175573,9.092993,3.908276,4.70979,1.984644,0.636426,-1.189111,2.07915,0.746484,0.935498,yes
1616135397.9586394,1,54.0,57.0,73.0,75.0,61.0,0.891052,0.188843,-0.412476,0.012573,-0.183206,-0.473282,0.19084,9.325073,3.818555,4.387988,2.074365,0.62207,-1.376929,2.262183,0.777588,0.927124,yes
1616135397.9685154,1,51.0,58.0,73.0,78.0,62.0,0.888855,0.18512,-0.418945,0.013062,-0.19084,-0.312977,0.175573,8.819043,3.383106,3.978858,1.472632,0.26438,-1.709497,2.172461,0.632837,0.194995,yes
1616135397.9785087,1,54.0,56.0,73.0,76.0,62.0,0.887024,0.181763,-0.424194,0.014038,-0.129771,-0.290076,0.183206,8.065381,2.826831,3.641504,0.640015,-0.215332,-1.983447,1.929614,0.379224,-0.720166,yes
1616135397.9884105,1,54.0,58.0,73.0,75.0,62.0,0.884827,0.179504,-0.429688,0.015686,-0.045802,-0.328244,0.198473,7.445703,2.500244,3.469238,-0.061011,-0.479712,-2.080347,1.618579,0.247632,-1.369751,yes
1616135397.9984455,1,54.0,57.0,74.0,78.0,64.0,0.882202,0.178284,-0.435425,0.017395,0.0,-0.351145,0.175573,7.257886,2.526562,3.472827,-0.331372,-0.406738,-1.987036,1.384106,0.314624,-1.484595,yes
1616135398.0084922,1,53.0,57.0,73.0,77.0,61.0,0.879822,0.177673,-0.440369,0.018555,0.0,-0.274809,0.114504,7.527051,2.719165,3.569726,-0.130396,-0.184229,-1.808789,1.344629,0.437842,-1.148438,yes
1616135398.018693,1,54.0,58.0,74.0,78.0,61.0,0.878357,0.177124,-0.443542,0.018982,-0.030534,-0.122137,0.061069,8.005567,2.850757,3.628345,0.302661,-0.033496,-1.699927,1.502539,0.488086,-0.69624,yes
1616135398.028608,1,54.0,58.0,72.0,107.0,60.0,0.878113,0.17627,-0.444336,0.019226,-0.068702,0.053435,0.022901,8.439819,2.906982,3.615185,0.724951,0.039478,-1.704712,1.748975,0.503638,-0.343335,yes
1616135398.0385203,1,54.0,56.0,70.0,76.0,59.0,0.879211,0.175049,-0.442627,0.019226,-0.099237,0.229008,-0.007634,8.682666,2.877075,3.603223,0.988135,0.026318,-1.754956,1.948755,0.474927,-0.175854,yes
1616135398.0485384,1,54.0,58.0,74.0,80.0,61.0,0.88147,0.173523,-0.438782,0.019226,-0.122137,0.343511,-0.022901,8.482885,2.711987,3.56853,0.836206,-0.119629,-1.867407,1.967896,0.391187,-0.417505,yes
1616135398.0583863,1,53.0,58.0,73.0,77.0,61.0,0.884033,0.171875,-0.434204,0.019653,-0.091603,0.351145,0.007634,7.845263,2.321997,3.544605,0.25481,-0.488086,-1.979858,1.75376,0.147144,-1.058716,yes
1616135398.0684512,1,54.0,58.0,73.0,76.0,61.0,0.886108,0.170715,-0.430359,0.020874,-0.022901,0.259542,0.038168,7.086816,2.051636,3.658252,-0.456982,-0.736914,-1.939185,1.312329,-0.020337,-1.668823,yes
1616135398.07849,1,54.0,56.0,74.0,80.0,64.0,0.88739,0.170471,-0.427734,0.022217,0.022901,0.152672,0.045802,6.562842,2.080347,3.947754,-0.949854,-0.697437,-1.696338,0.80271,-0.00957,-1.9021,yes
1616135398.088632,1,53.0,58.0,74.0,78.0,63.0,0.888062,0.170715,-0.426208,0.023193,0.030534,0.068702,0.030534,6.339136,2.310034,4.328174,-1.156811,-0.466553,-1.339844,0.355298,0.113647,-1.792041,yes
1616135398.0985456,1,54.0,58.0,74.0,82.0,61.0,0.888428,0.170837,-0.425293,0.023499,-0.015267,0.030534,0.015267,6.384595,2.659351,4.743286,-1.09939,-0.118433,-0.937891,0.022729,0.305054,-1.416406,yes
1616135398.1085114,1,54.0,58.0,70.0,81.0,60.0,0.888916,0.17041,-0.4245,0.022949,-0.076336,0.038168,-0.015267,6.669312,2.934497,5.12251,-0.80271,0.155518,-0.575415,-0.111255,0.415112,-0.902002,yes
1616135398.1183913,1,54.0,56.0,70.0,82.0,63.0,0.889832,0.169189,-0.423157,0.021851,-0.129771,0.091603,-0.038168,7.010254,3.012256,5.386889,-0.441431,0.24165,-0.340942,-0.071777,0.381616,-0.466553,yes
1616135398.1283972,1,54.0,56.0,74.0,82.0,63.0,0.891174,0.16748,-0.421082,0.020569,-0.145038,0.160305,-0.061069,7.294971,2.890234,5.548388,-0.126807,0.133984,-0.226099,0.062207,0.210547,-0.191406,yes
1616135398.1383913,1,54.0,56.0,72.0,77.0,61.0,0.892883,0.166016,-0.418091,0.01947,-0.10687,0.21374,-0.076336,7.407422,2.617481,5.636914,0.026318,-0.128003,-0.196191,0.184229,-0.062207,-0.132788,yes
1616135398.1483967,1,52.0,58.0,73.0,76.0,62.0,0.894653,0.165344,-0.414612,0.018921,-0.038168,0.236641,-0.076336,7.290185,2.345923,5.683569,-0.040674,-0.399561,-0.210547,0.196191,-0.307446,-0.267969,yes
1616135398.158514,1,53.0,57.0,72.0,78.0,63.0,0.896057,0.165771,-0.411316,0.018982,0.045802,0.198473,-0.053435,7.022217,2.199975,5.757739,-0.263184,-0.557471,-0.186621,0.057422,-0.440234,-0.465356,yes
1616135398.1684928,1,54.0,57.0,73.0,75.0,60.0,0.896973,0.167175,-0.408691,0.019592,0.114504,0.129771,-0.030534,6.773389,2.260986,5.882154,-0.474927,-0.520386,-0.094507,-0.156714,-0.41272,-0.556274,yes
1616135398.178519,1,52.0,58.0,73.0,79.0,62.0,0.897339,0.16925,-0.406982,0.020386,0.137405,0.068702,-0.022901,6.591553,2.557666,6.065186,-0.632837,-0.256006,0.072974,-0.430664,-0.19978,-0.495264,yes
1616135398.1883988,1,54.0,58.0,76.0,78.0,63.0,0.897339,0.171448,-0.406067,0.020874,0.114504,0.007634,-0.007634,6.549683,2.9979,6.27334,-0.661548,0.14834,0.281128,-0.671118,0.114844,-0.271558,yes
1616135398.198362,1,53.0,58.0,70.0,80.0,61.0,0.897217,0.172913,-0.405762,0.021057,0.045802,-0.015267,0.0,6.732715,3.428565,6.462354,-0.47373,0.555078,0.474927,-0.758447,0.413916,0.104077,yes
1616135398.208431,1,54.0,58.0,74.0,76.0,61.0,0.897278,0.173279,-0.405457,0.020752,-0.030534,0.007634,0.0,6.987525,3.69773,6.561646,-0.212939,0.814673,0.571826,-0.698633,0.599341,0.43186,yes
1616135398.2184231,1,55.0,57.0,74.0,80.0,63.0,0.897705,0.172607,-0.404846,0.020264,-0.083969,0.030534,0.0,7.110742,3.700122,6.535327,-0.080151,0.823047,0.531152,-0.5802,0.607715,0.507227,yes
1616135398.2283406,1,54.0,57.0,74.0,78.0,63.0,0.898193,0.171387,-0.404236,0.019775,-0.091603,0.038168,0.0,7.164575,3.500342,6.438428,-0.017944,0.638818,0.417505,-0.423486,0.466553,0.429468,yes
1616135398.238492,1,54.0,58.0,74.0,121.0,66.0,0.898743,0.170227,-0.403564,0.019531,-0.068702,0.053435,0.0,7.281812,3.207251,6.354688,0.107666,0.362476,0.314624,-0.215332,0.228491,0.376831,yes
1616135400.0362298,1,54.0,58.0,74.0,76.0,61.0,0.89856,0.114441,-0.423401,0.014404,0.0,0.0,0.007634,7.338037,1.813574,5.894116,-0.150732,-0.081348,-0.135181,0.015552,-0.038281,-0.212939,yes
1616135400.0456605,1,55.0,58.0,73.0,76.0,63.0,0.89856,0.114319,-0.42334,0.014648,-0.007634,0.0,0.007634,7.29856,1.806396,5.897705,-0.189014,-0.084937,-0.131592,-0.010767,-0.040674,-0.24165,yes
1616135400.055751,1,54.0,58.0,75.0,78.0,59.0,0.89856,0.114197,-0.423401,0.014832,-0.007634,-0.007634,0.007634,7.293775,1.817163,5.908472,-0.196191,-0.070581,-0.120825,-0.025122,-0.027515,-0.236865,yes
1616135400.0657504,1,54.0,56.0,70.0,76.0,61.0,0.898621,0.114075,-0.42334,0.014954,-0.007634,0.0,0.007634,7.306933,1.838696,5.933594,-0.181836,-0.045459,-0.098096,-0.035889,-0.00957,-0.206958,yes
1616135400.075714,1,54.0,58.0,72.0,78.0,61.0,0.898682,0.113831,-0.423218,0.015015,-0.015267,0.0,0.007634,7.293775,1.835107,5.937182,-0.193799,-0.044263,-0.096899,-0.044263,-0.008374,-0.215332,yes
1616135400.0856926,1,54.0,57.0,72.0,75.0,61.0,0.898743,0.113647,-0.423096,0.015076,-0.015267,0.0,0.007634,7.2854,1.81477,5.94436,-0.200977,-0.061011,-0.092114,-0.05144,-0.025122,-0.221313,yes
1616135400.0956628,1,55.0,57.0,72.0,77.0,60.0,0.898804,0.113464,-0.423035,0.015137,-0.007634,0.0,0.007634,7.2854,1.804004,5.946753,-0.19978,-0.068188,-0.092114,-0.049048,-0.0323,-0.221313,yes
1616135400.105742,1,54.0,57.0,74.0,78.0,60.0,0.898865,0.113342,-0.422974,0.015259,-0.007634,0.0,0.007634,7.293775,1.809985,5.953931,-0.191406,-0.059814,-0.086133,-0.050244,-0.026318,-0.210547,yes
1616135400.1159236,1,54.0,57.0,75.0,75.0,61.0,0.898926,0.113281,-0.422852,0.015381,-0.007634,0.007634,0.0,7.3177,1.819556,5.971875,-0.166284,-0.047852,-0.070581,-0.046655,-0.019141,-0.179443,yes
1616135400.125871,1,55.0,57.0,72.0,80.0,62.0,0.899048,0.113281,-0.422607,0.015442,-0.007634,0.015267,0.0,7.335645,1.830322,5.987427,-0.144751,-0.037085,-0.059814,-0.043066,-0.013159,-0.154321,yes
1616135400.1357553,1,54.0,57.0,74.0,75.0,63.0,0.89917,0.113281,-0.422302,0.015442,-0.007634,0.015267,-0.007634,7.327271,1.844678,5.998193,-0.149536,-0.023926,-0.053833,-0.05144,-0.001196,-0.150732,yes
1616135400.1457014,1,54.0,58.0,72.0,79.0,63.0,0.899292,0.11322,-0.422058,0.015381,-0.007634,0.007634,-0.007634,7.318896,1.841089,6.012549,-0.154321,-0.026318,-0.043066,-0.063403,-0.004785,-0.14834,yes
1616135400.1557858,1,54.0,56.0,73.0,79.0,65.0,0.899414,0.113159,-0.421814,0.01532,-0.007634,0.007634,-0.007634,7.311719,1.833911,6.035278,-0.15791,-0.033496,-0.025122,-0.077759,-0.015552,-0.141162,yes
1616135400.1655269,1,54.0,55.0,73.0,78.0,62.0,0.899475,0.113098,-0.421692,0.015259,-0.007634,0.0,-0.007634,7.292578,1.82793,6.0604,-0.174658,-0.039478,-0.002393,-0.105273,-0.025122,-0.141162,yes
1616135400.1756055,1,54.0,57.0,73.0,73.0,60.0,0.899536,0.113037,-0.421692,0.015198,-0.007634,-0.015267,-0.007634,7.290185,1.82793,6.095093,-0.178247,-0.038281,0.029907,-0.131592,-0.031104,-0.124414,yes
1616135400.1857765,1,54.0,57.0,74.0,78.0,60.0,0.899475,0.113098,-0.421814,0.015015,-0.007634,-0.015267,-0.015267,7.320093,1.8375,6.126196,-0.149536,-0.031104,0.063403,-0.139966,-0.033496,-0.080151,yes
1616135400.1956742,1,54.0,56.0,70.0,77.0,60.0,0.899414,0.113159,-0.421875,0.014893,-0.007634,-0.015267,-0.015267,7.357178,1.84707,6.145337,-0.112451,-0.023926,0.084937,-0.132788,-0.033496,-0.037085,yes
1616135400.2055514,1,54.0,57.0,72.0,78.0,67.0,0.899353,0.113159,-0.421997,0.014709,-0.007634,-0.015267,-0.015267,7.389478,1.865015,6.156104,-0.081348,-0.007178,0.096899,-0.124414,-0.021533,-0.002393,yes
1616135400.2158034,1,54.0,57.0,74.0,76.0,60.0,0.899292,0.11322,-0.422119,0.014526,-0.007634,-0.015267,-0.015267,7.420581,1.876978,6.158496,-0.05144,0.001196,0.101685,-0.110059,-0.016748,0.022729,yes
1616135400.2256105,1,54.0,57.0,72.0,76.0,60.0,0.899231,0.113281,-0.422302,0.014404,-0.007634,-0.015267,-0.007634,7.443311,1.884155,6.156104,-0.031104,0.005981,0.102881,-0.098096,-0.013159,0.040674,yes
1616135400.2355723,1,54.0,58.0,74.0,76.0,58.0,0.899109,0.113342,-0.422485,0.014343,0.0,-0.022901,-0.007634,7.473218,1.891333,6.152514,-0.003589,0.011963,0.102881,-0.081348,-0.00957,0.062207,yes
1616135400.2455158,1,44.0,57.0,72.0,78.0,61.0,0.898987,0.113464,-0.422729,0.014221,0.0,-0.022901,-0.007634,7.480395,1.903296,6.153711,0.0,0.021533,0.108862,-0.084937,-0.002393,0.070581,yes
1616135400.2555609,1,54.0,58.0,73.0,74.0,58.0,0.898804,0.113464,-0.423157,0.01416,0.0,-0.038168,0.0,7.481592,1.926025,6.168067,-0.003589,0.044263,0.129199,-0.105273,0.014355,0.084937,yes
1616135400.2656064,1,54.0,57.0,72.0,75.0,61.0,0.89856,0.113464,-0.423706,0.014099,-0.007634,-0.053435,0.0,7.492358,1.961914,6.181226,-0.001196,0.080151,0.151929,-0.12561,0.044263,0.107666,yes
1616135400.275586,1,55.0,57.0,73.0,73.0,63.0,0.898193,0.113342,-0.424438,0.013916,-0.015267,-0.061069,0.0,7.536621,1.958325,6.201562,0.033496,0.077759,0.184229,-0.126807,0.033496,0.153125,yes
1616135400.2854068,1,54.0,56.0,70.0,75.0,64.0,0.897827,0.11322,-0.425293,0.013794,-0.007634,-0.061069,0.0,7.583276,1.915259,6.207544,0.068188,0.037085,0.203369,-0.114844,-0.011963,0.183032,yes
1616135400.2954943,1,54.0,56.0,72.0,78.0,63.0,0.8974,0.113159,-0.426208,0.013733,0.0,-0.068702,0.0,7.620361,1.893726,6.21831,0.092114,0.017944,0.229687,-0.118433,-0.038281,0.214136,yes
1616135400.3054626,1,54.0,57.0,73.0,76.0,61.0,0.896912,0.113159,-0.427246,0.013733,0.0,-0.076336,0.0,7.643091,1.916455,6.236255,0.101685,0.04187,0.26438,-0.142358,-0.022729,0.246436,yes
1616135400.315535,1,53.0,57.0,69.0,78.0,63.0,0.896301,0.11322,-0.428406,0.013733,0.0,-0.091603,0.007634,7.622754,1.959522,6.244629,0.065796,0.084937,0.293091,-0.192603,0.014355,0.244043,yes
1616135400.3255413,1,54.0,58.0,69.0,75.0,60.0,0.89563,0.11322,-0.42981,0.013672,0.0,-0.114504,0.007634,7.629931,1.990625,6.245825,0.053833,0.117236,0.318213,-0.223706,0.04187,0.256006,yes
1616135400.3355565,1,55.0,58.0,74.0,78.0,62.0,0.894897,0.113159,-0.431458,0.013672,-0.007634,-0.122137,0.015267,7.662231,1.99541,6.247022,0.063403,0.12561,0.345728,-0.240454,0.043066,0.281128,yes
1616135400.3456469,1,54.0,57.0,72.0,76.0,64.0,0.893982,0.113098,-0.433289,0.013733,0.0,-0.137405,0.022901,7.668213,1.998999,6.226685,0.045459,0.132788,0.35769,-0.263184,0.049048,0.27395,yes
1616135400.3555157,1,54.0,58.0,75.0,77.0,63.0,0.893005,0.112976,-0.435364,0.013916,0.0,-0.160305,0.030534,7.638306,2.010962,6.203955,-0.011963,0.151929,0.368457,-0.311035,0.069385,0.238062,yes
1616135400.3655016,1,56.0,58.0,69.0,79.0,61.0,0.891846,0.112793,-0.437744,0.014038,-0.007634,-0.183206,0.030534,7.584473,2.022925,6.17644,-0.098096,0.171069,0.381616,-0.378027,0.092114,0.18064,yes
1616135400.3756175,1,55.0,57.0,73.0,76.0,63.0,0.890564,0.11261,-0.44043,0.014099,-0.007634,-0.206107,0.030534,7.552173,2.002588,6.128589,-0.166284,0.15791,0.379224,-0.417505,0.084937,0.120825,yes
1616135400.3854015,1,54.0,58.0,74.0,76.0,60.0,0.889099,0.112427,-0.443481,0.01416,-0.007634,-0.229008,0.030534,7.585669,1.973877,6.067578,-0.173462,0.137573,0.369653,-0.411523,0.068188,0.102881,yes
1616135400.395605,1,55.0,58.0,73.0,74.0,61.0,0.887451,0.112183,-0.446716,0.014221,-0.007634,-0.229008,0.030534,7.629931,1.932007,5.996997,-0.171069,0.104077,0.355298,-0.395972,0.038281,0.087329,yes
1616135400.405413,1,54.0,58.0,73.0,77.0,64.0,0.885803,0.112,-0.450073,0.014343,0.0,-0.244275,0.030534,7.627539,1.890137,5.915649,-0.217725,0.071777,0.331372,-0.400757,0.015552,0.027515,yes
1616135400.4153872,1,54.0,57.0,73.0,76.0,62.0,0.884033,0.112,-0.453552,0.014465,0.007634,-0.251908,0.022901,7.594043,1.835107,5.811572,-0.295483,0.022729,0.289502,-0.406738,-0.015552,-0.069385,yes
1616135400.42545,1,54.0,58.0,74.0,80.0,64.0,0.882141,0.112122,-0.457214,0.014465,0.022901,-0.267176,0.015267,7.515088,1.7729,5.677588,-0.421094,-0.035889,0.220117,-0.416309,-0.047852,-0.224902,yes
1616135400.4357734,1,54.0,58.0,70.0,76.0,60.0,0.880005,0.112549,-0.461182,0.014465,0.030534,-0.29771,0.007634,7.400244,1.729834,5.520874,-0.584985,-0.080151,0.137573,-0.436646,-0.061011,-0.415112,yes
1616135400.4454484,1,54.0,58.0,72.0,76.0,59.0,0.877563,0.11322,-0.465698,0.014343,0.045802,-0.335878,0.007634,7.273438,1.710693,5.325879,-0.768018,-0.105273,0.027515,-0.442627,-0.046655,-0.634033,yes
1616135400.4555626,1,54.0,58.0,70.0,80.0,60.0,0.874695,0.114075,-0.470764,0.01416,0.053435,-0.374046,0.0,7.239942,1.703516,5.098584,-0.861328,-0.120825,-0.101685,-0.379224,-0.023926,-0.788355,yes
1616135400.4657135,1,54.0,58.0,72.0,76.0,53.0,0.871643,0.115112,-0.476196,0.013916,0.061069,-0.381679,-0.007634,7.438525,1.737012,4.847363,-0.727344,-0.099292,-0.247632,-0.178247,0.017944,-0.752466,yes
1616135400.4755788,1,54.0,58.0,76.0,74.0,59.0,0.868713,0.116089,-0.481323,0.013611,0.045802,-0.335878,-0.007634,7.756738,1.787256,4.52915,-0.468945,-0.059814,-0.465356,0.143555,0.082544,-0.641211,yes
1616135400.4855657,1,54.0,57.0,73.0,80.0,61.0,0.86615,0.11676,-0.485718,0.013428,0.030534,-0.267176,0.0,8.001978,1.790845,4.121216,-0.27395,-0.063403,-0.785962,0.522778,0.131592,-0.636426,yes
1616135400.495593,1,54.0,57.0,72.0,83.0,64.0,0.864075,0.117188,-0.489319,0.013489,0.022901,-0.19084,0.007634,8.196973,1.727441,3.659448,-0.120825,-0.126807,-1.177148,0.946265,0.141162,-0.707007,yes
1616135400.5055993,1,54.0,57.0,74.0,79.0,61.0,0.86261,0.117554,-0.491821,0.013733,0.030534,-0.091603,0.007634,8.418286,1.598242,3.137866,0.070581,-0.256006,-1.649683,1.465454,0.100488,-0.794336,yes
1616135400.5155404,1,55.0,56.0,74.0,78.0,64.0,0.861938,0.118225,-0.492859,0.014282,0.053435,0.045802,-0.015267,8.815454,1.41521,2.574414,0.455786,-0.443823,-2.190405,2.149731,0.003589,-0.759644,yes
1616135400.5255065,1,54.0,57.0,73.0,75.0,62.0,0.862488,0.119629,-0.491455,0.015015,0.099237,0.267176,-0.061069,9.533228,1.174756,1.977466,1.189111,-0.702222,-2.806494,3.082837,-0.169873,-0.491675,yes
1616135400.5353482,1,54.0,57.0,73.0,79.0,61.0,0.865173,0.12207,-0.486084,0.015869,0.145038,0.618321,-0.152672,10.573999,0.943872,1.422388,2.293286,-0.973779,-3.453686,4.242041,-0.369653,0.027515,yes
1616135400.545458,1,54.0,58.0,74.0,78.0,64.0,0.870789,0.126038,-0.474854,0.016602,0.221374,1.083969,-0.290076,11.67937,0.552686,0.870898,3.532642,-1.443921,-4.196582,5.604614,-0.729736,0.471338,yes
1616135400.5555038,1,54.0,58.0,73.0,78.0,61.0,0.880066,0.13269,-0.455627,0.016418,0.343511,1.70229,-0.549618,13.128077,0.00957,0.382812,5.22539,-2.131787,-5.002881,7.361963,-1.291992,0.997705,yes
1616135400.5653844,1,55.0,58.0,72.0,76.0,60.0,0.893738,0.143188,-0.424927,0.014587,0.496183,2.549618,-0.900763,14.34231,-0.594556,-0.269165,6.857129,-2.981152,-6.128589,9.447095,-1.868603,0.845776,yes
1616135400.5755672,1,54.0,55.0,74.0,76.0,63.0,0.911072,0.156677,-0.381042,0.011169,0.580153,3.366412,-1.167939,14.312403,-1.087427,-1.246533,7.473218,-3.80061,-7.718457,11.16377,-2.082739,-0.934302,yes
1616135400.5855927,1,54.0,58.0,75.0,77.0,60.0,0.929626,0.170471,-0.326416,0.008423,0.557252,3.916031,-1.122137,12.960596,-1.080249,-2.30166,6.983935,-4.131982,-9.442309,11.72124,-1.513306,-3.908276,yes
1616135400.595446,1,54.0,58.0,74.0,81.0,63.0,0.946716,0.181702,-0.265625,0.008911,0.419847,4.091603,-0.832061,10.15769,-0.33855,-2.957227,5.19668,-3.663037,-10.725927,10.236646,-0.093311,-7.115527,yes
1616135400.605572,1,54.0,58.0,74.0,76.0,62.0,0.960327,0.189514,-0.203979,0.013,0.29771,3.862595,-0.473282,6.394165,0.562256,-2.801709,2.506226,-2.952441,-11.081225,6.884644,1.221411,-9.426758,yes
1616135400.615506,1,53.0,57.0,72.0,83.0,61.0,0.969604,0.194946,-0.146484,0.019653,0.251908,3.389313,-0.221374,2.513403,1.500147,-1.579102,-0.344531,-2.147339,-10.21272,2.697632,1.942773,-9.896899,yes
1616135400.625472,1,54.0,58.0,74.0,77.0,61.0,0.974731,0.199585,-0.096375,0.026794,0.290076,2.748092,-0.068702,-1.09939,2.422485,0.405542,-3.044556,-1.339844,-8.430249,-1.367358,2.050439,-8.719751,yes
1616135400.635332,1,54.0,56.0,74.0,78.0,60.0,0.976624,0.204285,-0.057007,0.03363,0.328244,2.007634,0.045802,-3.866406,3.409424,2.929712,-5.091406,-0.462964,-5.987427,-4.420288,1.7729,-6.267358,yes
1616135400.6454415,1,54.0,58.0,73.0,79.0,61.0,0.976685,0.208984,-0.028015,0.038696,0.312977,1.396947,0.038168,-5.605811,4.465747,5.499341,-6.299658,0.485693,-3.427368,-6.180029,1.445117,-3.371143,yes
1616135400.6556008,1,52.0,58.0,76.0,76.0,60.0,0.976196,0.212585,-0.006592,0.041016,0.206107,0.992366,-0.061069,-6.581983,5.519678,7.830908,-6.878662,1.45708,-1.080249,-6.97915,1.236963,-0.586182,yes
1616135400.6655416,1,51.0,58.0,74.0,78.0,61.0,0.975952,0.213806,0.009277,0.041077,0.030534,0.664122,-0.122137,-7.346411,6.331958,9.833496,-7.34043,2.233472,0.930713,-7.450488,1.015649,1.782471,yes
1616135400.675463,1,52.0,58.0,74.0,77.0,58.0,0.976196,0.212158,0.019958,0.039368,-0.137405,0.320611,-0.160305,-8.153906,6.785352,11.502319,-7.934985,2.709595,2.592358,-7.943359,0.709399,3.659448,yes
1616135400.685405,1,54.0,58.0,72.0,79.0,60.0,0.976929,0.208923,0.024841,0.03595,-0.198473,-0.083969,-0.175573,-8.915942,6.585571,12.796704,-8.586963,2.567236,3.864014,-8.461352,0.072974,4.861719,yes
1616135400.6954498,1,54.0,58.0,70.0,76.0,96.0,0.977783,0.205811,0.022461,0.031372,-0.122137,-0.564885,-0.137405,-9.417188,5.940772,13.714258,-9.112134,1.982251,4.755249,-8.917139,-0.739307,5.429956,yes
1616135400.70483,1,54.0,57.0,84.0,76.0,61.0,0.978271,0.205017,0.011475,0.026855,0.045802,-1.083969,-0.007634,-9.381299,5.400049,14.311206,-9.268847,1.461865,5.337842,-9.143237,-1.33147,5.579492,yes
1616135400.7154047,1,54.0,57.0,73.0,77.0,60.0,0.978027,0.206848,-0.008301,0.02356,0.167939,-1.557252,0.175573,-8.79751,5.167969,14.546875,-9.051123,1.205859,5.58667,-9.134863,-1.546802,5.359375,yes
1616135400.7253735,1,54.0,58.0,75.0,78.0,60.0,0.976685,0.210449,-0.035767,0.021606,0.267176,-1.969466,0.335878,-7.833301,4.880859,14.282495,-8.606104,0.86731,5.376123,-8.951831,-1.661646,4.56145,yes
1616135400.7346234,1,54.0,58.0,75.0,78.0,62.0,0.973755,0.215332,-0.069824,0.020996,0.335878,-2.312977,0.48855,-6.574805,4.712183,13.600611,-7.995996,0.630444,4.805493,-8.564234,-1.544409,3.414209,yes
1616135400.745463,1,53.0,58.0,72.0,76.0,63.0,0.968933,0.220642,-0.109253,0.021606,0.351145,-2.580153,0.618321,-5.22898,4.718164,12.650757,-7.396655,0.573022,4.038672,-8.079737,-1.181934,2.15332,yes
1616135400.7555065,1,53.0,58.0,73.0,78.0,63.0,0.961914,0.225464,-0.15271,0.022644,0.320611,-2.816794,0.694656,-4.110449,4.699023,11.404223,-7.089209,0.515601,3.057715,-7.675391,-0.704614,0.668726,yes
1616135400.7646,1,53.0,57.0,78.0,75.0,61.0,0.952271,0.229553,-0.199646,0.023132,0.282443,-3.061069,0.709924,-3.265869,4.659546,9.994995,-7.095191,0.465356,2.009766,-7.327271,-0.143555,-0.935498,yes
1616135400.775684,1,53.0,58.0,74.0,79.0,59.0,0.939575,0.232727,-0.249939,0.022156,0.236641,-3.290076,0.671756,-2.192798,4.62605,8.399145,-6.896606,0.448608,0.885254,-6.504224,0.516797,-2.439233,yes
1616135400.7845612,1,53.0,57.0,56.0,75.0,63.0,0.923767,0.234436,-0.302124,0.019531,0.122137,-3.351145,0.618321,-0.072974,4.902392,7.193286,-5.632129,0.772803,0.259595,-4.878467,1.165186,-2.685669,yes
1616135400.795552,1,53.0,58.0,69.0,75.0,60.0,0.906372,0.232727,-0.352112,0.015808,-0.099237,-3.10687,0.549618,2.829224,5.262475,6.243433,-3.497949,1.236963,-0.063403,-2.825635,1.601831,-1.790845,yes
1616135400.8046849,1,54.0,58.0,72.0,76.0,60.0,0.889648,0.227234,-0.395935,0.011353,-0.320611,-2.648855,0.473282,5.762525,5.234961,5.279223,-1.191504,1.360181,-0.435449,-0.784766,1.588672,-0.56106,yes
1616135400.8145626,1,54.0,58.0,73.0,79.0,58.0,0.874817,0.218933,-0.432129,0.007324,-0.442748,-2.137405,0.427481,8.12998,4.640405,4.130786,0.689062,0.947461,-1.069482,1.04436,1.15083,0.312231,yes
1616135400.8248065,1,54.0,57.0,76.0,74.0,61.0,0.862305,0.209473,-0.460938,0.004761,-0.450382,-1.641221,0.412214,9.78684,3.765918,2.94646,1.976269,0.267969,-1.82793,2.531348,0.546704,0.778784,yes
1616135400.834784,1,54.0,57.0,73.0,80.0,62.0,0.852295,0.200745,-0.482971,0.003906,-0.374046,-1.206107,0.381679,10.613477,2.903394,1.807593,2.528955,-0.41272,-2.629443,3.59126,0.056226,0.754858,yes
1616135400.8446076,1,54.0,57.0,72.0,74.0,60.0,0.844543,0.193726,-0.499207,0.004089,-0.267176,-0.839695,0.312977,10.900586,2.307642,0.815869,2.621069,-0.858936,-3.363965,4.317407,-0.168677,0.501245,yes
1616135400.8547497,1,54.0,56.0,74.0,76.0,61.0,0.83905,0.188782,-0.510254,0.004883,-0.175573,-0.496183,0.229008,11.045337,1.966699,0.039478,2.635425,-1.088623,-3.95852,4.862915,-0.22251,0.30625,yes
1616135400.8648305,1,54.0,58.0,74.0,79.0,61.0,0.83606,0.185669,-0.516235,0.005981,-0.122137,-0.145038,0.145038,11.334839,1.909277,-0.516797,2.853149,-1.071875,-4.416699,5.351001,-0.117236,0.384009,yes
1616135400.8747013,1,54.0,57.0,74.0,76.0,60.0,0.836121,0.183533,-0.516846,0.007263,-0.114504,0.259542,0.068702,11.887525,2.067188,-0.860132,3.390283,-0.866113,-4.763623,5.857031,0.087329,0.782373,yes
1616135400.884694,1,54.0,58.0,72.0,75.0,64.0,0.840088,0.18158,-0.511108,0.008606,-0.160305,0.740458,-0.007634,12.528735,2.298071,-1.070679,4.081738,-0.605322,-5.103369,6.436035,0.337354,1.236963,yes
1616135400.894814,1,54.0,58.0,72.0,76.0,62.0,0.848145,0.179626,-0.49823,0.009644,-0.21374,1.267176,-0.10687,13.311109,2.380615,-1.300366,4.994507,-0.510815,-5.601026,7.327271,0.470142,1.628149,yes
1616135400.904899,1,54.0,58.0,73.0,77.0,63.0,0.860779,0.177551,-0.476868,0.01062,-0.274809,1.946565,-0.244275,14.536108,2.424878,-1.537231,6.452783,-0.471338,-6.261377,8.720947,0.56106,2.162891,yes
1616135400.9145432,1,54.0,58.0,74.0,76.0,63.0,0.878357,0.175354,-0.444458,0.011169,-0.351145,2.770992,-0.412214,15.530225,2.323193,-2.116235,7.839282,-0.598145,-7.440918,10.624243,0.735718,1.929614,yes
1616135400.924751,1,54.0,58.0,72.0,79.0,61.0,0.900146,0.172852,-0.399658,0.010925,-0.427481,3.59542,-0.603053,15.323267,1.867407,-3.244336,8.234057,-1.095801,-9.327466,12.44978,0.977368,-0.165088,yes
1616135400.9348383,1,54.0,58.0,72.0,86.0,96.0,0.923828,0.169983,-0.342834,0.009521,-0.480916,4.251908,-0.778626,13.708277,1.110156,-4.615283,7.468432,-1.903296,-11.544189,13.241724,1.168774,-3.993213,yes
1616135400.944824,1,54.0,58.0,73.0,77.0,64.0,0.946472,0.166138,-0.276672,0.007202,-0.541985,4.587786,-0.847328,10.492651,0.598145,-5.731421,5.336646,-2.444019,-13.489355,11.808569,1.568335,-8.63003,yes
1616135400.9548385,1,51.0,57.0,75.0,76.0,61.0,0.964966,0.160034,-0.207703,0.0047,-0.679389,4.29771,-0.687023,5.748169,1.075464,-5.62854,1.804004,-1.932007,-14.080322,7.416992,2.439233,-12.009546,yes
1616135400.9647274,1,51.0,57.0,74.0,122.0,58.0,0.977722,0.150024,-0.146606,0.003662,-0.877863,3.358779,-0.351145,0.647192,1.928418,-3.690552,-2.172461,-0.935498,-12.626831,1.574316,2.903394,-12.412695,yes
1616135400.9746711,1,49.0,57.0,68.0,82.0,60.0,0.985291,0.136719,-0.101807,0.003845,-0.923664,2.10687,-0.129771,-3.992017,2.081543,-0.605322,-5.968286,-0.550293,-9.833496,-3.861621,2.247827,-10.611084,yes
1616135400.984687,1,53.0,58.0,72.0,76.0,62.0,0.989441,0.124329,-0.074402,0.000549,-0.717557,0.969466,-0.312977,-7.164575,1.739404,2.984741,-8.608496,-0.669922,-6.402539,-7.558154,1.075464,-7.566528,yes
1616135400.9948454,1,54.0,57.0,73.0,76.0,60.0,0.991394,0.115173,-0.061035,-0.008301,-0.519084,0.21374,-0.587786,-8.164673,1.862622,6.54729,-9.331055,-0.385205,-2.917749,-8.901587,0.573022,-4.017138,yes
1616135401.0046942,1,53.0,56.0,70.0,74.0,58.0,0.992371,0.107666,-0.056885,-0.018982,-0.480916,-0.137405,-0.59542,-7.443311,1.936792,9.442309,-8.509204,-0.178247,-0.065796,-8.444605,0.26438,-1.027612,yes
1616135401.0150838,1,54.0,53.0,73.0,78.0,64.0,0.992981,0.099854,-0.057068,-0.027405,-0.442748,-0.221374,-0.427481,-6.116626,1.384106,11.551367,-7.172949,-0.58977,2.009766,-7.378711,-0.49646,1.063501,yes
1616135401.0245724,1,54.0,58.0,70.0,82.0,61.0,0.993347,0.09375,-0.058167,-0.032715,-0.206107,-0.221374,-0.259542,-5.243335,0.223706,12.870874,-6.31521,-1.63772,3.308936,-6.749463,-1.728638,2.225098,yes
1616135401.0346072,1,56.0,58.0,73.0,76.0,62.0,0.993225,0.092224,-0.060486,-0.035461,0.152672,-0.328244,-0.114504,-4.927515,-0.720166,13.628125,-6.040063,-2.55647,4.066186,-6.646582,-2.740698,2.800513,yes
1616135401.044682,1,53.0,58.0,75.0,78.0,65.0,0.992432,0.096436,-0.066223,-0.036133,0.48855,-0.587786,0.022901,-4.94187,-0.842188,14.014526,-6.160889,-2.764624,4.482495,-6.872681,-3.02063,3.049341,yes
1616135401.054742,1,56.0,58.0,74.0,78.0,61.0,0.990784,0.105103,-0.077637,-0.034851,0.671756,-0.954198,0.160305,-4.804297,0.0323,14.155688,-6.239844,-2.061206,4.69065,-7.012647,-2.428467,3.174951,yes
1616135401.0645509,1,54.0,58.0,72.0,76.0,60.0,0.988159,0.115417,-0.095154,-0.032776,0.679389,-1.29771,0.229008,-4.396362,1.189111,13.959497,-6.164477,-1.106567,4.598535,-6.985132,-1.559961,3.019433,yes
1616135401.0747037,1,54.0,58.0,70.0,75.0,63.0,0.984619,0.125183,-0.117615,-0.031494,0.633588,-1.564885,0.198473,-3.6104,2.100684,13.457056,-5.802002,-0.387598,4.234863,-6.656152,-0.856543,2.587573,yes
1616135401.0846918,1,54.0,58.0,75.0,79.0,61.0,0.97998,0.133789,-0.14386,-0.031372,0.572519,-1.755725,0.160305,-2.404541,2.679688,12.745264,-5.085425,0.020337,3.701318,-5.938379,-0.409131,2.028906,yes
1616135401.094901,1,54.0,58.0,70.0,76.0,61.0,0.974304,0.141174,-0.172424,-0.031433,0.51145,-1.816794,0.175573,-0.820654,3.042163,12.003565,-4.025513,0.239258,3.177344,-4.870093,-0.16748,1.612598,yes
1616135401.1045337,1,54.0,56.0,70.0,78.0,61.0,0.967834,0.147217,-0.201477,-0.030579,0.465649,-1.801527,0.251908,0.628052,3.099585,11.1219,-3.105567,0.185425,2.542114,-3.861621,-0.147144,1.096997,yes
1616135401.114624,1,55.0,58.0,74.0,73.0,63.0,0.960571,0.152405,-0.230591,-0.028137,0.465649,-1.80916,0.343511,1.687964,2.952441,10.082324,-2.568433,-0.043066,1.780078,-3.093604,-0.218921,0.378027,yes
1616135401.1245668,1,54.0,58.0,74.0,76.0,61.0,0.952332,0.157593,-0.26001,-0.024536,0.496183,-1.832061,0.412214,2.484692,2.804101,9.043945,-2.29209,-0.261987,1.055127,-2.500244,-0.256006,-0.33855,yes
1616135401.1347349,1,54.0,58.0,74.0,77.0,64.0,0.942871,0.162598,-0.290039,-0.020081,0.48855,-1.870229,0.465649,3.384302,2.92373,8.106054,-1.91167,-0.194995,0.472534,-1.838696,-0.070581,-0.726147,yes
1616135401.144706,1,54.0,56.0,73.0,79.0,60.0,0.932617,0.166626,-0.319702,-0.015503,0.396947,-1.80916,0.480916,4.45498,3.279028,7.323682,-1.337451,0.135181,0.070581,-1.116138,0.287109,-0.695044,yes
1616135401.1545515,1,55.0,58.0,73.0,78.0,63.0,0.922302,0.168762,-0.347412,-0.011536,0.267176,-1.679389,0.458015,5.374927,3.477612,6.548486,-0.866113,0.34812,-0.326587,-0.478516,0.546704,-0.668726,yes
1616135401.164449,1,54.0,58.0,74.0,80.0,63.0,0.912354,0.16925,-0.372681,-0.008362,0.160305,-1.541985,0.412214,6.080737,3.464453,5.86062,-0.555078,0.375635,-0.655566,0.004785,0.630444,-0.692651,yes
1616135401.174664,1,54.0,58.0,73.0,78.0,63.0,0.902832,0.168701,-0.395447,-0.006104,0.091603,-1.381679,0.343511,7.009058,3.430957,5.295972,0.031104,0.398364,-0.880469,0.60293,0.634033,-0.409131,yes
1616135401.18467,1,54.0,58.0,72.0,79.0,65.0,0.89447,0.167358,-0.41449,-0.004761,0.007634,-1.099237,0.267176,8.123999,3.374732,4.876074,0.872095,0.401953,-1.006079,1.26687,0.5479,0.162695,yes
1616135401.1945562,1,54.0,58.0,71.0,75.0,59.0,0.887878,0.165283,-0.429382,-0.00354,-0.038168,-0.824427,0.236641,8.810669,3.086426,4.335351,1.349414,0.179443,-1.314722,1.830322,0.350513,0.321802,yes
1616135401.2045164,1,55.0,58.0,74.0,76.0,61.0,0.88269,0.162964,-0.440735,-0.001892,-0.038168,-0.610687,0.221374,9.070264,2.722754,3.869995,1.451099,-0.112451,-1.600635,2.148535,0.137573,0.200977,yes
1616135401.2144763,1,55.0,58.0,72.0,80.0,59.0,0.878662,0.161072,-0.449463,6.1e-05,-0.007634,-0.458015,0.206107,9.043945,2.397363,3.480005,1.302759,-0.375635,-1.851856,2.293286,-0.020337,-0.08374,yes
1616135401.2245288,1,54.0,58.0,73.0,76.0,62.0,0.875305,0.159729,-0.45636,0.002502,0.030534,-0.358779,0.198473,8.892016,2.125806,3.195288,1.053931,-0.590967,-2.021729,2.316016,-0.13877,-0.397168,yes
1616135401.234532,1,54.0,58.0,73.0,78.0,62.0,0.872498,0.159058,-0.461975,0.00531,0.076336,-0.282443,0.198473,8.74248,2.020532,3.036182,0.825439,-0.650781,-2.083935,2.25022,-0.142358,-0.599341,yes
1616135401.2444825,1,54.0,57.0,72.0,75.0,62.0,0.870178,0.158997,-0.466309,0.008057,0.083969,-0.21374,0.167939,8.540308,2.117432,3.000293,0.56106,-0.520386,-2.042065,2.052832,0.010767,-0.733325,yes
1616135401.254449,1,59.0,58.0,74.0,79.0,63.0,0.868408,0.159363,-0.46936,0.009888,0.068702,-0.145038,0.099237,8.344116,2.26936,3.043359,0.324194,-0.351709,-1.939185,1.813574,0.177051,-0.814673,yes
1616135401.264375,1,54.0,58.0,74.0,108.0,61.0,0.86731,0.15979,-0.471252,0.010559,0.022901,-0.083969,0.030534,8.356079,2.469141,3.152222,0.311035,-0.149536,-1.793237,1.65686,0.331372,-0.689062,yes
1616135401.2745037,1,54.0,56.0,69.0,76.0,62.0,0.867004,0.159851,-0.471802,0.010315,-0.038168,0.022901,-0.022901,8.536718,2.612695,3.271851,0.48689,-0.007178,-1.662842,1.625757,0.405542,-0.439038,yes
1616135401.284641,1,54.0,57.0,74.0,78.0,61.0,0.867615,0.159302,-0.470886,0.009644,-0.076336,0.122137,-0.038168,8.590551,2.545703,3.356787,0.552686,-0.07417,-1.599438,1.620972,0.312231,-0.374438,yes
1616135401.2946863,1,54.0,58.0,71.0,80.0,60.0,0.868896,0.158386,-0.468811,0.009277,-0.076336,0.19084,-0.030534,8.408716,2.329175,3.430957,0.394775,-0.282324,-1.568335,1.539624,0.124414,-0.551489,yes
1616135401.304497,1,54.0,57.0,69.0,73.0,62.0,0.870361,0.157654,-0.46637,0.009583,-0.030534,0.198473,0.0,8.065381,2.062402,3.515893,0.078955,-0.53833,-1.533643,1.372144,-0.086133,-0.868506,yes
1616135401.3145847,1,54.0,57.0,72.0,75.0,61.0,0.871643,0.157654,-0.463989,0.01062,0.045802,0.175573,0.007634,7.716064,1.878174,3.673804,-0.242847,-0.717773,-1.418799,1.122119,-0.246436,-1.124512,yes
1616135401.324451,1,55.0,58.0,71.0,77.0,61.0,0.872559,0.158691,-0.461792,0.011902,0.10687,0.145038,0.0,7.416992,1.896118,3.90708,-0.516797,-0.709399,-1.217822,0.799121,-0.257202,-1.242944,yes
1616135401.3345726,1,54.0,58.0,73.0,77.0,65.0,0.873291,0.160706,-0.459778,0.013,0.129771,0.114504,-0.022901,7.223193,2.191602,4.214526,-0.68667,-0.441431,-0.935498,0.425879,-0.058618,-1.163989,yes
1616135401.3445065,1,54.0,58.0,74.0,74.0,63.0,0.87384,0.162781,-0.457886,0.013428,0.091603,0.091603,-0.038168,7.171753,2.692847,4.582983,-0.712988,0.025122,-0.587378,0.049048,0.287109,-0.875684,yes
1616135401.3543274,1,54.0,57.0,72.0,76.0,63.0,0.874573,0.16394,-0.456116,0.013062,0.0,0.091603,-0.038168,7.292578,3.195288,4.935889,-0.567041,0.501245,-0.258398,-0.211743,0.62207,-0.453394,yes
1616135401.3643804,1,54.0,58.0,72.0,76.0,62.0,0.87561,0.163757,-0.454163,0.012085,-0.091603,0.114504,-0.038168,7.487573,3.448901,5.193091,-0.344531,0.745288,-0.037085,-0.299072,0.759644,-0.088525,yes
1616135401.3746347,1,54.0,73.0,75.0,81.0,59.0,0.877075,0.162476,-0.451904,0.010925,-0.137405,0.152672,-0.038168,7.659839,3.367554,5.310327,-0.142358,0.671118,0.029907,-0.218921,0.6448,0.087329,yes
1616135401.3845294,1,55.0,56.0,74.0,76.0,64.0,0.878662,0.160828,-0.449402,0.010132,-0.122137,0.175573,-0.030534,7.692139,3.060107,5.329468,-0.078955,0.379224,-0.004785,-0.104077,0.37085,0.038281,yes
1616135401.394613,1,54.0,58.0,73.0,77.0,63.0,0.880188,0.159607,-0.446899,0.009888,-0.061069,0.175573,-0.022901,7.62395,2.702417,5.330664,-0.11604,0.034692,-0.055029,-0.031104,0.062207,-0.112451,yes
1616135401.404408,1,54.0,58.0,72.0,78.0,61.0,0.881409,0.159424,-0.444519,0.010193,0.015267,0.152672,-0.022901,7.495947,2.444019,5.35459,-0.214136,-0.221313,-0.07417,-0.035889,-0.161499,-0.269165,yes
1616135401.414613,1,54.0,58.0,73.0,77.0,59.0,0.882202,0.160278,-0.442505,0.010742,0.083969,0.114504,-0.030534,7.428955,2.32439,5.425171,-0.256006,-0.352905,-0.0323,-0.072974,-0.293091,-0.314624,yes
1616135401.4244714,1,55.0,58.0,70.0,76.0,61.0,0.882751,0.161926,-0.440918,0.011658,0.122137,0.091603,-0.022901,7.45647,2.360278,5.532837,-0.208154,-0.339746,0.056226,-0.114844,-0.312231,-0.224902,yes
1616135401.434415,1,54.0,58.0,74.0,77.0,63.0,0.883118,0.163879,-0.439453,0.012573,0.129771,0.083969,-0.022901,7.522265,2.625854,5.682373,-0.124414,-0.101685,0.192603,-0.206958,-0.13877,-0.016748,yes
1616135401.4444847,1,54.0,58.0,73.0,75.0,59.0,0.883545,0.165588,-0.437866,0.013,0.068702,0.083969,-0.022901,7.510303,3.015845,5.841479,-0.113647,0.259595,0.336157,-0.372046,0.156714,0.172266,yes
1616135401.4545112,1,54.0,57.0,73.0,78.0,63.0,0.884094,0.166321,-0.436523,0.012817,-0.007634,0.061069,-0.015267,7.491162,3.267066,5.961108,-0.113647,0.494067,0.437842,-0.489282,0.345728,0.297876,yes
1616135401.4644215,1,54.0,57.0,73.0,74.0,63.0,0.884644,0.165894,-0.435547,0.01239,-0.061069,0.038168,-0.007634,7.57251,3.268262,6.010156,-0.019141,0.49646,0.467749,-0.452197,0.327783,0.38999,yes
1616135401.4735458,1,55.0,59.0,73.0,76.0,63.0,0.885193,0.164795,-0.434875,0.012146,-0.076336,0.045802,0.007634,7.644287,3.087622,6.001782,0.059814,0.331372,0.440234,-0.354102,0.172266,0.388794,yes
1616135401.4838724,1,54.0,57.0,72.0,78.0,60.0,0.885681,0.163635,-0.434265,0.012085,-0.061069,0.038168,0.015267,7.617969,2.890234,5.975464,0.039478,0.151929,0.395972,-0.302661,0.019141,0.297876,yes
1616135401.493672,1,54.0,57.0,72.0,76.0,66.0,0.886047,0.162842,-0.433838,0.012207,-0.038168,0.022901,0.007634,7.583276,2.720361,5.952734,0.00957,-0.003589,0.361279,-0.269165,-0.112451,0.211743,yes
1616135401.5037978,1,55.0,58.0,73.0,78.0,59.0,0.88623,0.162415,-0.433594,0.01239,-0.007634,0.007634,0.007634,7.627539,2.564844,5.949145,0.056226,-0.150732,0.350513,-0.208154,-0.253613,0.200977,yes
1616135401.5138192,1,55.0,57.0,74.0,78.0,59.0,0.886353,0.162354,-0.433289,0.012756,0.022901,0.015267,0.0,7.68855,2.475122,5.945557,0.119629,-0.236865,0.342139,-0.147144,-0.339746,0.221313,yes
1616135401.5239549,1,54.0,58.0,70.0,76.0,61.0,0.886536,0.162781,-0.432922,0.013184,0.038168,0.022901,0.0,7.701709,2.476318,5.96709,0.136377,-0.239258,0.358887,-0.14834,-0.349316,0.244043,yes
1616135402.8326776,1,54.0,58.0,74.0,74.0,60.0,0.892456,0.115051,-0.436035,0.011047,0.0,0.007634,-0.007634,7.680176,1.882959,5.647681,0.027515,-0.034692,-0.165088,0.14834,0.0,-0.082544,yes
1616135402.8425531,1,55.0,58.0,72.0,79.0,62.0,0.892517,0.115051,-0.435974,0.011047,-0.007634,0.007634,-0.007634,7.655054,1.891333,5.652466,0.002393,-0.026318,-0.162695,0.130396,0.008374,-0.099292,yes
1616135402.852576,1,54.0,58.0,95.0,77.0,63.0,0.892517,0.11499,-0.435913,0.011047,-0.007634,0.0,0.0,7.638306,1.88894,5.671607,-0.011963,-0.027515,-0.143555,0.10647,0.004785,-0.099292,yes
1616135402.8624794,1,54.0,58.0,74.0,75.0,61.0,0.892517,0.114868,-0.435913,0.010986,-0.007634,0.0,0.0,7.635913,1.893726,5.694336,-0.014355,-0.021533,-0.120825,0.087329,0.005981,-0.086133,yes
1616135402.8725305,1,55.0,58.0,76.0,78.0,62.0,0.892578,0.114746,-0.435913,0.010986,-0.015267,-0.007634,0.0,7.631128,1.903296,5.723047,-0.019141,-0.00957,-0.094507,0.062207,0.011963,-0.071777,yes
1616135402.882532,1,55.0,58.0,74.0,76.0,61.0,0.892578,0.114624,-0.435974,0.010925,-0.015267,-0.007634,0.0,7.632324,1.928418,5.752954,-0.019141,0.015552,-0.063403,0.034692,0.029907,-0.049048,yes
1616135402.8927512,1,54.0,57.0,78.0,73.0,58.0,0.892578,0.114441,-0.435913,0.010864,-0.015267,0.0,0.0,7.659839,1.942773,5.782861,0.008374,0.033496,-0.034692,0.027515,0.038281,-0.007178,yes
1616135402.9025977,1,55.0,58.0,72.0,79.0,67.0,0.892639,0.114258,-0.435852,0.010803,-0.015267,0.007634,0.0,7.675391,1.955933,5.806787,0.025122,0.049048,-0.013159,0.019141,0.047852,0.020337,yes
1616135402.9126065,1,54.0,58.0,88.0,78.0,61.0,0.892761,0.114075,-0.43573,0.010742,-0.015267,0.007634,0.0,7.667017,1.957129,5.816358,0.017944,0.052637,-0.007178,0.00957,0.050244,0.019141,yes
1616135402.9224443,1,55.0,58.0,73.0,77.0,61.0,0.892822,0.113892,-0.435547,0.010742,-0.015267,0.007634,0.0,7.637109,1.945166,5.827124,-0.008374,0.043066,0.0,-0.00957,0.04187,0.001196,yes
1616135402.932479,1,55.0,58.0,73.0,79.0,61.0,0.892944,0.11377,-0.435425,0.010803,-0.007634,0.0,0.0,7.590454,1.934399,5.837891,-0.053833,0.034692,0.007178,-0.043066,0.035889,-0.029907,yes
1616135402.942588,1,54.0,58.0,73.0,77.0,67.0,0.892944,0.113647,-0.435364,0.010864,-0.007634,-0.007634,0.007634,7.539014,1.949951,5.845068,-0.104077,0.052637,0.013159,-0.080151,0.056226,-0.062207,yes
1616135402.952497,1,55.0,59.0,73.0,79.0,61.0,0.892944,0.113525,-0.435486,0.010925,-0.007634,-0.015267,0.007634,7.524658,1.961914,5.86062,-0.120825,0.068188,0.029907,-0.105273,0.069385,-0.062207,yes
1616135402.9626126,1,58.0,58.0,72.0,75.0,61.0,0.892822,0.113403,-0.43573,0.010986,-0.015267,-0.022901,0.007634,7.531836,1.961914,5.863013,-0.117236,0.070581,0.035889,-0.108862,0.069385,-0.056226,yes
1616135402.9725883,1,56.0,58.0,72.0,78.0,65.0,0.892761,0.113159,-0.435913,0.010986,-0.015267,-0.022901,0.007634,7.560547,1.951147,5.865405,-0.090918,0.0646,0.040674,-0.094507,0.061011,-0.033496,yes
1616135402.9824858,1,54.0,58.0,73.0,79.0,63.0,0.8927,0.112976,-0.436157,0.011047,-0.015267,-0.015267,0.007634,7.585669,1.906885,5.85105,-0.069385,0.023926,0.028711,-0.066992,0.021533,-0.0323,yes
1616135402.9925342,1,57.0,58.0,72.0,52.0,58.0,0.892639,0.112793,-0.436279,0.011108,-0.007634,-0.007634,0.0,7.596436,1.850659,5.825928,-0.061011,-0.027515,0.005981,-0.038281,-0.022729,-0.049048,yes
1616135403.00271,1,54.0,58.0,74.0,79.0,63.0,0.892639,0.112732,-0.43634,0.011169,0.0,-0.007634,0.0,7.588061,1.817163,5.80918,-0.070581,-0.058618,-0.00957,-0.028711,-0.049048,-0.071777,yes
1616135403.0124836,1,55.0,58.0,74.0,76.0,62.0,0.892578,0.112732,-0.43634,0.011292,0.007634,-0.007634,0.0,7.570117,1.808789,5.792432,-0.087329,-0.065796,-0.025122,-0.026318,-0.05144,-0.095703,yes
1616135403.022445,1,55.0,58.0,74.0,78.0,59.0,0.892578,0.112854,-0.436401,0.011414,0.007634,-0.007634,0.0,7.548584,1.801611,5.784058,-0.111255,-0.07417,-0.033496,-0.033496,-0.056226,-0.120825,yes
1616135403.0324967,1,56.0,58.0,73.0,78.0,61.0,0.892456,0.112976,-0.436523,0.011536,0.007634,-0.015267,0.0,7.546191,1.825537,5.77688,-0.114844,-0.05144,-0.037085,-0.035889,-0.0323,-0.120825,yes
1616135403.04238,1,54.0,57.0,73.0,78.0,64.0,0.892395,0.113098,-0.436646,0.011597,0.0,-0.015267,0.0,7.554565,1.854248,5.773291,-0.107666,-0.023926,-0.038281,-0.033496,-0.005981,-0.111255,yes
1616135403.0524533,1,59.0,58.0,73.0,78.0,62.0,0.892334,0.113159,-0.436768,0.011597,0.0,-0.015267,0.0,7.547388,1.865015,5.760132,-0.117236,-0.014355,-0.049048,-0.0323,0.004785,-0.123218,yes
1616135403.0626464,1,54.0,58.0,75.0,75.0,64.0,0.892212,0.113159,-0.437012,0.011597,-0.007634,-0.022901,0.0,7.524658,1.857837,5.749365,-0.142358,-0.021533,-0.055029,-0.04187,0.001196,-0.147144,yes
1616135403.0724232,1,55.0,58.0,72.0,82.0,64.0,0.892029,0.113159,-0.437378,0.011536,-0.007634,-0.030534,0.0,7.525855,1.848267,5.743384,-0.145947,-0.031104,-0.055029,-0.043066,-0.007178,-0.151929,yes
1616135403.08262,1,55.0,58.0,74.0,76.0,63.0,0.891785,0.113098,-0.437866,0.011475,-0.007634,-0.038168,0.0,7.556958,1.838696,5.731421,-0.120825,-0.039478,-0.058618,-0.023926,-0.015552,-0.136377,yes
1616135403.0924432,1,54.0,58.0,70.0,78.0,63.0,0.891602,0.113037,-0.438354,0.011414,-0.007634,-0.038168,0.0,7.597632,1.8375,5.717065,-0.087329,-0.039478,-0.065796,0.001196,-0.016748,-0.114844,yes
1616135403.1020842,1,54.0,58.0,72.0,78.0,60.0,0.891357,0.112976,-0.438782,0.011414,-0.007634,-0.030534,0.0,7.615576,1.842285,5.703906,-0.075366,-0.0323,-0.070581,0.011963,-0.00957,-0.10647,yes
1616135403.1124935,1,56.0,58.0,76.0,80.0,62.0,0.891174,0.112976,-0.439209,0.011414,-0.007634,-0.030534,0.0,7.608398,1.859033,5.691943,-0.088525,-0.015552,-0.076563,0.007178,0.007178,-0.117236,yes
1616135403.1226175,1,55.0,58.0,75.0,31.0,65.0,0.89093,0.112915,-0.439697,0.011414,-0.007634,-0.038168,0.0,7.588061,1.859033,5.687158,-0.114844,-0.013159,-0.072974,-0.010767,0.010767,-0.135181,yes
1616135403.1324108,1,55.0,58.0,70.0,80.0,60.0,0.890625,0.112854,-0.440308,0.011414,-0.007634,-0.045802,0.007634,7.55935,1.855444,5.67998,-0.151929,-0.015552,-0.069385,-0.035889,0.010767,-0.162695,yes
1616135403.1417344,1,56.0,58.0,75.0,79.0,62.0,0.890259,0.112732,-0.441101,0.011475,-0.007634,-0.061069,0.007634,7.531836,1.867407,5.67998,-0.19021,0.0,-0.056226,-0.071777,0.026318,-0.181836,yes
1616135403.1525018,1,56.0,59.0,74.0,78.0,62.0,0.889832,0.112671,-0.442017,0.011414,-0.007634,-0.076336,0.007634,7.513892,1.896118,5.683569,-0.220117,0.029907,-0.037085,-0.107666,0.053833,-0.189014,yes
1616135403.1625388,1,55.0,58.0,74.0,76.0,61.0,0.889282,0.112488,-0.443115,0.011292,-0.015267,-0.083969,0.007634,7.516284,1.910474,5.690747,-0.230884,0.047852,-0.011963,-0.136377,0.066992,-0.179443,yes
1616135403.1716695,1,55.0,58.0,74.0,76.0,64.0,0.888733,0.112244,-0.444336,0.011108,-0.022901,-0.091603,0.007634,7.522265,1.912866,5.684766,-0.24165,0.053833,0.001196,-0.153125,0.070581,-0.179443,yes
1616135403.1825695,1,54.0,58.0,74.0,80.0,61.0,0.888062,0.112061,-0.445679,0.010864,-0.022901,-0.10687,0.0,7.49834,1.887744,5.659644,-0.282324,0.031104,0.0,-0.173462,0.052637,-0.217725,yes
1616135403.1918817,1,55.0,58.0,71.0,75.0,59.0,0.887329,0.111877,-0.447205,0.01062,-0.015267,-0.122137,-0.007634,7.474414,1.844678,5.61897,-0.325391,-0.007178,-0.015552,-0.181836,0.021533,-0.269165,yes
1616135403.202546,1,56.0,58.0,72.0,76.0,65.0,0.886414,0.111938,-0.448975,0.010254,0.0,-0.129771,-0.015267,7.437329,1.788452,5.549585,-0.385205,-0.065796,-0.052637,-0.179443,-0.020337,-0.349316,yes
1616135403.2124414,1,54.0,58.0,73.0,74.0,62.0,0.885376,0.112244,-0.450928,0.009827,0.015267,-0.152672,-0.030534,7.376318,1.745386,5.474219,-0.470142,-0.114844,-0.092114,-0.191406,-0.052637,-0.449805,yes
1616135403.2226112,1,54.0,58.0,72.0,77.0,61.0,0.884155,0.112976,-0.453186,0.009155,0.030534,-0.175573,-0.045802,7.354785,1.746582,5.416797,-0.517993,-0.129199,-0.10647,-0.204565,-0.058618,-0.500049,yes
1616135403.232438,1,54.0,58.0,70.0,76.0,63.0,0.882812,0.113892,-0.455627,0.008301,0.030534,-0.19084,-0.061069,7.322485,1.776489,5.358179,-0.579004,-0.119629,-0.118433,-0.228491,-0.039478,-0.555078,yes
1616135403.2424204,1,54.0,57.0,73.0,80.0,61.0,0.881226,0.11499,-0.458374,0.007141,0.030534,-0.221374,-0.076336,7.241138,1.819556,5.304346,-0.691455,-0.101685,-0.117236,-0.293091,-0.00957,-0.643604,yes
1616135403.2521129,1,54.0,56.0,72.0,75.0,59.0,0.879517,0.11615,-0.461426,0.005737,0.030534,-0.251908,-0.091603,7.19209,1.881763,5.244531,-0.775195,-0.068188,-0.117236,-0.340942,0.033496,-0.707007,yes
1616135403.2615883,1,55.0,58.0,76.0,81.0,63.0,0.877563,0.117371,-0.464844,0.004211,0.022901,-0.274809,-0.091603,7.206445,1.932007,5.175147,-0.797925,-0.047852,-0.118433,-0.350513,0.058618,-0.724951,yes
1616135403.271662,1,55.0,58.0,72.0,78.0,64.0,0.875427,0.118469,-0.468506,0.002563,0.015267,-0.282443,-0.091603,7.257886,2.000195,5.083032,-0.785962,-0.008374,-0.13877,-0.325391,0.104077,-0.720166,yes
1616135403.2819004,1,57.0,58.0,72.0,76.0,61.0,0.873291,0.119507,-0.47229,0.000854,0.007634,-0.282443,-0.091603,7.280615,2.074365,4.938281,-0.805103,0.035889,-0.209351,-0.276343,0.16748,-0.765625,yes
1616135403.2916594,1,55.0,57.0,73.0,76.0,60.0,0.871155,0.120544,-0.476013,-0.000977,0.007634,-0.274809,-0.099237,7.377515,2.161694,4.750464,-0.747681,0.093311,-0.322998,-0.150732,0.244043,-0.766821,yes
1616135403.301704,1,54.0,57.0,73.0,76.0,59.0,0.869141,0.121521,-0.47937,-0.002808,0.0,-0.229008,-0.099237,7.577295,2.247827,4.48728,-0.581396,0.150732,-0.517993,0.100488,0.324194,-0.715381,yes
1616135403.3117187,1,55.0,58.0,72.0,80.0,62.0,0.867554,0.12262,-0.481934,-0.004517,0.007634,-0.152672,-0.099237,7.806983,2.300464,4.110449,-0.376831,0.172266,-0.842188,0.483301,0.38999,-0.702222,yes
1616135403.321767,1,54.0,58.0,73.0,76.0,63.0,0.866577,0.12384,-0.483398,-0.005676,0.022901,-0.038168,-0.083969,8.03667,2.329175,3.637915,-0.159106,0.171069,-1.281226,0.971387,0.453394,-0.73811,yes
1616135403.3318322,1,56.0,58.0,74.0,76.0,60.0,0.866455,0.125427,-0.483154,-0.006165,0.061069,0.114504,-0.076336,8.286695,2.313623,3.107959,0.095703,0.124414,-1.807593,1.552783,0.489282,-0.797925,yes
1616135403.3417778,1,55.0,58.0,75.0,80.0,63.0,0.867554,0.127563,-0.480652,-0.005676,0.10687,0.305344,-0.061069,8.711377,2.257397,2.609107,0.551489,0.034692,-2.34353,2.25022,0.465356,-0.716577,yes
1616135403.351643,1,55.0,58.0,73.0,80.0,60.0,0.870178,0.130066,-0.47522,-0.003967,0.152672,0.557252,-0.038168,9.230566,2.197583,2.159302,1.135278,-0.057422,-2.88186,3.014648,0.436646,-0.557471,yes
1616135403.3618388,1,56.0,58.0,73.0,76.0,62.0,0.874695,0.132874,-0.466125,-0.001038,0.183206,0.854962,-0.022901,9.869385,2.028906,1.737012,1.880566,-0.258398,-3.458472,3.915454,0.314624,-0.360083,yes
1616135403.3716643,1,55.0,58.0,74.0,78.0,63.0,0.881287,0.136169,-0.452515,0.003479,0.267176,1.229008,-0.015267,10.818042,1.557568,1.319507,2.991919,-0.763232,-4.103271,5.133276,-0.087329,-0.062207,yes
1616135403.3819003,1,56.0,58.0,76.0,76.0,65.0,0.890442,0.140808,-0.432556,0.010254,0.419847,1.778626,-0.038168,12.454565,0.857739,0.858936,4.876074,-1.512109,-4.884448,7.010254,-0.687866,0.541919,yes
1616135403.3917403,1,56.0,57.0,70.0,79.0,63.0,0.903076,0.147827,-0.40271,0.019592,0.603053,2.587786,-0.10687,14.315991,0.31582,0.214136,7.131079,-2.144946,-5.977857,9.456665,-0.954639,0.911572,yes
1616135403.4017158,1,54.0,61.0,73.0,78.0,63.0,0.919373,0.157043,-0.359253,0.03064,0.717557,3.557252,-0.19084,15.367529,0.227295,-0.894824,8.798706,-2.386597,-7.680176,11.912646,-0.374438,-0.057422,yes
1616135403.4117117,1,56.0,58.0,74.0,80.0,64.0,0.937988,0.166504,-0.300964,0.04303,0.679389,4.465649,-0.21374,14.72273,0.616089,-2.487085,9.048731,-2.190405,-9.967481,13.256079,1.134082,-2.996704,yes
1616135403.421836,1,54.0,58.0,74.0,77.0,63.0,0.955994,0.173157,-0.229858,0.057068,0.48855,5.038168,-0.083969,11.863599,1.53125,-4.232471,7.361963,-1.455884,-12.409106,12.019116,3.290991,-7.415796,yes
1616135403.431776,1,55.0,59.0,75.0,77.0,61.0,0.96991,0.174622,-0.152466,0.073669,0.167939,5.030534,0.236641,7.070068,3.258691,-5.005273,3.919043,0.159106,-13.750147,7.375122,5.464648,-10.960401,yes
1616135403.4416506,1,56.0,58.0,74.0,76.0,61.0,0.977844,0.169739,-0.079041,0.093445,-0.206107,4.358778,0.656489,1.263281,5.118921,-3.910669,-0.562256,2.009766,-13.022802,0.632837,6.286499,-11.576489,yes
1616135403.4516735,1,53.0,56.0,72.0,74.0,61.0,0.980164,0.160461,-0.019104,0.114502,-0.343511,3.236641,0.89313,-4.189404,5.386889,-1.186719,-4.915552,2.345923,-10.473511,-5.316308,4.429858,-9.561938,yes
1616135403.4618614,1,54.0,56.0,73.0,76.0,61.0,0.979126,0.153137,0.023071,0.13147,-0.015267,2.038168,0.725191,-8.263965,4.182227,2.332764,-8.214917,1.18313,-6.995898,-8.815454,0.968994,-6.256592,yes
1616135403.471719,1,54.0,59.0,75.0,77.0,63.0,0.976868,0.152893,0.049744,0.140808,0.366412,1.061069,0.396947,-10.539307,4.086524,6.117822,-10.008154,1.021631,-3.174951,-10.271338,-1.06709,-2.148535,yes
1616135403.4818485,1,55.0,58.0,74.0,76.0,62.0,0.974854,0.157043,0.064392,0.144287,0.335878,0.435115,0.152672,-11.229566,5.372534,9.591846,-10.442408,2.189209,0.356494,-10.430445,-1.260889,1.884155,yes
1616135403.4915905,1,54.0,58.0,72.0,78.0,59.0,0.97406,0.158936,0.071228,0.144226,0.038168,0.083969,-0.022901,-11.084814,6.304443,12.165064,-10.173243,3.068481,2.959619,-9.892115,-1.158008,4.737305,yes
1616135403.501856,1,53.0,58.0,73.0,78.0,59.0,0.974731,0.156677,0.073059,0.141235,-0.19084,-0.145038,-0.198473,-10.605103,6.193189,13.830297,-9.64209,2.996704,4.616479,-9.047534,-1.459473,6.26377,yes
1616135403.5117278,1,54.0,58.0,62.0,80.0,63.0,0.97644,0.152039,0.070862,0.135559,-0.267176,-0.389313,-0.335878,-10.089502,5.467041,14.788526,-9.137256,2.368652,5.540015,-8.289087,-1.982251,6.864306,yes
1616135403.5215175,1,53.0,57.0,69.0,80.0,60.0,0.978638,0.147339,0.064209,0.127869,-0.259542,-0.687023,-0.40458,-9.488965,4.533936,15.229956,-8.62644,1.546802,5.935987,-7.659839,-2.507422,6.858325,yes
1616135403.5317254,1,34.0,58.0,74.0,76.0,59.0,0.981018,0.143799,0.052307,0.118896,-0.19084,-1.015267,-0.427481,-8.77478,3.60083,15.269434,-8.103662,0.712988,5.928809,-7.174146,-2.947656,6.414502,yes
1616135403.5416963,1,56.0,58.0,76.0,77.0,61.0,0.983154,0.142273,0.035217,0.108765,-0.091603,-1.351145,-0.458015,-7.939771,2.743091,14.985913,-7.564136,-0.072974,5.607007,-6.78894,-3.287402,5.633325,yes
1616135403.5515666,1,54.0,58.0,74.0,77.0,59.0,0.984741,0.143311,0.012695,0.097473,0.045802,-1.694656,-0.473282,-6.946851,2.042065,14.448779,-6.975562,-0.747681,5.054321,-6.43125,-3.481201,4.610498,yes
1616135403.5619178,1,54.0,59.0,76.0,75.0,60.0,0.985291,0.147095,-0.015015,0.085205,0.19084,-2.007634,-0.48855,-5.854639,1.574316,13.692724,-6.38938,-1.240552,4.320996,-6.098681,-3.476416,3.424976,yes
1616135403.57171,1,53.0,58.0,72.0,75.0,62.0,0.984314,0.153564,-0.04718,0.072205,0.29771,-2.274809,-0.48855,-4.632031,1.681982,12.840967,-5.758935,-1.213037,3.546997,-5.732617,-2.973975,2.342334,yes
1616135403.58158,1,54.0,58.0,79.0,80.0,61.0,0.981628,0.161194,-0.082642,0.059448,0.282443,-2.427481,-0.427481,-3.18811,2.336353,11.999975,-4.965796,-0.667529,2.843579,-5.172754,-2.002588,1.550391,yes
1616135403.5915828,1,54.0,57.0,72.0,78.0,73.0,0.977295,0.167664,-0.119995,0.047913,0.167939,-2.465649,-0.312977,-1.623364,3.106763,11.175733,-4.078149,0.007178,2.209546,-4.425073,-0.959424,1.001294,yes
1616135403.601692,1,57.0,58.0,75.0,79.0,63.0,0.971619,0.171509,-0.15802,0.038269,0.007634,-2.480916,-0.152672,-0.491675,3.733618,10.200757,-3.629541,0.584985,1.46665,-3.942969,-0.029907,0.332568,yes
1616135403.6116154,1,54.0,58.0,73.0,79.0,63.0,0.964478,0.172729,-0.197327,0.030334,-0.10687,-2.587786,0.007634,0.086133,3.881958,8.973364,-3.746777,0.733325,0.521582,-3.733618,0.543115,-0.77998,yes
1616135403.6216006,1,54.0,58.0,75.0,76.0,64.0,0.955261,0.172302,-0.238953,0.023743,-0.137405,-2.755725,0.122137,0.593359,3.751563,7.610791,-3.959717,0.636426,-0.48689,-3.365161,0.90918,-2.039673,yes
1616135403.631733,1,54.0,56.0,75.0,79.0,61.0,0.943604,0.171143,-0.282654,0.018127,-0.137405,-2.839695,0.198473,1.558765,3.606812,6.379809,-3.728833,0.541919,-1.278833,-2.526562,1.168774,-2.841187,yes
1616135403.6416185,1,54.0,58.0,76.0,76.0,61.0,0.929932,0.169128,-0.326233,0.013672,-0.145038,-2.778626,0.274809,2.906982,3.40105,5.303149,-3.084033,0.405542,-1.849463,-1.367358,1.241748,-3.110352,yes
1616135403.6517327,1,54.0,58.0,74.0,75.0,60.0,0.914856,0.166199,-0.367798,0.010681,-0.145038,-2.587786,0.328244,4.811475,3.30415,4.512403,-1.818359,0.400757,-2.093506,0.017944,1.217822,-2.521777,yes
1616135403.66161,1,54.0,59.0,76.0,79.0,64.0,0.900085,0.162415,-0.404175,0.009216,-0.167939,-2.160305,0.358779,7.287793,3.373535,4.09729,0.128003,0.5802,-1.983447,1.436743,1.129297,-0.971387,yes
1616135403.6717553,1,54.0,58.0,73.0,78.0,63.0,0.887695,0.157593,-0.432495,0.009033,-0.21374,-1.580153,0.366412,9.484179,3.430957,3.622363,1.930811,0.764429,-2.024121,2.639014,1.075464,0.52876,yes
1616135403.6815262,1,55.0,58.0,75.0,79.0,62.0,0.878723,0.152222,-0.452209,0.009949,-0.251908,-1.015267,0.351145,10.863501,3.416602,3.048145,3.044556,0.882861,-2.288501,3.472827,1.107764,1.410425,yes
1616135403.6916938,1,54.0,61.0,72.0,79.0,59.0,0.873291,0.146667,-0.464417,0.011475,-0.259542,-0.526718,0.320611,11.569311,3.281421,2.484692,3.586475,0.874487,-2.665332,4.054224,1.130493,1.734619,yes
1616135403.7016537,1,55.0,58.0,80.0,78.0,63.0,0.870972,0.141479,-0.470276,0.01355,-0.229008,-0.10687,0.274809,11.903076,3.038574,1.916455,3.836499,0.747681,-3.155811,4.59375,1.114941,1.69873,yes
1616135403.711619,1,56.0,59.0,74.0,79.0,64.0,0.871582,0.137024,-0.470337,0.016113,-0.19084,0.29771,0.221374,12.14353,2.771802,1.414014,4.06499,0.579004,-3.680981,5.17395,1.081445,1.565942,yes
1616135403.72164,1,54.0,58.0,74.0,76.0,63.0,0.875183,0.133667,-0.464539,0.018921,-0.145038,0.725191,0.145038,12.386377,2.508618,0.976172,4.367651,0.387598,-4.243237,5.846265,1.041968,1.396069,yes
1616135403.7314975,1,56.0,58.0,74.0,76.0,64.0,0.881775,0.131592,-0.452332,0.022156,-0.068702,1.198473,0.053435,12.85293,2.123413,0.568237,4.977759,0.045459,-4.880859,6.792529,0.875684,1.294385,yes
1616135403.7414186,1,55.0,58.0,73.0,83.0,61.0,0.891785,0.130981,-0.432251,0.025879,0.022901,1.816794,-0.045802,13.867383,1.841089,0.174658,6.244629,-0.228491,-5.626147,8.237646,0.800317,1.477417,yes
1616135403.7514513,1,56.0,58.0,74.0,76.0,62.0,0.905884,0.131775,-0.401428,0.029846,0.068702,2.641221,-0.19084,15.050512,1.644897,-0.50603,7.845263,-0.459375,-6.806885,10.272534,0.939087,1.290796,yes
1616135403.7615805,1,54.0,58.0,77.0,82.0,61.0,0.924072,0.133118,-0.356689,0.033569,0.061069,3.633588,-0.351145,15.670191,1.339844,-1.804004,9.121704,-0.836206,-8.762817,12.608887,1.259692,-0.312231,yes
1616135403.771542,1,55.0,58.0,76.0,78.0,62.0,0.944946,0.133667,-0.296326,0.037048,-0.007634,4.625954,-0.465649,14.800488,1.091016,-3.877173,9.215014,-1.168774,-11.6052,14.12937,1.977466,-4.169067,yes
1616135403.781815,1,53.0,58.0,76.0,77.0,63.0,0.965271,0.131409,-0.221802,0.041321,-0.19084,5.282443,-0.381679,11.958105,1.274048,-6.310425,7.655054,-1.032398,-14.80647,13.196264,3.198877,-9.718653,yes
1616135403.7914326,1,51.0,58.0,74.0,80.0,64.0,0.98114,0.124207,-0.139648,0.048584,-0.473282,5.38168,-0.068702,7.671802,2.091113,-7.946948,4.8677,-0.163892,-17.061474,9.144434,4.526758,-14.513379,yes
1616135403.8015363,1,47.0,58.0,75.0,76.0,58.0,0.990112,0.111694,-0.059387,0.059814,-0.778626,4.839694,0.328244,2.572021,3.393872,-7.430151,1.288403,1.295581,-16.915527,2.861523,5.250513,-15.926196,yes
1616135403.8116426,1,41.0,58.0,74.0,78.0,60.0,0.992493,0.095459,0.008423,0.075195,-0.89313,3.709924,0.70229,-2.789746,3.551782,-4.681079,-2.76582,1.681982,-14.299243,-3.426172,3.905884,-13.70708,yes
1616135403.8214216,1,44.0,57.0,72.0,76.0,61.0,0.990906,0.080994,0.055725,0.091614,-0.534351,2.267176,0.824427,-7.248315,1.84707,-0.461768,-6.310425,0.173462,-10.071558,-7.45647,0.478516,-9.242529,yes
1616135403.831606,1,44.0,58.0,73.0,76.0,58.0,0.988464,0.076111,0.080811,0.102905,0.137405,0.870229,0.580153,-10.524951,0.569434,4.099683,-9.112134,-1.06709,-5.457471,-9.552368,-2.266968,-4.187012,yes
1616135403.841765,1,47.0,58.0,74.0,76.0,59.0,0.987,0.081116,0.088318,0.106934,0.450382,-0.19084,0.244275,-12.675879,1.604224,8.177832,-11.136255,-0.149536,-1.339844,-10.934082,-2.464355,0.419897,yes
1616135403.8516035,1,47.0,59.0,77.0,80.0,61.0,0.986938,0.088013,0.083557,0.105469,0.251908,-0.801527,-0.053435,-13.009644,3.177344,11.14104,-11.574097,1.301563,1.630542,-11.106348,-1.581494,3.524268,yes
1616135403.8615584,1,50.0,58.0,75.0,76.0,58.0,0.988281,0.090088,0.07196,0.099731,-0.083969,-1.030534,-0.320611,-12.18899,3.830518,13.113721,-10.971167,1.94397,3.574512,-10.423266,-1.015649,5.21582,yes
1616135403.8716867,1,48.0,58.0,76.0,78.0,59.0,0.990356,0.087036,0.057251,0.090881,-0.328244,-1.152672,-0.496183,-11.346802,3.470435,14.281299,-10.389771,1.678394,4.694238,-9.827515,-1.10896,5.912061,yes
1616135403.8816645,1,51.0,58.0,74.0,80.0,61.0,0.992554,0.081482,0.039246,0.080872,-0.343511,-1.419847,-0.519084,-10.833593,1.957129,14.646167,-10.198364,0.308643,5.00647,-9.62295,-2.179639,5.635718,yes
1616135403.891592,1,51.0,58.0,76.0,76.0,60.0,0.994263,0.078247,0.015747,0.070557,-0.045802,-1.824427,-0.48855,-10.392163,-0.216528,14.326757,-10.192383,-1.762134,4.652368,-9.644483,-3.891528,4.520776,yes
1616135403.901787,1,52.0,58.0,73.0,78.0,60.0,0.99469,0.081787,-0.014648,0.060425,0.435115,-2.267176,-0.435115,-9.475805,-1.993018,13.51687,-9.857422,-3.569726,3.852051,-9.417188,-5.28999,2.838794,yes
1616135403.9115348,1,53.0,58.0,75.0,80.0,63.0,0.99292,0.093567,-0.051453,0.050781,0.885496,-2.618321,-0.40458,-7.954126,-2.641406,12.346899,-9.047534,-4.410718,2.770606,-8.720947,-5.664429,0.899609,yes
1616135403.9215732,1,52.0,58.0,74.0,79.0,61.0,0.988525,0.112,-0.092651,0.041016,1.160305,-2.801527,-0.419847,-5.918042,-1.972681,11.286987,-7.802197,-4.067383,1.900903,-7.558154,-4.856934,-0.549097,yes
1616135403.931573,1,49.0,58.0,72.0,76.0,61.0,0.981262,0.133179,-0.135315,0.030823,1.175573,-2.832061,-0.435115,-3.671411,-0.263184,10.377808,-6.353491,-2.741894,1.284814,-6.172852,-3.140259,-1.240552,yes
1616135403.9415383,1,52.0,58.0,75.0,83.0,62.0,0.971985,0.152405,-0.177612,0.020935,0.908397,-2.717557,-0.358779,-0.980957,2.025317,9.936377,-4.42627,-0.805103,1.209448,-4.475317,-1.074268,-0.711792,yes
1616135403.9514427,1,53.0,58.0,74.0,78.0,61.0,0.962036,0.165283,-0.216675,0.012268,0.465649,-2.419847,-0.221374,1.455884,4.06499,9.423169,-2.668921,1.000098,1.079053,-2.957227,0.723755,0.107666,yes
1616135403.9606762,1,51.0,58.0,73.0,76.0,61.0,0.952637,0.170776,-0.251526,0.005188,0.068702,-2.152672,-0.061069,3.087622,5.148828,8.540308,-1.625757,1.984644,0.551489,-1.872192,1.811182,0.307446,yes
1616135403.971075,1,53.0,58.0,73.0,79.0,64.0,0.943604,0.170654,-0.283569,0.0,-0.137405,-2.0,0.099237,3.972876,5.14165,7.354785,-1.270459,1.984644,-0.29668,-1.098193,2.086328,-0.271558,yes
1616135403.9813938,1,54.0,59.0,74.0,82.0,58.0,0.934204,0.168091,-0.314636,-0.002869,-0.145038,-1.961832,0.244275,4.405932,4.471728,6.058008,-1.344629,1.375732,-1.24773,-0.480908,1.836304,-1.283618,yes
1616135403.990822,1,49.0,58.0,73.0,78.0,59.0,0.923584,0.165222,-0.345886,-0.003479,-0.068702,-1.969466,0.351145,4.848559,3.884351,4.861719,-1.400854,0.869702,-2.057617,0.156714,1.613794,-2.077954,yes
1616135404.0006497,1,49.0,58.0,75.0,77.0,63.0,0.912048,0.163635,-0.376038,-0.003052,0.030534,-1.870229,0.335878,5.566333,3.581689,4.053027,-1.144849,0.632837,-2.45,0.787158,1.471436,-2.219116,yes
1616135404.0107496,1,51.0,58.0,76.0,82.0,64.0,0.900513,0.163391,-0.402893,-0.003174,0.076336,-1.633588,0.229008,6.798511,3.617578,3.628345,-0.301465,0.708203,-2.465552,1.497754,1.430762,-1.54082,yes
1616135404.0209925,1,54.0,58.0,73.0,76.0,63.0,0.890503,0.163696,-0.424377,-0.003906,0.053435,-1.244275,0.137405,8.396753,3.71687,3.43335,1.001294,0.826636,-2.310034,2.280127,1.301563,-0.354102,yes
1616135404.0309243,1,53.0,58.0,70.0,74.0,60.0,0.883179,0.16333,-0.439636,-0.00415,0.0,-0.801527,0.122137,9.594238,3.689355,3.122314,1.996606,0.825439,-2.36626,2.952441,1.153223,0.462964,yes
1616135404.0407186,1,49.0,58.0,73.0,80.0,63.0,0.878601,0.16217,-0.449097,-0.00354,-0.045802,-0.419847,0.137405,10.176831,3.628345,2.837598,2.453589,0.803906,-2.493066,3.320899,1.091016,0.808691,yes
1616135404.050819,1,52.0,58.0,72.0,76.0,63.0,0.876526,0.160522,-0.453735,-0.002441,-0.076336,-0.129771,0.129771,10.17085,3.440527,2.555274,2.383008,0.660352,-2.703613,3.460864,1.022827,0.629248,yes
1616135404.0607667,1,49.0,58.0,76.0,75.0,61.0,0.876099,0.158691,-0.4552,-0.000977,-0.076336,0.045802,0.129771,9.707886,3.128296,2.313623,1.893726,0.393579,-2.930908,3.390283,0.90918,0.050244,yes
1616135404.070696,1,52.0,58.0,72.0,78.0,60.0,0.876465,0.156799,-0.4552,0.001343,-0.053435,0.10687,0.175573,8.924316,2.762231,2.159302,1.09939,0.080151,-3.097192,3.101978,0.776392,-0.76084,yes
1616135404.0806415,1,53.0,58.0,76.0,77.0,61.0,0.87677,0.15509,-0.455139,0.0047,0.0,0.068702,0.229008,8.057007,2.430859,2.124609,0.220117,-0.191406,-3.142651,2.660547,0.655566,-1.56355,yes
1616135404.09085,1,54.0,58.0,73.0,80.0,63.0,0.876587,0.154175,-0.455688,0.008362,0.061069,0.007634,0.221374,7.378711,2.274146,2.233472,-0.474927,-0.299072,-3.029004,2.180835,0.616089,-2.085132,yes
1616135404.100677,1,52.0,58.0,73.0,82.0,62.0,0.876099,0.154419,-0.456543,0.011353,0.091603,-0.022901,0.145038,7.042554,2.299268,2.481103,-0.830225,-0.250024,-2.76582,1.758545,0.638818,-2.211938,yes
1616135404.1106553,1,53.0,58.0,73.0,78.0,65.0,0.875671,0.155334,-0.457031,0.013062,0.076336,0.0,0.061069,7.132276,2.465552,2.800513,-0.75127,-0.082544,-2.432056,1.512109,0.701025,-1.923633,yes
1616135404.1207936,1,53.0,58.0,73.0,78.0,63.0,0.875793,0.155945,-0.456482,0.013794,0.015267,0.091603,0.015267,7.564136,2.70481,3.148633,-0.313428,0.150732,-2.088721,1.452295,0.776392,-1.329077,yes
1616135404.130895,1,51.0,58.0,75.0,78.0,61.0,0.877014,0.15564,-0.454285,0.013977,-0.061069,0.221374,0.0,7.895508,2.82085,3.423779,0.043066,0.269165,-1.855444,1.449902,0.77998,-0.894824,yes
1616135404.1405928,1,53.0,58.0,75.0,75.0,60.0,0.879211,0.154297,-0.450562,0.014038,-0.114504,0.312977,0.007634,7.870386,2.656958,3.634326,0.063403,0.120825,-1.720264,1.372144,0.595752,-0.857739,yes
1616135404.15083,1,52.0,59.0,76.0,80.0,61.0,0.881653,0.152344,-0.446289,0.014709,-0.099237,0.320611,0.038168,7.556958,2.306445,3.818555,-0.198584,-0.197388,-1.620972,1.180737,0.289502,-1.106567,yes
1616135404.1606135,1,52.0,58.0,73.0,78.0,64.0,0.883911,0.150696,-0.442322,0.016113,-0.045802,0.282443,0.061069,7.143042,1.961914,4.049438,-0.567041,-0.508423,-1.469043,0.878076,-0.013159,-1.400854,yes
1616135404.170702,1,53.0,58.0,74.0,75.0,61.0,0.885681,0.150024,-0.438965,0.017883,0.030534,0.21374,0.061069,6.753052,1.8052,4.358081,-0.91875,-0.6448,-1.222607,0.484497,-0.178247,-1.576709,yes
1616135404.180717,1,53.0,60.0,74.0,77.0,61.0,0.886841,0.150452,-0.436401,0.01947,0.068702,0.145038,0.038168,6.540112,1.887744,4.748071,-1.101782,-0.559863,-0.874487,0.082544,-0.178247,-1.500147,yes
1616135404.1908598,1,51.0,58.0,74.0,78.0,64.0,0.887695,0.151367,-0.434326,0.020508,0.068702,0.099237,0.015267,6.47312,2.142554,5.179932,-1.143652,-0.31582,-0.472534,-0.29668,-0.056226,-1.240552,yes
1616135404.2008553,1,32.0,58.0,75.0,76.0,63.0,0.888306,0.152222,-0.432739,0.020813,0.030534,0.061069,-0.015267,6.561646,2.455981,5.580688,-1.033594,-0.016748,-0.093311,-0.57063,0.108862,-0.858936,yes
1616135404.2107072,1,52.0,58.0,72.0,79.0,63.0,0.888977,0.152466,-0.431335,0.020386,-0.022901,0.061069,-0.030534,6.822436,2.707202,5.931201,-0.753662,0.22251,0.233276,-0.68667,0.215332,-0.38999,yes
1616135404.2207732,1,53.0,58.0,74.0,76.0,59.0,0.889832,0.152039,-0.429749,0.019592,-0.068702,0.083969,-0.045802,7.08562,2.775391,6.165674,-0.467749,0.288306,0.437842,-0.673511,0.192603,-0.031104,yes
1616135404.230693,1,54.0,58.0,70.0,76.0,60.0,0.890869,0.151123,-0.427979,0.018677,-0.083969,0.099237,-0.045802,7.22439,2.679688,6.267358,-0.303857,0.197388,0.504834,-0.606519,0.072974,0.112451,yes
1616135404.240553,1,50.0,58.0,73.0,76.0,63.0,0.891846,0.150269,-0.426208,0.017883,-0.061069,0.099237,-0.045802,7.257886,2.45957,6.294873,-0.244043,-0.016748,0.497656,-0.527563,-0.132788,0.102881,yes
1616135404.2507126,1,54.0,58.0,73.0,74.0,63.0,0.892578,0.149902,-0.424805,0.017456,-0.015267,0.076336,-0.045802,7.318896,2.244238,6.287695,-0.163892,-0.23208,0.465356,-0.417505,-0.336157,0.092114,yes
1616135404.2605877,1,53.0,58.0,72.0,77.0,60.0,0.893127,0.150208,-0.423584,0.017456,0.038168,0.068702,-0.038168,7.396655,2.132983,6.280518,-0.069385,-0.350513,0.439038,-0.318213,-0.451001,0.119629,yes
1616135404.2704906,1,52.0,58.0,72.0,76.0,61.0,0.893494,0.151245,-0.422424,0.017761,0.076336,0.061069,-0.030534,7.425366,2.183228,6.29248,-0.023926,-0.318213,0.437842,-0.291895,-0.425879,0.161499,yes
1616135404.280646,1,53.0,58.0,77.0,80.0,63.0,0.893677,0.152527,-0.42157,0.018066,0.076336,0.038168,-0.030534,7.387085,2.350708,6.31521,-0.050244,-0.171069,0.45459,-0.344531,-0.288306,0.189014,yes
1616135404.290731,1,54.0,58.0,74.0,78.0,63.0,0.893677,0.153748,-0.421082,0.01825,0.053435,0.007634,-0.015267,7.39187,2.578003,6.371436,-0.038281,0.034692,0.509619,-0.410327,-0.110059,0.284717,yes
1616135404.3006265,1,54.0,58.0,74.0,78.0,61.0,0.893677,0.154358,-0.420837,0.01825,0.015267,-0.007634,-0.007634,7.486377,2.769409,6.428857,0.058618,0.215332,0.567041,-0.419897,0.033496,0.439038,yes
1616135404.3108354,1,53.0,59.0,76.0,79.0,61.0,0.893738,0.154419,-0.420715,0.018066,-0.022901,-0.007634,0.0,7.525855,2.871094,6.444409,0.100488,0.314624,0.581396,-0.419897,0.119629,0.504834,yes
1616135404.3205914,1,54.0,58.0,72.0,79.0,60.0,0.89386,0.153931,-0.420715,0.017761,-0.053435,-0.015267,0.0,7.518677,2.875879,6.446802,0.093311,0.325391,0.5802,-0.424683,0.131592,0.502441,yes
1616135405.2314863,1,54.0,58.0,74.0,77.0,62.0,0.890686,0.13855,-0.4328,0.010803,0.0,-0.022901,0.0,7.608398,2.245435,5.991015,0.022729,-0.081348,0.238062,-0.156714,-0.141162,0.137573,yes
1616135405.23958,1,54.0,58.0,74.0,76.0,62.0,0.890564,0.138428,-0.433105,0.010803,-0.007634,-0.030534,0.0,7.589258,2.266968,5.970679,0.0,-0.057422,0.22251,-0.162695,-0.111255,0.11604,yes
1616135405.249622,1,54.0,58.0,73.0,79.0,65.0,0.890381,0.138184,-0.433533,0.010803,-0.015267,-0.038168,0.007634,7.578491,2.271753,5.928809,-0.015552,-0.047852,0.186621,-0.145947,-0.092114,0.084937,yes
1616135405.2594955,1,54.0,58.0,72.0,77.0,63.0,0.890198,0.137939,-0.434082,0.010742,-0.015267,-0.045802,0.007634,7.60481,2.271753,5.888135,0.001196,-0.043066,0.153125,-0.110059,-0.080151,0.080151,yes
1616135405.2694411,1,51.0,58.0,72.0,79.0,60.0,0.889954,0.137634,-0.434631,0.010681,-0.015267,-0.038168,0.007634,7.662231,2.247827,5.829516,0.05144,-0.061011,0.102881,-0.038281,-0.089722,0.084937,yes
1616135405.2794635,1,54.0,58.0,74.0,76.0,61.0,0.889771,0.137451,-0.43512,0.010742,-0.007634,-0.030534,0.0,7.705298,2.225098,5.76731,0.087329,-0.080151,0.047852,0.027515,-0.096899,0.076563,yes
