timestamp,user_id,flex_1,flex_2,flex_3,flex_4,flex_5,Qw,Qx,Qy,Qz,GYRx,GYRy,GYRz,ACCx,ACCy,ACCz,ACCx_body,ACCy_body,ACCz_body,ACCx_world,ACCy_world,ACCz_world,Alphabet
1616137036.693117,1,39.0,16.0,79.0,77.0,58.0,0.850769,0.468994,-0.236023,0.021606,-0.038168,-0.015267,0.015267,4.350904,8.199366,4.58418,0.216528,0.478516,0.186621,-0.002393,0.076563,0.551489,you
1616137036.7032237,1,39.0,16.0,78.0,75.0,58.0,0.850952,0.468567,-0.236328,0.021667,-0.030534,-0.015267,0.015267,4.350904,8.164673,4.579394,0.209351,0.449805,0.177051,0.001196,0.069385,0.521582,you
1616137036.7131765,1,39.0,14.0,78.0,80.0,58.0,0.851013,0.468201,-0.236633,0.02179,-0.022901,-0.015267,0.015267,4.364062,8.115625,4.573413,0.216528,0.406738,0.16748,0.022729,0.052637,0.485693,you
1616137036.723236,1,40.0,16.0,79.0,76.0,58.0,0.851074,0.467896,-0.237,0.021973,-0.015267,-0.015267,0.015267,4.374829,8.067774,4.568628,0.218921,0.363672,0.160303,0.038281,0.033496,0.449805,you
1616137036.733144,1,39.0,15.0,77.0,79.0,58.0,0.851074,0.467773,-0.237305,0.022095,-0.007634,-0.015267,0.015267,4.379614,8.041455,4.560254,0.217725,0.340942,0.153125,0.045459,0.027515,0.428271,you
1616137036.7430663,1,40.0,15.0,79.0,78.0,58.0,0.851074,0.467651,-0.237549,0.022278,-0.007634,-0.015267,0.015267,4.376025,8.042651,4.565039,0.208154,0.344531,0.15791,0.033496,0.027515,0.429468,you
1616137036.7531338,1,39.0,17.0,80.0,80.0,57.0,0.851074,0.467529,-0.237793,0.0224,-0.007634,-0.015267,0.015267,4.364062,8.054614,4.574609,0.191406,0.360083,0.16748,0.010767,0.031104,0.439038,you
1616137036.7630494,1,38.0,15.0,79.0,76.0,58.0,0.851074,0.467346,-0.238037,0.022522,-0.015267,-0.015267,0.015267,4.359277,8.071362,4.574609,0.181836,0.38042,0.166284,-0.001196,0.045459,0.449805,you
1616137036.7732172,1,38.0,17.0,79.0,74.0,57.0,0.851196,0.467041,-0.238281,0.022583,-0.022901,-0.015267,0.007634,4.360474,8.097681,4.592554,0.178247,0.410327,0.18064,-0.017944,0.05144,0.478516,you
1616137036.783231,1,40.0,15.0,79.0,80.0,58.0,0.851318,0.466675,-0.238464,0.022583,-0.030534,-0.015267,0.007634,4.359277,8.118017,4.602124,0.173462,0.436646,0.185425,-0.031104,0.0646,0.498853,you
1616137036.793098,1,38.0,17.0,79.0,78.0,58.0,0.851562,0.466187,-0.238647,0.022583,-0.038168,-0.015267,0.007634,4.356885,8.13357,4.622461,0.166284,0.458179,0.198584,-0.047852,0.066992,0.519189,you
1616137036.8031063,1,40.0,17.0,79.0,75.0,58.0,0.851807,0.465637,-0.238892,0.022461,-0.045802,-0.015267,0.007634,4.348511,8.145533,4.642798,0.154321,0.476123,0.210547,-0.068188,0.070581,0.533545,you
1616137036.8135967,1,39.0,17.0,80.0,80.0,57.0,0.852051,0.464966,-0.239136,0.0224,-0.053435,-0.015267,0.007634,4.354492,8.137158,4.66792,0.156714,0.476123,0.227295,-0.072974,0.057422,0.541919,you
1616137036.8229945,1,38.0,17.0,82.0,79.0,58.0,0.852356,0.464294,-0.239441,0.022278,-0.053435,-0.015267,0.007634,4.378418,8.114429,4.678687,0.174658,0.461768,0.227295,-0.053833,0.046655,0.53833,you
1616137036.8330798,1,39.0,15.0,81.0,79.0,58.0,0.852661,0.463623,-0.239746,0.022217,-0.045802,-0.015267,0.007634,4.409522,8.080933,4.678687,0.19978,0.436646,0.217725,-0.021533,0.037085,0.525171,you
1616137036.8431456,1,37.0,12.0,79.0,76.0,58.0,0.852905,0.462952,-0.23999,0.022217,-0.045802,-0.007634,0.007634,4.438232,8.035474,4.672705,0.223706,0.400757,0.203369,0.014355,0.023926,0.500049,you
1616137036.8532355,1,40.0,16.0,80.0,78.0,58.0,0.853149,0.462402,-0.240173,0.022278,-0.038168,-0.007634,0.007634,4.45498,7.9948,4.665527,0.236865,0.367261,0.187817,0.039478,0.015552,0.472534,you
1616137036.863196,1,40.0,19.0,80.0,79.0,58.0,0.853394,0.461975,-0.240295,0.022339,-0.030534,0.0,0.007634,4.463355,7.949341,4.65835,0.24165,0.326587,0.173462,0.059814,0.003589,0.436646,you
1616137036.8730698,1,37.0,17.0,79.0,78.0,60.0,0.853516,0.46167,-0.240356,0.0224,-0.022901,0.0,0.0,4.464551,7.918237,4.647583,0.240454,0.300269,0.15791,0.071777,0.001196,0.409131,you
1616137036.8829567,1,38.0,17.0,79.0,78.0,56.0,0.853638,0.461426,-0.240356,0.022461,-0.015267,0.0,0.0,4.46814,7.901489,4.654761,0.242847,0.285913,0.160303,0.076563,-0.008374,0.399561,you
1616137036.8930483,1,38.0,15.0,80.0,77.0,58.0,0.85376,0.461243,-0.240295,0.022522,-0.015267,0.0,0.0,4.465747,7.893115,4.670312,0.240454,0.279932,0.172266,0.071777,-0.020337,0.399561,you
1616137036.9032164,1,38.0,19.0,80.0,77.0,58.0,0.853882,0.46106,-0.240295,0.022522,-0.015267,0.0,0.0,4.45857,7.891919,4.676294,0.233276,0.281128,0.174658,0.0646,-0.020337,0.398364,you
1616137036.9131167,1,39.0,16.0,81.0,78.0,58.0,0.854004,0.460876,-0.240234,0.022522,-0.015267,0.0,0.0,4.446607,7.905078,4.679883,0.221313,0.29668,0.174658,0.050244,-0.008374,0.405542,you
1616137036.9232194,1,40.0,16.0,80.0,78.0,57.0,0.854065,0.460754,-0.240234,0.022461,-0.015267,-0.007634,-0.007634,4.432251,7.923022,4.69065,0.206958,0.31582,0.183032,0.028711,-0.002393,0.417505,you
1616137036.933112,1,37.0,17.0,79.0,80.0,60.0,0.854126,0.460571,-0.240234,0.022339,-0.015267,-0.007634,-0.007634,4.422681,7.936182,4.70022,0.198584,0.330176,0.19021,0.015552,0.001196,0.428271,you
1616137036.9431596,1,38.0,21.0,80.0,76.0,58.0,0.854248,0.460449,-0.240295,0.022217,-0.015267,-0.015267,-0.007634,4.41311,7.9625,4.716968,0.189014,0.35769,0.203369,-0.004785,0.008374,0.452197,you
1616137036.9532568,1,38.0,14.0,79.0,80.0,58.0,0.854309,0.460205,-0.240417,0.022034,-0.022901,-0.015267,-0.007634,4.414307,7.998389,4.738501,0.189014,0.395972,0.22251,-0.021533,0.015552,0.490479,you
1616137036.9631658,1,38.0,15.0,79.0,79.0,58.0,0.854431,0.4599,-0.24054,0.02179,-0.030534,-0.015267,0.0,4.419092,8.034277,4.76123,0.193799,0.434253,0.24165,-0.034692,0.021533,0.531152,you
1616137036.9731927,1,39.0,16.0,81.0,79.0,59.0,0.854614,0.459534,-0.240723,0.021606,-0.030534,-0.015267,0.0,4.427466,8.053418,4.782763,0.19978,0.456982,0.257202,-0.04187,0.021533,0.558667,you
1616137036.9831696,1,39.0,19.0,80.0,79.0,58.0,0.854736,0.459106,-0.240967,0.021484,-0.030534,-0.015267,0.0,4.43584,8.057007,4.794726,0.204565,0.466553,0.26438,-0.043066,0.020337,0.571826,you
1616137036.9931197,1,39.0,15.0,81.0,80.0,58.0,0.854919,0.45874,-0.241211,0.021301,-0.030534,-0.022901,0.0,4.43584,8.064184,4.804297,0.202173,0.477319,0.269165,-0.050244,0.023926,0.5802,you
1616137037.0030608,1,39.0,17.0,79.0,79.0,58.0,0.85498,0.458374,-0.241577,0.021179,-0.030534,-0.030534,0.007634,4.415503,8.084521,4.812671,0.175854,0.502441,0.275146,-0.082544,0.039478,0.590967,you
1616137037.0130937,1,39.0,17.0,80.0,79.0,58.0,0.855103,0.458008,-0.242065,0.020935,-0.030534,-0.038168,0.007634,4.397559,8.132373,4.829419,0.151929,0.555078,0.288306,-0.122021,0.0646,0.628052,you
1616137037.022949,1,40.0,16.0,79.0,75.0,59.0,0.855103,0.45752,-0.242737,0.020691,-0.038168,-0.053435,0.015267,4.392774,8.188599,4.859326,0.13877,0.618481,0.317017,-0.161499,0.081348,0.684277,you
1616137037.0331273,1,40.0,19.0,80.0,79.0,58.0,0.855225,0.45697,-0.243652,0.020386,-0.045802,-0.068702,0.022901,4.385596,8.23645,4.895215,0.118433,0.673511,0.350513,-0.208154,0.090918,0.733325,you
1616137037.0430682,1,38.0,18.0,79.0,76.0,61.0,0.855286,0.456177,-0.244751,0.020081,-0.053435,-0.083969,0.030534,4.368848,8.28789,4.944263,0.086133,0.736914,0.397168,-0.272754,0.099292,0.789551,you
1616137037.0530317,1,39.0,16.0,80.0,78.0,58.0,0.855408,0.4552,-0.246216,0.019653,-0.068702,-0.099237,0.038168,4.364062,8.359668,5.001685,0.059814,0.821851,0.451001,-0.340942,0.112451,0.86731,you
1616137037.063222,1,39.0,20.0,80.0,79.0,58.0,0.855591,0.453979,-0.247864,0.019165,-0.091603,-0.114504,0.045802,4.378418,8.455371,5.083032,0.050244,0.934302,0.526367,-0.410327,0.124414,0.98335,you
1616137037.0730095,1,39.0,21.0,79.0,78.0,58.0,0.855835,0.452393,-0.249878,0.018555,-0.114504,-0.137405,0.053435,4.404737,8.598926,5.187109,0.047852,1.100586,0.62207,-0.49646,0.151929,1.152026,you
1616137037.0830102,1,39.0,17.0,79.0,75.0,58.0,0.856323,0.450317,-0.252136,0.0177,-0.152672,-0.152672,0.068702,4.448999,8.775976,5.306738,0.059814,1.305151,0.727344,-0.586182,0.194995,1.361377,you
1616137037.0929835,1,38.0,17.0,79.0,79.0,58.0,0.856934,0.447571,-0.254822,0.016663,-0.198473,-0.175573,0.076336,4.515991,8.956616,5.431152,0.089722,1.52168,0.831421,-0.662744,0.247632,1.583887,you
1616137037.1029413,1,40.0,17.0,80.0,78.0,58.0,0.85791,0.444092,-0.257874,0.015381,-0.259542,-0.198473,0.091603,4.592554,9.128881,5.560351,0.122021,1.738208,0.929517,-0.735718,0.311035,1.8052,you
1616137037.1129248,1,40.0,16.0,77.0,81.0,112.0,0.859131,0.439758,-0.261353,0.013794,-0.320611,-0.229008,0.099237,4.68706,9.298755,5.688354,0.166284,1.964307,1.016846,-0.797925,0.393579,2.031299,you
1616137037.123171,1,39.0,17.0,78.0,75.0,58.0,0.860657,0.434326,-0.265442,0.011902,-0.389313,-0.267176,0.114504,4.811475,9.448291,5.810376,0.23208,2.183228,1.088623,-0.833813,0.489282,2.25022,you
1616137037.1330583,1,38.0,19.0,81.0,76.0,56.0,0.862427,0.427856,-0.270142,0.009644,-0.465649,-0.29771,0.129771,4.961011,9.517675,5.919238,0.313428,2.336353,1.137671,-0.831421,0.567041,2.415308,you
1616137037.1431851,1,39.0,16.0,78.0,75.0,57.0,0.864441,0.420471,-0.275452,0.007202,-0.519084,-0.328244,0.145038,5.129687,9.491358,6.03169,0.403149,2.405737,1.18313,-0.801514,0.600537,2.518188,you
1616137037.152929,1,39.0,17.0,79.0,76.0,58.0,0.866516,0.412292,-0.281189,0.004578,-0.557252,-0.358779,0.160305,5.311523,9.404028,6.139356,0.498853,2.426074,1.221411,-0.75127,0.6125,2.583984,you
1616137037.1631465,1,38.0,15.0,79.0,77.0,58.0,0.868591,0.403625,-0.287354,0.001953,-0.587786,-0.381679,0.175573,5.494555,9.292773,6.225488,0.586182,2.432056,1.236963,-0.697437,0.636426,2.624658,you
1616137037.17314,1,38.0,19.0,79.0,38.0,56.0,0.870605,0.394409,-0.294006,-0.000732,-0.610687,-0.40458,0.19084,5.653662,9.217407,6.300855,0.642407,2.4823,1.244141,-0.678296,0.705811,2.676099,you
1616137037.1831412,1,39.0,16.0,79.0,80.0,58.0,0.872437,0.384827,-0.301086,-0.003601,-0.641221,-0.442748,0.206107,5.748169,9.207837,6.348706,0.625659,2.605518,1.228589,-0.723755,0.861328,2.72395,you
1616137037.1930013,1,38.0,15.0,80.0,76.0,56.0,0.874146,0.374695,-0.308838,-0.006958,-0.679389,-0.496183,0.21374,5.799609,9.217407,6.360669,0.558667,2.755054,1.181934,-0.795532,1.075464,2.739502,you
1616137037.203004,1,38.0,16.0,79.0,79.0,58.0,0.87561,0.363892,-0.317322,-0.010681,-0.732824,-0.549618,0.229008,5.830713,9.173144,6.340332,0.460571,2.861523,1.10896,-0.863721,1.288403,2.686865,you
1616137037.213082,1,40.0,16.0,81.0,80.0,58.0,0.876892,0.352295,-0.326599,-0.014709,-0.763359,-0.603053,0.251908,5.888135,8.99729,6.288892,0.375635,2.847168,1.012061,-0.875684,1.427173,2.542114,you
1616137037.2230892,1,40.0,17.0,79.0,68.0,57.0,0.877808,0.340149,-0.336731,-0.018677,-0.778626,-0.648855,0.274809,5.99939,8.70061,6.205152,0.330176,2.72395,0.894824,-0.819458,1.481006,2.336353,you
1616137037.2329187,1,39.0,17.0,80.0,78.0,58.0,0.878296,0.327759,-0.34729,-0.0224,-0.770992,-0.671756,0.290076,6.140552,8.293872,6.091504,0.305054,2.499048,0.76084,-0.714185,1.451099,2.071973,you
1616137037.2429864,1,38.0,16.0,81.0,75.0,58.0,0.878296,0.315613,-0.358093,-0.025757,-0.725191,-0.679389,0.29771,6.342725,7.775879,5.959912,0.337354,2.161694,0.625659,-0.543115,1.300366,1.784863,you
1616137037.2529025,1,37.0,17.0,79.0,74.0,58.0,0.877808,0.30426,-0.368896,-0.028442,-0.641221,-0.664122,0.312977,6.586768,7.200464,5.793628,0.409131,1.759741,0.474927,-0.325391,1.074268,1.491772,you
1616137037.2631793,1,37.0,15.0,79.0,78.0,58.0,0.876648,0.294006,-0.379578,-0.030151,-0.541985,-0.648855,0.328244,6.822436,6.681274,5.608203,0.47373,1.404443,0.326587,-0.12561,0.86731,1.238159,you
1616137037.2728877,1,39.0,15.0,80.0,78.0,56.0,0.874939,0.285095,-0.390137,-0.031006,-0.435115,-0.633588,0.335878,7.032983,6.274536,5.420386,0.515601,1.147241,0.196191,0.026318,0.722559,1.046753,you
1616137037.2829726,1,41.0,17.0,79.0,77.0,58.0,0.87262,0.277527,-0.400574,-0.03125,-0.343511,-0.625954,0.343511,7.164575,6.05083,5.25769,0.483301,1.058716,0.112451,0.068188,0.707007,0.927124,you
1616137037.2928777,1,38.0,17.0,82.0,78.0,58.0,0.869812,0.271057,-0.411011,-0.03125,-0.290076,-0.648855,0.335878,7.23396,6.001782,5.091406,0.392383,1.128101,0.04187,0.038281,0.832617,0.855347,you
1616137037.3029346,1,39.0,15.0,79.0,78.0,58.0,0.866577,0.265076,-0.421631,-0.031494,-0.282443,-0.679389,0.320611,7.297363,6.103467,4.971777,0.299072,1.339844,0.0323,-0.057422,1.051538,0.880469,you
1616137037.313101,1,40.0,17.0,81.0,76.0,58.0,0.863098,0.25885,-0.432434,-0.032349,-0.328244,-0.709924,0.320611,7.399048,6.382202,4.927515,0.247632,1.728638,0.105273,-0.215332,1.379321,1.052734,you
1616137037.322945,1,38.0,16.0,78.0,77.0,55.0,0.859619,0.251404,-0.443481,-0.033997,-0.435115,-0.732824,0.328244,7.493555,6.7052,4.880859,0.189014,2.173657,0.174658,-0.379224,1.769312,1.229785,you
1616137037.333074,1,38.0,16.0,80.0,73.0,58.0,0.856201,0.242188,-0.454834,-0.036377,-0.557252,-0.763359,0.351145,7.577295,6.887036,4.762427,0.11604,2.497852,0.166284,-0.459375,2.100684,1.284814,you
1616137037.3430614,1,38.0,19.0,79.0,84.0,58.0,0.852844,0.231018,-0.466553,-0.039429,-0.671756,-0.793893,0.374046,7.650269,6.849951,4.556665,0.029907,2.627051,0.069385,-0.428271,2.304053,1.186719,you
1616137037.3531096,1,38.0,16.0,80.0,80.0,58.0,0.849365,0.218201,-0.478638,-0.042908,-0.755725,-0.824427,0.396947,7.765112,6.57959,4.274341,-0.019141,2.544507,-0.101685,-0.271558,2.331567,0.986938,you
1616137037.362981,1,40.0,19.0,79.0,76.0,57.0,0.84552,0.204285,-0.491028,-0.046509,-0.801527,-0.839695,0.40458,7.915845,6.159692,3.952539,-0.034692,2.325586,-0.302661,-0.044263,2.221509,0.748877,you
1616137037.3730817,1,42.0,17.0,80.0,79.0,57.0,0.84137,0.18988,-0.503418,-0.050476,-0.832061,-0.847328,0.381679,8.043848,5.715869,3.56853,-0.069385,2.086328,-0.556274,0.226099,2.093506,0.480908,you
1616137037.383051,1,39.0,17.0,81.0,78.0,58.0,0.836853,0.175415,-0.515625,-0.055176,-0.847328,-0.847328,0.335878,8.159887,5.317505,3.186914,-0.107666,1.881763,-0.797925,0.48689,1.972681,0.244043,you
1616137037.3928747,1,38.0,16.0,79.0,78.0,57.0,0.83197,0.16095,-0.527405,-0.060913,-0.885496,-0.847328,0.267176,8.314209,4.935889,2.805298,-0.093311,1.680786,-1.033594,0.771606,1.815967,0.072974,you
1616137037.4030008,1,39.0,16.0,78.0,77.0,58.0,0.826843,0.146484,-0.538696,-0.067688,-0.908397,-0.824427,0.206107,8.539111,4.463355,2.403345,0.002393,1.374536,-1.287207,1.10896,1.519287,-0.049048,you
1616137037.413099,1,39.0,16.0,79.0,79.0,57.0,0.821594,0.132263,-0.549377,-0.075134,-0.916031,-0.78626,0.137405,8.838183,4.036279,2.021729,0.185425,1.096997,-1.519287,1.448706,1.201074,-0.056226,you
1616137037.422868,1,42.0,13.0,79.0,75.0,56.0,0.816345,0.118408,-0.559082,-0.083374,-0.931298,-0.725191,0.076336,9.237744,3.731225,1.684375,0.485693,0.922339,-1.713086,1.775293,0.923535,0.102881,you
1616137037.4330032,1,38.0,15.0,79.0,79.0,57.0,0.811584,0.10498,-0.567261,-0.092407,-0.954198,-0.618321,0.015267,9.765307,3.459668,1.378125,0.931909,0.762036,-1.898511,2.124609,0.605322,0.413916,you
1616137037.4423134,1,40.0,17.0,82.0,79.0,57.0,0.807678,0.091736,-0.573425,-0.101807,-0.969466,-0.473282,-0.022901,10.349096,3.179736,1.096997,1.453491,0.582593,-2.092309,2.478711,0.234473,0.791943,you
1616137037.4528625,1,41.0,16.0,80.0,48.0,59.0,0.804993,0.078735,-0.577393,-0.111328,-0.977099,-0.290076,-0.045802,10.938868,2.866309,0.811084,2.000195,0.363672,-2.332764,2.857934,-0.193799,1.167578,you
1616137037.4628718,1,38.0,14.0,79.0,79.0,57.0,0.803772,0.066101,-0.578857,-0.120667,-0.977099,-0.10687,-0.061069,11.326465,2.540918,0.485693,2.362671,0.130396,-2.660547,3.24314,-0.601733,1.337451,you
1616137037.4730268,1,40.0,16.0,82.0,79.0,58.0,0.803772,0.054138,-0.577942,-0.130127,-0.961832,0.068702,-0.099237,11.38269,2.167676,0.053833,2.415308,-0.159106,-3.140259,3.658252,-1.007275,1.147241,you
1616137037.4830234,1,39.0,12.0,80.0,82.0,58.0,0.804565,0.043213,-0.575562,-0.139587,-0.916031,0.175573,-0.152672,11.132666,1.477417,-0.625659,2.173657,-0.777588,-3.895117,4.166675,-1.695142,0.507227,you
1616137037.4928896,1,71.0,12.0,80.0,79.0,58.0,0.80542,0.033386,-0.572937,-0.148315,-0.824427,0.206107,-0.183206,10.700806,0.522778,-1.610205,1.752563,-1.668823,-4.955029,4.811475,-2.652173,-0.46416,you
1616137037.503092,1,41.0,14.0,81.0,78.0,58.0,0.805237,0.024536,-0.571533,-0.155884,-0.717557,0.145038,-0.19084,10.414892,-0.462964,-2.984741,1.469043,-2.595947,-6.369043,5.769702,-3.75874,-1.423584,you
1616137037.5131664,1,38.0,11.0,79.0,77.0,58.0,0.80365,0.016357,-0.572205,-0.162659,-0.648855,0.061069,-0.198473,10.767797,-1.18313,-4.523169,1.806396,-3.264673,-7.900293,7.042554,-4.85813,-1.76333,you
1616137037.5230088,1,38.0,11.0,80.0,80.0,58.0,0.801208,0.008179,-0.573914,-0.169312,-0.664122,0.083969,-0.221374,12.007154,-1.716675,-6.078345,3.02063,-3.74917,-9.420776,8.56543,-6.089111,-1.221411,you
1616137037.532946,1,40.0,10.0,81.0,73.0,58.0,0.799377,-0.000305,-0.574158,-0.177063,-0.763359,0.282443,-0.282443,13.744165,-2.022925,-7.49834,4.746875,-4.009961,-10.837183,10.12898,-7.309326,-0.147144,you
1616137037.5429285,1,43.0,8.0,82.0,79.0,57.0,0.799866,-0.00885,-0.570068,-0.187439,-0.931298,0.671756,-0.40458,15.296948,-2.319604,-8.882446,6.327173,-4.274341,-12.31101,11.630322,-8.610888,0.630444,you
1616137037.5530665,1,40.0,7.0,82.0,79.0,58.0,0.804016,-0.01709,-0.559265,-0.201111,-1.099237,1.206107,-0.549618,16.438208,-2.806494,-10.03208,7.556958,-4.740893,-13.695117,12.815845,-10.109838,0.791943,you
1616137037.562982,1,42.0,4.0,81.0,79.0,58.0,0.812622,-0.024231,-0.540161,-0.217529,-1.206107,1.824427,-0.694656,17.276806,-3.634326,-10.757031,8.569018,-5.550781,-14.826807,13.509692,-11.892309,0.368457,you
1616137037.5730612,1,40.0,3.0,82.0,82.0,58.0,0.825256,-0.028748,-0.512573,-0.235352,-1.160305,2.396947,-0.80916,16.955006,-4.710986,-10.774976,8.530737,-6.609497,-15.408203,13.167554,-13.376904,-1.23457,you
1616137037.583155,1,41.0,0.0,84.0,79.0,58.0,0.841125,-0.028687,-0.476929,-0.253357,-0.954198,2.801527,-0.885496,14.561231,-5.706299,-9.384888,6.555664,-7.601221,-14.70957,10.870679,-13.491748,-4.108057,you
1616137037.5931816,1,40.0,0.0,82.0,76.0,56.0,0.858398,-0.023315,-0.436035,-0.269226,-0.610687,2.854962,-0.801527,10.041651,-6.251807,-6.369043,2.581592,-8.159887,-12.431836,6.437232,-11.525049,-7.315308,you
1616137037.602915,1,42.0,-1.0,82.0,76.0,58.0,0.874817,-0.013428,-0.394714,-0.280579,-0.244275,2.496183,-0.549618,3.862817,-5.409619,-1.680786,-2.97876,-7.35,-8.423071,0.485693,-6.822436,-9.329859,you
1616137037.6131952,1,41.0,0.0,82.0,82.0,58.0,0.888428,-0.000916,-0.3573,-0.288086,-0.022901,1.862595,-0.305344,-2.359082,-3.258691,3.6427,-8.585767,-5.260083,-3.654663,-5.345019,-0.754858,-9.250903,you
1616137037.6229208,1,40.0,-1.0,81.0,78.0,56.0,0.897583,0.01062,-0.329529,-0.292664,0.045802,1.076336,-0.129771,-6.932495,-0.340942,7.873975,-12.668701,-2.4177,0.203369,-9.121704,4.776782,-7.768701,you
1616137037.6323285,1,40.0,-1.0,81.0,80.0,56.0,0.902344,0.018921,-0.312561,-0.296082,-0.045802,0.366412,-0.022901,-10.291675,2.782568,10.984326,-15.709668,0.634033,3.105567,-11.339624,9.570312,-6.049634,you
1616137037.6431022,1,42.0,0.0,82.0,82.0,58.0,0.904358,0.022766,-0.302673,-0.299988,-0.221374,-0.10687,-0.007634,-12.478491,4.946655,13.268042,-17.708668,2.763428,5.273242,-12.773974,12.855322,-4.535132,you
1616137037.652909,1,42.0,-1.0,81.0,80.0,58.0,0.904663,0.022339,-0.297424,-0.304321,-0.305344,-0.351145,-0.030534,-12.516772,5.726636,14.875854,-17.657227,3.555371,6.818848,-13.113721,13.808764,-2.868701,you
1616137037.662928,1,45.0,-1.0,80.0,83.0,58.0,0.903992,0.019409,-0.296265,-0.307556,-0.259542,-0.465649,0.0,-10.882642,5.377319,14.89978,-16.014721,3.246728,6.827222,-12.142334,12.722534,-2.057617,you
1616137037.672928,1,41.0,-1.0,81.0,78.0,58.0,0.902771,0.016052,-0.299377,-0.308472,-0.099237,-0.51145,0.061069,-8.223291,4.475317,13.51687,-13.422363,2.380615,5.477808,-10.174438,10.383789,-2.119824,you
1616137037.6824296,1,41.0,-2.0,82.0,80.0,58.0,0.901001,0.013916,-0.305908,-0.30719,0.083969,-0.51145,0.091603,-5.071069,3.606812,11.428149,-10.388575,1.518091,3.465649,-7.595239,7.633521,-2.497852,you
1616137037.692832,1,43.0,-2.0,81.0,76.0,57.0,0.898926,0.01355,-0.314331,-0.30481,0.21374,-0.458015,0.091603,-1.917651,2.981152,9.211426,-7.373926,0.863721,1.351807,-4.854541,5.031592,-2.835205,you
1616137037.7022362,1,43.0,0.0,81.0,83.0,58.0,0.896667,0.014282,-0.323242,-0.302124,0.251908,-0.389313,0.068702,0.905591,2.618677,7.25669,-4.69065,0.453394,-0.490479,-2.323193,2.871094,-2.9656,you
1616137037.7123556,1,43.0,-2.0,77.0,76.0,57.0,0.894409,0.015137,-0.33136,-0.299927,0.206107,-0.305344,0.030534,3.240747,2.404541,5.769702,-2.478711,0.19021,-1.872192,-0.260791,1.189111,-2.86272,you
1616137037.722145,1,41.0,0.0,82.0,81.0,57.0,0.892517,0.015625,-0.337708,-0.298584,0.122137,-0.19084,-0.007634,5.067481,2.270557,4.817456,-0.747681,0.020337,-2.741894,1.244141,-0.052637,-2.554077,you
1616137037.7323031,1,42.0,3.0,82.0,79.0,59.0,0.891174,0.015625,-0.341492,-0.298218,0.030534,-0.053435,-0.045802,6.373828,2.135376,4.347314,0.500049,-0.132788,-3.161792,2.178442,-0.935498,-2.15332,you
1616137037.7421412,1,42.0,0.0,82.0,82.0,58.0,0.890686,0.015381,-0.342346,-0.298767,-0.038168,0.099237,-0.076336,7.077246,1.92124,4.244433,1.190308,-0.351709,-3.253906,2.528955,-1.510913,-1.855444,you
1616137037.752314,1,43.0,1.0,63.0,80.0,58.0,0.89093,0.015259,-0.340637,-0.299805,-0.061069,0.21374,-0.091603,7.166968,1.677197,4.396362,1.307544,-0.58977,-3.123511,2.384204,-1.747778,-1.751367,you
1616137037.7621355,1,44.0,1.0,83.0,83.0,58.0,0.891785,0.015625,-0.337341,-0.301147,-0.061069,0.259542,-0.099237,6.765015,1.551587,4.824634,0.96062,-0.711792,-2.739502,1.866211,-1.588672,-1.709497,you
1616137037.772112,1,42.0,-1.0,82.0,80.0,58.0,0.892822,0.016235,-0.333313,-0.302429,-0.061069,0.236641,-0.068702,6.043653,1.57312,5.500537,0.30625,-0.68667,-2.116235,1.098193,-1.094604,-1.623364,you
1616137037.7823148,1,44.0,0.0,82.0,75.0,58.0,0.893982,0.016724,-0.329346,-0.303406,-0.068702,0.183206,-0.038168,5.236157,1.704712,6.293677,-0.434253,-0.546704,-1.374536,0.271558,-0.437842,-1.452295,you
1616137037.7922275,1,41.0,1.0,80.0,81.0,58.0,0.894958,0.016846,-0.325867,-0.30426,-0.076336,0.122137,-0.015267,4.512403,1.91167,7.056909,-1.102978,-0.326587,-0.655566,-0.448608,0.235669,-1.221411,you
1616137037.802238,1,40.0,-1.0,81.0,149.0,75.0,0.895569,0.016602,-0.32312,-0.305298,-0.091603,0.061069,-0.038168,4.019531,2.093506,7.701709,-1.552783,-0.130396,-0.045459,-0.980957,0.75127,-0.947461,you
1616137037.8129132,1,41.0,-2.0,80.0,80.0,58.0,0.895813,0.016113,-0.321167,-0.306763,-0.099237,0.015267,-0.061069,3.799414,2.225098,8.187403,-1.741797,0.010767,0.413916,-1.290796,1.052734,-0.653174,you
1616137037.8219872,1,43.0,3.0,84.0,80.0,58.0,0.895752,0.015381,-0.319763,-0.308472,-0.099237,-0.015267,-0.068702,3.841284,2.341138,8.522364,-1.67959,0.137573,0.730933,-1.367358,1.179541,-0.333765,you
1616137037.8320017,1,39.0,-1.0,79.0,80.0,58.0,0.895447,0.014648,-0.318909,-0.310181,-0.091603,-0.022901,-0.076336,4.021924,2.403345,8.618067,-1.485791,0.206958,0.815869,-1.2573,1.146045,-0.13877,you
1616137037.8421376,1,44.0,3.0,81.0,78.0,58.0,0.89502,0.013977,-0.318604,-0.311768,-0.068702,-0.038168,-0.076336,4.325781,2.429663,8.524755,-1.177148,0.236865,0.717773,-0.994116,0.982153,-0.035889,you
1616137037.8518598,1,43.0,-1.0,80.0,82.0,58.0,0.89447,0.013611,-0.318909,-0.313049,-0.045802,-0.045802,-0.076336,4.718164,2.465552,8.339331,-0.788355,0.269165,0.535937,-0.635229,0.758447,0.043066,you
1616137037.8619552,1,41.0,0.0,82.0,82.0,58.0,0.893921,0.01355,-0.319397,-0.314087,-0.022901,-0.030534,-0.068702,5.108154,2.501441,8.090503,-0.404346,0.29668,0.293091,-0.247632,0.519189,0.071777,you
1616137037.8721251,1,44.0,4.0,82.0,79.0,58.0,0.893494,0.013794,-0.319946,-0.314819,0.0,-0.007634,-0.053435,5.487378,2.526562,7.841675,-0.029907,0.309839,0.05144,0.123218,0.27395,0.093311,you
1616137037.88213,1,41.0,-1.0,81.0,80.0,58.0,0.893188,0.014404,-0.32019,-0.315369,0.015267,0.022901,-0.053435,5.770898,2.502637,7.667017,0.253613,0.270361,-0.118433,0.369653,0.050244,0.110059,you
1616137037.8920069,1,41.0,0.0,82.0,82.0,58.0,0.893066,0.01532,-0.320068,-0.315857,0.030534,0.045802,-0.061069,5.926416,2.569629,7.600024,0.418701,0.319409,-0.186621,0.534741,-0.016748,0.160303,you
1616137037.9021864,1,41.0,1.0,81.0,83.0,58.0,0.892883,0.016663,-0.319702,-0.316711,0.030534,0.061069,-0.076336,6.010156,2.716773,7.610791,0.517993,0.440234,-0.18064,0.656763,0.021533,0.248828,you
1616137037.9119947,1,43.0,3.0,81.0,82.0,56.0,0.8927,0.017944,-0.318909,-0.317871,0.007634,0.076336,-0.091603,6.014941,2.848364,7.683764,0.546704,0.546704,-0.11604,0.69624,0.099292,0.340942,you
1616137037.9219844,1,41.0,0.0,81.0,76.0,58.0,0.892517,0.01886,-0.317932,-0.319275,-0.015267,0.068702,-0.091603,5.930005,2.90459,7.763916,0.485693,0.584985,-0.046655,0.641211,0.174658,0.37085,you
1616137037.932016,1,43.0,0.0,84.0,84.0,58.0,0.892395,0.01947,-0.317017,-0.320557,-0.030534,0.045802,-0.076336,5.770898,2.905786,7.860816,0.34812,0.573022,0.037085,0.504834,0.257202,0.35769,you
1616137037.9419272,1,41.0,1.0,82.0,80.0,58.0,0.892273,0.019836,-0.316284,-0.321594,-0.022901,0.022901,-0.061069,5.568726,2.909375,7.993604,0.161499,0.568237,0.161499,0.320605,0.381616,0.352905,you
1616137037.9521422,1,42.0,2.0,82.0,82.0,92.0,0.89209,0.020142,-0.315918,-0.322388,-0.015267,-0.007634,-0.045802,5.374927,2.887842,8.119214,-0.021533,0.53833,0.283521,0.12561,0.485693,0.343335,you
1616137037.9621005,1,41.0,4.0,80.0,82.0,57.0,0.891846,0.020447,-0.315857,-0.32312,0.0,-0.022901,-0.045802,5.252905,2.863916,8.214917,-0.13877,0.50603,0.378027,-0.014355,0.544312,0.346924,you
1616137037.9719927,1,39.0,4.0,80.0,80.0,58.0,0.891541,0.020874,-0.316162,-0.32373,0.015267,-0.038168,-0.038168,5.21582,2.885449,8.279516,-0.175854,0.514404,0.446216,-0.070581,0.583789,0.384009,you
1616137037.9820037,1,44.0,1.0,81.0,76.0,58.0,0.891174,0.021423,-0.316589,-0.324158,0.022901,-0.038168,-0.030534,5.272046,2.928516,8.309423,-0.120825,0.541919,0.483301,-0.044263,0.579004,0.451001,you
1616137037.9921484,1,43.0,0.0,80.0,76.0,57.0,0.89093,0.022034,-0.317139,-0.324341,0.030534,-0.030534,-0.022901,5.366553,2.982349,8.26875,-0.031104,0.581396,0.448608,0.049048,0.551489,0.482104,you
1616137038.0022411,1,43.0,4.0,80.0,82.0,58.0,0.890686,0.022705,-0.317688,-0.324402,0.030534,-0.015267,-0.015267,5.444312,3.076855,8.186206,0.04187,0.660352,0.374438,0.178247,0.557471,0.483301,you
1616137038.0119686,1,44.0,3.0,84.0,84.0,58.0,0.890503,0.023621,-0.318115,-0.324463,0.038168,-0.007634,-0.015267,5.475415,3.152222,8.04624,0.072974,0.716577,0.239258,0.30625,0.559863,0.407935,you
1616137038.021913,1,43.0,-17.0,74.0,77.0,58.0,0.890259,0.024475,-0.318542,-0.324524,0.030534,-0.007634,-0.015267,5.518481,3.215625,7.918237,0.114844,0.762036,0.118433,0.425879,0.551489,0.34812,you
1616137038.0321822,1,43.0,1.0,62.0,80.0,58.0,0.890137,0.025085,-0.318909,-0.324585,0.015267,-0.007634,-0.007634,5.547193,3.226392,7.802197,0.142358,0.759644,0.007178,0.504834,0.514404,0.275146,you
1616137038.0420072,1,43.0,1.0,82.0,79.0,58.0,0.890015,0.025513,-0.319153,-0.324524,0.007634,0.0,0.0,5.550781,3.171362,7.714868,0.144751,0.69624,-0.075366,0.519189,0.449805,0.194995,you
1616137038.0518968,1,41.0,3.0,84.0,78.0,57.0,0.890015,0.025757,-0.319397,-0.324341,0.007634,-0.007634,0.007634,5.526855,3.075659,7.635913,0.118433,0.595752,-0.150732,0.491675,0.374438,0.095703,you
1616137038.061899,1,42.0,1.0,80.0,80.0,58.0,0.889954,0.025879,-0.319702,-0.324158,0.007634,-0.015267,0.007634,5.510108,2.991919,7.589258,0.096899,0.508423,-0.193799,0.45459,0.311035,0.027515,you
1616137038.0719836,1,43.0,4.0,79.0,84.0,60.0,0.889832,0.02594,-0.320068,-0.324097,0.0,-0.022901,0.0,5.52207,2.917749,7.566528,0.104077,0.43186,-0.211743,0.425879,0.244043,0.0,you
1616137038.0819538,1,41.0,4.0,80.0,79.0,58.0,0.889709,0.025818,-0.320435,-0.324036,-0.007634,-0.022901,0.0,5.561548,2.841187,7.54021,0.137573,0.355298,-0.233276,0.416309,0.160303,-0.017944,you
1616137038.0920098,1,41.0,0.0,84.0,79.0,55.0,0.889648,0.025513,-0.320862,-0.323853,-0.015267,-0.022901,0.007634,5.632129,2.757446,7.529443,0.198584,0.275146,-0.239258,0.410327,0.059814,-0.00957,you
1616137038.1019406,1,44.0,1.0,81.0,80.0,58.0,0.889648,0.025269,-0.321106,-0.323669,-0.015267,-0.007634,0.007634,5.691943,2.685669,7.522265,0.252417,0.206958,-0.244043,0.405542,-0.025122,0.0,you
1616137038.111971,1,40.0,4.0,81.0,81.0,58.0,0.889709,0.025146,-0.321106,-0.323486,-0.007634,0.015267,0.007634,5.724243,2.623462,7.534228,0.283521,0.14834,-0.23208,0.384009,-0.087329,0.010767,you
1616137038.121987,1,42.0,3.0,84.0,79.0,58.0,0.889893,0.025208,-0.320862,-0.323242,0.0,0.030534,0.007634,5.69314,2.589966,7.556958,0.256006,0.117236,-0.211743,0.33855,-0.092114,0.003589,you
1616137038.1313186,1,42.0,-1.0,81.0,84.0,58.0,0.890137,0.025452,-0.320374,-0.323059,0.007634,0.038168,0.0,5.629736,2.591162,7.602417,0.200977,0.118433,-0.172266,0.284717,-0.052637,0.003589,you
1616137038.14196,1,42.0,3.0,83.0,79.0,57.0,0.89032,0.02594,-0.319885,-0.322937,0.007634,0.038168,0.0,5.550781,2.648584,7.644287,0.132788,0.171069,-0.136377,0.252417,0.034692,0.008374,you
1616137038.1514547,1,40.0,1.0,83.0,80.0,58.0,0.890503,0.026428,-0.319458,-0.322937,0.007634,0.030534,-0.007634,5.449097,2.728735,7.678979,0.039478,0.245239,-0.10647,0.221313,0.153125,0.0,you
1616137038.16125,1,45.0,1.0,81.0,83.0,58.0,0.890564,0.026978,-0.319153,-0.322998,0.007634,0.015267,-0.007634,5.334253,2.811279,7.714868,-0.0646,0.319409,-0.07417,0.183032,0.278735,-0.013159,you
1616137038.1713388,1,41.0,4.0,81.0,76.0,58.0,0.890442,0.027466,-0.319153,-0.323181,0.007634,-0.007634,-0.015267,5.255298,2.911767,7.765112,-0.139966,0.410327,-0.022729,0.159106,0.403149,0.00957,you
1616137038.1820223,1,44.0,3.0,84.0,76.0,57.0,0.89032,0.027893,-0.319275,-0.323486,0.0,-0.015267,-0.022901,5.209839,3.005078,7.817749,-0.184229,0.492871,0.029907,0.14834,0.502441,0.047852,you
1616137040.099043,1,38.0,12.0,81.0,78.0,58.0,0.911072,0.390259,-0.109558,0.074585,0.0,0.0,0.0,2.403345,6.988721,7.071265,-0.123218,0.179443,0.491675,-0.227295,-0.240454,0.42229,you
1616137040.109186,1,38.0,16.0,79.0,79.0,58.0,0.911072,0.390259,-0.109375,0.074585,0.007634,0.007634,-0.007634,2.439233,6.993506,7.091601,-0.08374,0.184229,0.512012,-0.192603,-0.250024,0.449805,you
1616137040.1195364,1,40.0,13.0,81.0,79.0,61.0,0.911072,0.39032,-0.109131,0.074646,0.007634,0.007634,-0.007634,2.453589,7.013843,7.109546,-0.065796,0.203369,0.529956,-0.181836,-0.248828,0.479712,you
1616137040.1291063,1,39.0,17.0,81.0,78.0,57.0,0.911133,0.390381,-0.108887,0.074585,0.007634,0.0,-0.007634,2.45,7.040161,7.126294,-0.0646,0.227295,0.545508,-0.189014,-0.244043,0.507227,you
1616137040.139237,1,38.0,16.0,81.0,80.0,58.0,0.911133,0.390381,-0.108765,0.074524,0.0,-0.007634,-0.007634,2.436841,7.071265,7.123901,-0.075366,0.258398,0.543115,-0.205762,-0.221313,0.523975,you
1616137040.1491797,1,41.0,15.0,79.0,85.0,58.0,0.911133,0.390442,-0.108826,0.07428,0.0,-0.022901,-0.007634,2.426074,7.104761,7.116724,-0.084937,0.289502,0.535937,-0.220117,-0.196191,0.53833,you
1616137040.1592336,1,39.0,15.0,82.0,80.0,58.0,0.911072,0.390442,-0.109192,0.073975,-0.007634,-0.038168,-0.007634,2.429663,7.132276,7.111938,-0.086133,0.318213,0.533545,-0.227295,-0.174658,0.556274,you
1616137040.169202,1,40.0,15.0,83.0,77.0,58.0,0.911072,0.390381,-0.10968,0.073608,-0.007634,-0.045802,-0.007634,2.445215,7.152612,7.103564,-0.075366,0.339746,0.526367,-0.221313,-0.153125,0.569434,you
1616137040.179069,1,21.0,16.0,81.0,78.0,58.0,0.911011,0.390381,-0.110352,0.073181,-0.007634,-0.053435,-0.007634,2.4823,7.181323,7.111938,-0.047852,0.368457,0.53833,-0.203369,-0.141162,0.604126,you
1616137040.1890888,1,38.0,16.0,82.0,78.0,57.0,0.911011,0.39032,-0.111023,0.072815,-0.015267,-0.053435,-0.007634,2.538525,7.194482,7.115527,0.0,0.382812,0.543115,-0.162695,-0.132788,0.629248,you
1616137040.199247,1,40.0,15.0,80.0,78.0,58.0,0.911011,0.390198,-0.111633,0.07251,-0.015267,-0.045802,-0.007634,2.593555,7.20166,7.102368,0.045459,0.392383,0.531152,-0.119629,-0.114844,0.640015,you
1616137040.2091918,1,41.0,15.0,81.0,79.0,58.0,0.911072,0.390076,-0.112061,0.072205,-0.015267,-0.030534,-0.007634,2.64021,7.213623,7.079638,0.086133,0.405542,0.507227,-0.080151,-0.086133,0.643604,you
1616137040.2191484,1,40.0,15.0,83.0,80.0,58.0,0.911072,0.389893,-0.112366,0.072021,-0.015267,-0.022901,-0.007634,2.642602,7.225586,7.052124,0.084937,0.421094,0.479712,-0.081348,-0.055029,0.635229,you
1616137040.2291384,1,39.0,17.0,83.0,82.0,58.0,0.911133,0.389771,-0.11261,0.071838,-0.015267,-0.022901,-0.007634,2.641406,7.217212,7.018628,0.081348,0.415112,0.44502,-0.077759,-0.034692,0.607715,you
1616137040.2392864,1,41.0,15.0,80.0,80.0,58.0,0.911194,0.389587,-0.112915,0.071594,-0.015267,-0.022901,-0.007634,2.635425,7.194482,6.973169,0.071777,0.394775,0.398364,-0.076563,-0.014355,0.559863,you
1616137040.2491732,1,40.0,15.0,80.0,80.0,58.0,0.911194,0.389465,-0.113281,0.07135,-0.015267,-0.030534,-0.007634,2.63064,7.166968,6.920532,0.062207,0.369653,0.345728,-0.071777,0.004785,0.503638,you
1616137040.2591393,1,40.0,15.0,80.0,82.0,58.0,0.911255,0.389282,-0.11377,0.071045,-0.015267,-0.038168,-0.007634,2.624658,7.123901,6.879858,0.050244,0.328979,0.303857,-0.069385,0.007178,0.44502,you
1616137040.268944,1,40.0,15.0,82.0,80.0,58.0,0.911255,0.389221,-0.114319,0.07074,-0.015267,-0.045802,-0.007634,2.631836,7.082031,6.837988,0.050244,0.288306,0.263184,-0.053833,0.008374,0.388794,you
1616137040.279045,1,41.0,13.0,82.0,82.0,58.0,0.911194,0.389221,-0.11499,0.070374,-0.007634,-0.053435,-0.007634,2.648584,7.042554,6.800903,0.057422,0.248828,0.229687,-0.033496,0.005981,0.340942,you
1616137040.2890203,1,39.0,15.0,84.0,79.0,58.0,0.911072,0.389282,-0.115784,0.070007,0.0,-0.053435,-0.007634,2.690454,7.028198,6.787744,0.088525,0.234473,0.221313,0.0,0.003589,0.333765,you
1616137040.299153,1,38.0,11.0,79.0,77.0,58.0,0.911011,0.389404,-0.116394,0.069702,0.0,-0.045802,-0.007634,2.737109,7.038965,6.792529,0.126807,0.244043,0.229687,0.0323,0.004785,0.356494,you
1616137040.3091066,1,38.0,16.0,81.0,76.0,58.0,0.91095,0.389404,-0.116882,0.069458,-0.007634,-0.030534,-0.007634,2.76582,7.088013,6.803296,0.14834,0.294287,0.242847,0.039478,0.031104,0.405542,you
1616137040.3190482,1,41.0,15.0,82.0,77.0,59.0,0.91095,0.389343,-0.117126,0.069214,-0.015267,-0.015267,-0.007634,2.781372,7.132276,6.816455,0.161499,0.33855,0.256006,0.040674,0.05144,0.448608,you
1616137040.3291051,1,39.0,12.0,82.0,78.0,58.0,0.911072,0.389099,-0.117188,0.069092,-0.022901,-0.007634,-0.007634,2.764624,7.168164,6.823633,0.144751,0.378027,0.259595,0.015552,0.076563,0.47373,you
1616137040.3392062,1,42.0,15.0,79.0,80.0,59.0,0.911194,0.388794,-0.117188,0.068909,-0.030534,-0.007634,-0.007634,2.725147,7.196875,6.851148,0.10647,0.411523,0.283521,-0.031104,0.081348,0.502441,you
1616137040.3490884,1,40.0,15.0,80.0,89.0,58.0,0.911316,0.388489,-0.117188,0.068787,-0.030534,-0.007634,-0.007634,2.69165,7.206445,6.873877,0.07417,0.424683,0.301465,-0.068188,0.076563,0.515601,you
1616137040.359245,1,38.0,15.0,81.0,83.0,58.0,0.911438,0.388184,-0.11731,0.068604,-0.022901,-0.015267,-0.007634,2.658154,7.220801,6.913354,0.039478,0.443823,0.337354,-0.111255,0.062207,0.543115,you
1616137040.369337,1,39.0,16.0,84.0,79.0,59.0,0.91156,0.387878,-0.117493,0.068481,-0.022901,-0.022901,0.0,2.631836,7.236352,6.96001,0.011963,0.462964,0.38042,-0.149536,0.044263,0.577808,you
1616137040.379035,1,41.0,16.0,80.0,79.0,60.0,0.911682,0.387634,-0.117737,0.068359,-0.022901,-0.030534,0.007634,2.597144,7.26626,7.02102,-0.025122,0.49646,0.437842,-0.202173,0.025122,0.629248,you
1616137040.3891938,1,40.0,14.0,81.0,77.0,58.0,0.911743,0.38739,-0.118164,0.068298,-0.022901,-0.038168,0.015267,2.555274,7.320093,7.088013,-0.07417,0.555078,0.502441,-0.272754,0.016748,0.699829,you
1616137040.398995,1,42.0,16.0,81.0,82.0,58.0,0.911743,0.387146,-0.118713,0.068359,-0.015267,-0.045802,0.022901,2.5146,7.400244,7.174146,-0.124414,0.640015,0.588574,-0.354102,0.011963,0.80271,you
1616137040.4088235,1,38.0,16.0,79.0,80.0,57.0,0.911682,0.386963,-0.119507,0.068542,-0.015267,-0.053435,0.045802,2.494263,7.47561,7.278223,-0.160303,0.721362,0.693848,-0.424683,-0.007178,0.91875,you
1616137040.418933,1,39.0,16.0,78.0,80.0,58.0,0.91156,0.386902,-0.120422,0.068909,0.0,-0.061069,0.053435,2.483496,7.561743,7.395459,-0.19021,0.811084,0.814673,-0.495264,-0.033496,1.052734,you
1616137040.429038,1,41.0,17.0,82.0,80.0,58.0,0.911377,0.387024,-0.12146,0.069397,0.015267,-0.068702,0.061069,2.489478,7.653857,7.536621,-0.205762,0.905591,0.961816,-0.557471,-0.075366,1.211841,you
1616137040.4390044,1,40.0,17.0,81.0,80.0,58.0,0.911011,0.38739,-0.12262,0.070007,0.030534,-0.076336,0.068702,2.500244,7.750757,7.662231,-0.220117,1.001294,1.098193,-0.619678,-0.110059,1.36377,you
1616137040.4489942,1,41.0,15.0,81.0,79.0,58.0,0.910522,0.387878,-0.124084,0.070679,0.038168,-0.091603,0.083969,2.512207,7.877563,7.769897,-0.239258,1.126904,1.221411,-0.691455,-0.114844,1.524072,you
1616137040.4589846,1,39.0,16.0,82.0,44.0,58.0,0.910034,0.388306,-0.125854,0.071289,0.030534,-0.114504,0.091603,2.531348,8.03667,7.890723,-0.256006,1.286011,1.357788,-0.772803,-0.10647,1.717871,you
1616137040.4692416,1,41.0,16.0,82.0,82.0,58.0,0.909607,0.38855,-0.127991,0.071838,0.007634,-0.137405,0.099237,2.540918,8.211329,8.015137,-0.287109,1.464258,1.495361,-0.875684,-0.086133,1.918848,you
1616137040.4790003,1,40.0,16.0,81.0,83.0,61.0,0.909302,0.388306,-0.130615,0.072205,-0.030534,-0.167939,0.099237,2.561255,8.395556,8.135962,-0.31582,1.659253,1.625757,-0.982153,-0.046655,2.127002,you
1616137040.489222,1,38.0,19.0,82.0,79.0,58.0,0.909241,0.387451,-0.133728,0.072266,-0.076336,-0.206107,0.099237,2.631836,8.527148,8.253199,-0.299072,1.811182,1.746582,-1.037183,-0.023926,2.31123,you
1616137040.499149,1,39.0,16.0,83.0,80.0,58.0,0.909424,0.385803,-0.13739,0.07196,-0.129771,-0.236641,0.099237,2.74668,8.624048,8.368042,-0.245239,1.940381,1.855444,-1.052734,-0.001196,2.481103,you
1616137040.5090709,1,39.0,16.0,81.0,80.0,58.0,0.909851,0.383362,-0.141541,0.071411,-0.19084,-0.259542,0.099237,2.898608,8.693433,8.476904,-0.161499,2.054028,1.949951,-1.038379,0.025122,2.639014,you
1616137040.519007,1,40.0,13.0,79.0,83.0,58.0,0.910522,0.380188,-0.146179,0.070557,-0.244275,-0.282443,0.099237,3.073267,8.74248,8.566626,-0.061011,2.159302,2.01814,-1.003687,0.072974,2.77898,you
1616137040.528924,1,38.0,17.0,81.0,80.0,58.0,0.911377,0.376282,-0.151367,0.06958,-0.290076,-0.312977,0.10687,3.259888,8.785547,8.632421,0.04187,2.26936,2.056421,-0.965405,0.150732,2.901001,you
1616137040.5389802,1,64.0,15.0,81.0,80.0,58.0,0.912354,0.371704,-0.157104,0.068604,-0.335878,-0.335878,0.129771,3.447705,8.819043,8.697021,0.137573,2.383008,2.088721,-0.939087,0.240454,3.019433,you
1616137040.5490522,1,41.0,19.0,79.0,79.0,58.0,0.913452,0.366516,-0.163391,0.067444,-0.381679,-0.374046,0.137405,3.640308,8.880054,8.768799,0.229687,2.53374,2.124609,-0.92832,0.360083,3.160596,you
1616137040.5589244,1,43.0,16.0,83.0,79.0,57.0,0.914551,0.360718,-0.170227,0.06604,-0.419847,-0.412214,0.137405,3.822144,8.930298,8.836987,0.303857,2.684473,2.155713,-0.937891,0.490479,3.288599,you
1616137040.56895,1,40.0,15.0,84.0,80.0,58.0,0.915771,0.35437,-0.177795,0.064209,-0.473282,-0.458015,0.137405,3.976465,8.979345,8.908765,0.33855,2.842383,2.189209,-0.990527,0.630444,3.405835,you
1616137040.578999,1,39.0,17.0,83.0,84.0,59.0,0.917053,0.347168,-0.186096,0.062012,-0.534351,-0.51145,0.145038,4.108057,9.036768,8.976954,0.340942,3.021826,2.21792,-1.080249,0.800317,3.514697,you
1616137040.5882726,1,41.0,17.0,84.0,79.0,58.0,0.918396,0.338989,-0.195251,0.059204,-0.610687,-0.572519,0.145038,4.220508,9.096582,9.014038,0.312231,3.22041,2.213135,-1.195093,1.020435,3.590064,you
1616137040.598364,1,40.0,17.0,82.0,76.0,60.0,0.9198,0.32959,-0.205383,0.055847,-0.70229,-0.633588,0.145038,4.37124,9.088208,8.982935,0.307446,3.371143,2.138965,-1.252515,1.260889,3.587671,you
1616137040.6083982,1,41.0,14.0,81.0,83.0,58.0,0.921204,0.318848,-0.216614,0.05188,-0.78626,-0.694656,0.160305,4.579394,8.936279,8.886035,0.343335,3.398657,1.998999,-1.216626,1.454687,3.472827,you
1616137040.618978,1,40.0,15.0,81.0,79.0,55.0,0.922485,0.306946,-0.228943,0.047852,-0.847328,-0.748092,0.183206,4.81626,8.585767,8.707788,0.388794,3.250317,1.782471,-1.096997,1.552783,3.203662,you
1616137040.628906,1,41.0,15.0,79.0,82.0,58.0,0.923523,0.294312,-0.241943,0.043762,-0.870229,-0.778626,0.198473,5.056714,8.132373,8.49126,0.424683,3.012256,1.536035,-0.945068,1.585083,2.863916,you
1616137040.6391635,1,39.0,16.0,82.0,80.0,58.0,0.924011,0.281555,-0.255432,0.039795,-0.862595,-0.80916,0.21374,5.254102,7.625146,8.235254,0.407935,2.725147,1.268066,-0.808691,1.569531,2.465552,you
1616137040.648873,1,40.0,15.0,81.0,80.0,58.0,0.924011,0.268921,-0.269287,0.035828,-0.839695,-0.839695,0.21374,5.413208,7.176538,7.974463,0.346924,2.494263,1.013257,-0.715381,1.575513,2.089917,you
1616137040.6581502,1,44.0,17.0,82.0,80.0,58.0,0.923401,0.256592,-0.283569,0.031799,-0.824427,-0.885496,0.221374,5.490967,6.77937,7.66582,0.198584,2.31123,0.732129,-0.6771,1.624561,1.678394,you
1616137040.6681595,1,40.0,15.0,82.0,78.0,58.0,0.922119,0.244202,-0.298767,0.027771,-0.824427,-0.954198,0.244275,5.514893,6.443213,7.355981,-0.016748,2.191602,0.47373,-0.699829,1.707104,1.272852,you
1616137040.678261,1,40.0,15.0,84.0,79.0,58.0,0.920105,0.231567,-0.314941,0.023499,-0.847328,-1.030534,0.259542,5.528052,6.229077,7.059302,-0.257202,2.197583,0.25481,-0.765625,1.873389,0.92832,you
1616137040.688916,1,39.0,15.0,81.0,79.0,58.0,0.917419,0.218506,-0.33197,0.018616,-0.885496,-1.099237,0.244275,5.545996,6.116626,6.731519,-0.502441,2.307642,0.027515,-0.820654,2.129395,0.605322,you
1616137040.698964,1,39.0,15.0,79.0,82.0,58.0,0.914124,0.204773,-0.349609,0.012695,-0.954198,-1.152672,0.221374,5.62854,6.002978,6.388184,-0.685474,2.420093,-0.192603,-0.797925,2.372241,0.313428,you
1616137040.708219,1,41.0,16.0,82.0,78.0,58.0,0.910217,0.190002,-0.367798,0.005981,-1.022901,-1.198473,0.206107,5.768506,5.778076,5.992212,-0.814673,2.430859,-0.447412,-0.661548,2.515796,-0.010767,you
1616137040.7190402,1,39.0,10.0,81.0,79.0,58.0,0.905701,0.174133,-0.386414,-0.001343,-1.083969,-1.229008,0.198473,5.996997,5.384497,5.581885,-0.857739,2.28252,-0.69624,-0.415112,2.479907,-0.322998,you
1616137040.7289383,1,39.0,12.0,79.0,81.0,58.0,0.900574,0.157471,-0.404968,-0.008789,-1.099237,-1.221374,0.183206,6.31521,4.779175,5.156006,-0.805103,1.929614,-0.94148,-0.066992,2.20835,-0.608911,you
1616137040.7389374,1,40.0,15.0,79.0,78.0,58.0,0.894958,0.140869,-0.422913,-0.016235,-1.061069,-1.175573,0.152672,6.763818,4.009961,4.754053,-0.608911,1.403247,-1.149634,0.35769,1.710693,-0.777588,you
1616137040.7482495,1,43.0,17.0,82.0,79.0,58.0,0.88916,0.125,-0.439514,-0.023376,-0.992366,-1.076336,0.114504,7.277026,3.191699,4.36167,-0.324194,0.811084,-1.344629,0.803906,1.104175,-0.837402,you
1616137040.75903,1,38.0,15.0,81.0,78.0,58.0,0.883423,0.110474,-0.454285,-0.030212,-0.900763,-0.961832,0.068702,7.725635,2.454785,3.969287,-0.07417,0.272754,-1.545605,1.193897,0.535937,-0.86731,you
1616137040.7683744,1,40.0,15.0,95.0,78.0,58.0,0.877991,0.097412,-0.467163,-0.036987,-0.832061,-0.847328,0.022901,8.037867,1.959522,3.615185,0.068188,-0.055029,-1.720264,1.463062,0.169873,-0.892432,you
1616137040.7789984,1,41.0,13.0,79.0,82.0,58.0,0.872864,0.08551,-0.478333,-0.044128,-0.80916,-0.748092,-0.030534,8.192187,1.774097,3.253906,0.082544,-0.101685,-1.917651,1.660449,0.092114,-0.963013,you
1616137040.7882936,1,40.0,16.0,80.0,78.0,56.0,0.86792,0.073975,-0.488342,-0.052063,-0.839695,-0.694656,-0.068702,8.198169,1.738208,2.854346,-0.033496,-0.017944,-2.162891,1.831519,0.155518,-1.137671,you
1616137040.7984228,1,41.0,15.0,82.0,78.0,57.0,0.862915,0.062134,-0.497742,-0.061157,-0.908397,-0.671756,-0.114504,8.164673,1.78606,2.415308,-0.178247,0.137573,-2.452393,2.042065,0.278735,-1.345825,you
1616137040.808179,1,41.0,15.0,80.0,82.0,58.0,0.857666,0.049622,-0.506775,-0.071594,-0.984733,-0.664122,-0.175573,8.212524,1.687964,1.887744,-0.235669,0.142358,-2.829224,2.377026,0.215332,-1.542017,you
1616137040.8189323,1,40.0,17.0,80.0,80.0,58.0,0.85199,0.036438,-0.515686,-0.082947,-1.038168,-0.648855,-0.21374,8.406323,1.314722,1.275244,-0.144751,-0.131592,-3.286206,2.828027,-0.179443,-1.674805,you
1616137040.8290691,1,41.0,12.0,81.0,76.0,58.0,0.845825,0.022827,-0.524475,-0.09436,-1.030534,-0.641221,-0.229008,8.645581,0.549097,0.476123,-0.005981,-0.799121,-3.920239,3.383106,-1.019238,-1.873389,you
1616137040.8389874,1,38.0,13.0,80.0,80.0,58.0,0.839172,0.009338,-0.533569,-0.104797,-0.954198,-0.641221,-0.229008,8.962598,-0.525171,-0.495264,0.204565,-1.774097,-4.712183,4.017138,-2.225098,-2.070776,you
1616137040.8484187,1,40.0,16.0,80.0,88.0,54.0,0.831909,-0.003052,-0.543091,-0.113708,-0.816794,-0.633588,-0.229008,9.371729,-1.674805,-1.716675,0.508423,-2.835205,-5.73501,4.827026,-3.593652,-2.22749,you
1616137040.8590648,1,39.0,13.0,82.0,79.0,59.0,0.824036,-0.01355,-0.553223,-0.121338,-0.664122,-0.610687,-0.267176,10.071558,-2.759839,-3.16897,1.104175,-3.85564,-6.965991,5.894116,-5.035181,-2.119824,you
1616137040.8690794,1,38.0,15.0,85.0,82.0,59.0,0.815857,-0.021606,-0.563354,-0.128418,-0.526718,-0.526718,-0.358779,11.132666,-3.677392,-4.78396,2.06958,-4.749268,-8.353686,7.208838,-6.474317,-1.648486,you
1616137040.879009,1,39.0,13.0,82.0,80.0,57.0,0.808167,-0.027283,-0.572388,-0.135864,-0.450382,-0.343511,-0.480916,12.538305,-4.411914,-6.531738,3.398657,-5.50293,-9.894506,8.746069,-7.906274,-0.838599,you
1616137040.8882637,1,44.0,17.0,82.0,79.0,58.0,0.802246,-0.030945,-0.578369,-0.144836,-0.458015,-0.007634,-0.618321,14.292066,-4.811475,-8.134766,5.109351,-5.965894,-11.359961,10.316797,-9.175537,0.344531,you
1616137040.8990283,1,41.0,13.0,82.0,79.0,58.0,0.799561,-0.033325,-0.578796,-0.156677,-0.587786,0.465649,-0.763359,15.700098,-4.920337,-9.608594,6.526953,-6.175244,-12.819433,11.778662,-10.249804,1.116138,you
1616137040.9089055,1,42.0,12.0,83.0,79.0,58.0,0.800903,-0.035828,-0.572388,-0.172119,-0.816794,1.0,-0.854962,16.733692,-4.821045,-10.806079,7.627539,-6.1896,-14.158081,13.022802,-11.198462,1.378125,you
1616137040.919098,1,40.0,12.0,81.0,79.0,60.0,0.806519,-0.03949,-0.558167,-0.190796,-1.068702,1.534351,-0.885496,17.197851,-4.801904,-11.401831,8.225683,-6.264966,-15.063672,13.631714,-12.125586,0.964209,you
1616137040.929052,1,40.0,11.0,80.0,80.0,58.0,0.816467,-0.04425,-0.535767,-0.210693,-1.198473,2.0,-0.832061,16.19895,-5.256494,-11.137451,7.442114,-6.76023,-15.273023,12.939062,-12.892407,-0.832617,you
1616137040.938974,1,40.0,11.0,81.0,78.0,58.0,0.829651,-0.048706,-0.507019,-0.228699,-1.083969,2.244275,-0.687023,13.565918,-6.122607,-9.612183,5.102173,-7.602417,-14.326757,10.418482,-12.935473,-3.635522,you
1616137040.9489431,1,41.0,10.0,82.0,80.0,58.0,0.845032,-0.049377,-0.473694,-0.243164,-0.725191,2.320611,-0.580153,9.457861,-6.571216,-6.138159,1.375732,-8.010351,-11.491552,5.852246,-11.13147,-6.321191,you
1616137040.9588494,1,38.0,9.0,82.0,78.0,56.0,0.861267,-0.043274,-0.4375,-0.254761,-0.29771,2.244275,-0.541985,4.300659,-6.016138,-1.187915,-3.300561,-7.469629,-7.199267,0.096899,-7.288989,-8.083325,you
1616137040.9682798,1,39.0,8.0,80.0,76.0,57.0,0.876099,-0.030945,-0.401794,-0.264526,0.022901,1.931298,-0.51145,-1.248926,-4.06499,4.127197,-8.308228,-5.616577,-2.488281,-5.49336,-1.838696,-8.553467,you
1616137040.978181,1,38.0,8.0,80.0,45.0,56.0,0.887207,-0.016602,-0.371521,-0.27301,0.099237,1.366412,-0.40458,-6.116626,-1.004883,8.230469,-12.665112,-2.703613,1.14126,-9.364551,3.944165,-8.107251,you
1616137040.9883528,1,39.0,8.0,81.0,79.0,58.0,0.893799,-0.004944,-0.349609,-0.280823,-0.053435,0.740458,-0.29771,-9.692334,2.344727,11.245117,-15.843653,0.50603,3.841284,-11.6052,9.112134,-6.948047,you
1616137040.9982064,1,38.0,8.0,82.0,80.0,57.0,0.896912,0.001343,-0.3349,-0.288757,-0.267176,0.221374,-0.244275,-11.596827,4.632031,13.460645,-17.476587,2.711987,5.858228,-12.763208,12.446192,-5.409619,you
1616137041.0084317,1,40.0,9.0,82.0,80.0,58.0,0.897644,0.002258,-0.326111,-0.296326,-0.381679,-0.129771,-0.21374,-11.787036,5.614184,15.088794,-17.51128,3.679785,7.373926,-13.083814,13.769287,-3.69773,you
1616137041.018446,1,39.0,5.0,82.0,80.0,55.0,0.897034,-6.1e-05,-0.321716,-0.302979,-0.381679,-0.335878,-0.183206,-10.663721,5.566333,15.819727,-16.319775,3.655859,8.048633,-12.601709,13.423559,-2.32439,you
1616137041.028904,1,39.0,10.0,82.0,79.0,56.0,0.895447,-0.003479,-0.321411,-0.307922,-0.282443,-0.435115,-0.145038,-8.647974,4.970581,15.269434,-14.308813,3.091211,7.494751,-11.22478,11.893506,-1.727441,you
1616137041.0389564,1,41.0,8.0,82.0,83.0,58.0,0.893311,-0.00647,-0.324219,-0.311157,-0.145038,-0.458015,-0.114504,-6.120215,4.265967,13.898486,-11.836084,2.400952,6.159692,-9.253296,9.779663,-1.58269,you
1616137041.048134,1,40.0,9.0,83.0,85.0,58.0,0.890869,-0.008545,-0.329163,-0.312927,-0.038168,-0.442748,-0.083969,-3.439331,3.688159,12.125586,-9.23894,1.818359,4.450195,-6.988721,7.544995,-1.635327,you
1616137041.0582786,1,42.0,9.0,80.0,78.0,59.0,0.888245,-0.009949,-0.335266,-0.313904,0.015267,-0.40458,-0.076336,-0.858936,3.299365,10.272534,-6.75664,1.409229,2.677295,-4.688257,5.464648,-1.719067,you
1616137041.0681677,1,40.0,10.0,82.0,80.0,58.0,0.885559,-0.010986,-0.341492,-0.314697,0.015267,-0.343511,-0.083969,1.442725,3.023022,8.543897,-4.55188,1.106567,1.031201,-2.579199,3.630737,-1.777686,you
1616137041.0780718,1,39.0,8.0,83.0,79.0,58.0,0.882935,-0.011963,-0.34729,-0.315674,0.0,-0.274809,-0.10687,3.324487,2.775391,7.06648,-2.758643,0.832617,-0.366064,-0.849365,2.092309,-1.824341,you
1616137041.0880606,1,40.0,10.0,81.0,78.0,58.0,0.880554,-0.012878,-0.352112,-0.316895,-0.015267,-0.198473,-0.114504,4.804297,2.516992,5.982642,-1.351807,0.551489,-1.38291,0.413916,0.842188,-1.777686,you
1616137041.0981083,1,40.0,9.0,82.0,83.0,68.0,0.878784,-0.01355,-0.35553,-0.318115,-0.015267,-0.099237,-0.10687,5.888135,2.226294,5.256494,-0.319409,0.242847,-2.062402,1.23457,-0.145947,-1.692749,you
1616137041.1081145,1,39.0,9.0,80.0,79.0,58.0,0.877747,-0.013672,-0.357239,-0.31897,0.007634,0.007634,-0.091603,6.548486,1.95354,4.882056,0.317017,-0.044263,-2.411719,1.63772,-0.817065,-1.601831,you
1616137041.118225,1,40.0,9.0,80.0,78.0,57.0,0.877563,-0.013,-0.357483,-0.319275,0.038168,0.091603,-0.053435,6.772192,1.78606,4.829419,0.541919,-0.227295,-2.461963,1.686768,-1.096997,-1.533643,you
1616137041.12816,1,39.0,10.0,83.0,79.0,58.0,0.878052,-0.011658,-0.356506,-0.31897,0.061069,0.137405,-0.007634,6.639404,1.780078,5.041162,0.430664,-0.247632,-2.264575,1.492969,-0.995313,-1.465454,you
1616137041.138127,1,39.0,7.0,80.0,80.0,58.0,0.878967,-0.01001,-0.354919,-0.318298,0.061069,0.152672,0.030534,6.28291,1.951147,5.47063,0.105273,-0.089722,-1.857837,1.153223,-0.581396,-1.34104,you
1616137041.1480165,1,39.0,10.0,84.0,80.0,58.0,0.880066,-0.008423,-0.352783,-0.317688,0.038168,0.145038,0.030534,5.803198,2.19519,6.049634,-0.333765,0.143555,-1.30874,0.703418,-0.013159,-1.161597,you
1616137041.158219,1,40.0,8.0,81.0,82.0,58.0,0.881042,-0.006958,-0.350464,-0.317627,0.007634,0.129771,0.0,5.330664,2.421289,6.665723,-0.764429,0.358887,-0.724951,0.223706,0.539526,-0.946265,you
1616137041.1680884,1,38.0,10.0,82.0,79.0,58.0,0.881714,-0.005737,-0.348083,-0.318298,-0.015267,0.099237,-0.030534,4.9646,2.569629,7.225586,-1.086231,0.49646,-0.197388,-0.200977,0.954639,-0.714185,you
1616137041.17811,1,41.0,9.0,82.0,82.0,57.0,0.882141,-0.004944,-0.346191,-0.319397,-0.038168,0.053435,-0.053435,4.745679,2.677295,7.677783,-1.270459,0.594556,0.226099,-0.50603,1.235767,-0.480908,you
1616137041.188023,1,38.0,9.0,82.0,82.0,56.0,0.882202,-0.004639,-0.34491,-0.320618,-0.045802,0.007634,-0.053435,4.720557,2.739502,7.985229,-1.271655,0.651978,0.515601,-0.648389,1.35061,-0.245239,you
1616137041.1980424,1,41.0,8.0,81.0,77.0,58.0,0.882019,-0.0047,-0.34436,-0.321594,-0.045802,-0.022901,-0.038168,4.902392,2.738306,8.168262,-1.080249,0.648389,0.692651,-0.648389,1.282422,0.005981,you
1616137041.2081232,1,39.0,10.0,82.0,86.0,58.0,0.881836,-0.005066,-0.34436,-0.322144,-0.030534,-0.038168,-0.015267,5.239746,2.698828,8.256787,-0.744092,0.611304,0.781177,-0.534741,1.083838,0.271558,you
1616137041.2180903,1,40.0,10.0,82.0,107.0,97.0,0.881653,-0.005127,-0.344543,-0.322327,-0.007634,-0.022901,-0.007634,5.650073,2.592358,8.231665,-0.336157,0.503638,0.758447,-0.356494,0.763232,0.479712,you
1616137041.2282944,1,39.0,10.0,83.0,79.0,57.0,0.881714,-0.005005,-0.344849,-0.32196,0.022901,0.0,0.015267,6.062793,2.56604,8.156299,0.070581,0.476123,0.68667,-0.104077,0.495264,0.667529,you
1616137041.238027,1,41.0,9.0,82.0,80.0,58.0,0.881836,-0.004395,-0.345032,-0.32135,0.038168,0.022901,0.022901,6.395361,2.643799,8.042651,0.403149,0.545508,0.576611,0.185425,0.337354,0.801514,you
1616137041.2480092,1,40.0,10.0,83.0,83.0,59.0,0.88208,-0.003662,-0.344971,-0.320801,0.022901,0.045802,0.022901,6.584375,2.813672,7.948144,0.596948,0.707007,0.480908,0.441431,0.333765,0.882861,you
1616137041.2582016,1,40.0,11.0,82.0,80.0,58.0,0.882263,-0.003174,-0.344666,-0.320557,-0.007634,0.045802,0.015267,6.627441,2.983545,7.858423,0.647192,0.872095,0.386401,0.620874,0.415112,0.87688,you
1616137041.2680006,1,42.0,10.0,83.0,80.0,58.0,0.882385,-0.003052,-0.344116,-0.320801,-0.053435,0.038168,-0.007634,6.602319,3.063696,7.801001,0.631641,0.952246,0.321802,0.697437,0.472534,0.83501,you
1616137041.2779412,1,39.0,10.0,82.0,78.0,58.0,0.882446,-0.003601,-0.343506,-0.32135,-0.076336,0.022901,-0.007634,6.546094,3.021826,7.778272,0.581396,0.919946,0.290698,0.672314,0.466553,0.772803,you
1616137041.288062,1,40.0,10.0,80.0,80.0,58.0,0.882446,-0.004517,-0.343018,-0.321899,-0.083969,0.0,-0.007634,6.458765,2.88186,7.73999,0.49646,0.795532,0.245239,0.582593,0.405542,0.657959,you
1616137041.298096,1,39.0,10.0,81.0,78.0,57.0,0.882324,-0.005371,-0.342834,-0.322327,-0.061069,-0.015267,-0.007634,6.382202,2.680884,7.689746,0.418701,0.607715,0.193799,0.46416,0.288306,0.531152,you
1616137041.3079011,1,39.0,9.0,84.0,84.0,56.0,0.882202,-0.005798,-0.343018,-0.32251,-0.022901,-0.030534,-0.007634,6.317603,2.508618,7.651465,0.349316,0.440234,0.15791,0.351709,0.186621,0.425879,you
1616137041.3179166,1,41.0,11.0,81.0,88.0,58.0,0.882019,-0.005798,-0.343567,-0.32251,0.015267,-0.038168,-0.007634,6.28291,2.435645,7.603613,0.30625,0.363672,0.117236,0.307446,0.141162,0.352905,you
1616137041.327984,1,39.0,10.0,80.0,80.0,58.0,0.881775,-0.005432,-0.34436,-0.322327,0.030534,-0.038168,0.0,6.256592,2.457178,7.552173,0.270361,0.374438,0.076563,0.317017,0.161499,0.302661,you
1616137041.3379471,1,39.0,9.0,82.0,80.0,58.0,0.881531,-0.004883,-0.345093,-0.322021,0.038168,-0.030534,0.0,6.24104,2.537329,7.494751,0.247632,0.442627,0.029907,0.37085,0.217725,0.267969,you
1616137041.3480394,1,40.0,10.0,81.0,82.0,58.0,0.881409,-0.004333,-0.345764,-0.321838,0.030534,-0.022901,0.0,6.215918,2.631836,7.414599,0.214136,0.525171,-0.04187,0.442627,0.284717,0.211743,you
1616137041.3579545,1,39.0,11.0,81.0,80.0,57.0,0.881226,-0.003723,-0.346191,-0.321899,0.015267,-0.007634,-0.015267,6.203955,2.722754,7.34043,0.200977,0.601733,-0.110059,0.520386,0.337354,0.168677,you
1616137041.36794,1,40.0,10.0,83.0,80.0,58.0,0.881042,-0.003235,-0.346436,-0.322144,0.0,0.0,-0.022901,6.21831,2.769409,7.262671,0.215332,0.637622,-0.184229,0.593359,0.340942,0.130396,you
1616137041.3781834,1,40.0,11.0,82.0,79.0,56.0,0.880859,-0.002808,-0.346558,-0.32251,-0.007634,0.007634,-0.022901,6.215918,2.76582,7.178931,0.214136,0.623267,-0.266772,0.635229,0.311035,0.0646,you
1616137041.388008,1,41.0,9.0,84.0,82.0,58.0,0.880676,-0.002563,-0.346619,-0.322815,-0.007634,0.007634,-0.022901,6.203955,2.732324,7.109546,0.204565,0.582593,-0.334961,0.648389,0.267969,-0.001196,you
1616137041.3979728,1,41.0,8.0,82.0,83.0,58.0,0.880554,-0.002319,-0.346802,-0.322937,0.0,-0.007634,-0.007634,6.184814,2.69165,7.061694,0.184229,0.535937,-0.379224,0.637622,0.23208,-0.056226,you
1616137041.4079823,1,39.0,9.0,81.0,80.0,58.0,0.880432,-0.002197,-0.347229,-0.322876,0.0,-0.015267,0.0,6.168067,2.64978,7.041358,0.161499,0.489282,-0.394775,0.607715,0.204565,-0.092114,you
1616137041.4178972,1,41.0,8.0,82.0,80.0,59.0,0.88031,-0.002075,-0.347717,-0.322693,0.007634,-0.022901,0.007634,6.190796,2.591162,7.038965,0.177051,0.427075,-0.38999,0.577808,0.14834,-0.092114,you
1616137041.4280543,1,40.0,10.0,82.0,80.0,58.0,0.880249,-0.001953,-0.348206,-0.322388,0.015267,-0.015267,0.015267,6.251807,2.521777,7.070068,0.230884,0.354102,-0.352905,0.543115,0.068188,-0.046655,you
1616137041.437954,1,42.0,8.0,82.0,52.0,58.0,0.880249,-0.00177,-0.348633,-0.321899,0.022901,-0.007634,0.015267,6.314013,2.487085,7.101172,0.287109,0.317017,-0.31582,0.531152,0.016748,0.007178,you
1616137041.4479446,1,39.0,11.0,81.0,83.0,58.0,0.88031,-0.001404,-0.348816,-0.321472,0.022901,0.007634,0.015267,6.349902,2.478711,7.119116,0.321802,0.305054,-0.295483,0.529956,-0.005981,0.04187,you
1616137041.4578743,1,38.0,-1.0,82.0,78.0,56.0,0.880432,-0.001099,-0.348816,-0.321228,0.007634,0.015267,0.007634,6.358276,2.484692,7.119116,0.331372,0.307446,-0.295483,0.537134,-0.00957,0.047852,you
1616137041.4672492,1,38.0,10.0,82.0,31.0,87.0,0.880493,-0.000854,-0.348694,-0.321167,-0.007634,0.022901,0.0,6.34751,2.495459,7.11792,0.324194,0.314624,-0.297876,0.53833,0.0,0.043066,you
1616137041.4773731,1,40.0,11.0,82.0,80.0,58.0,0.880554,-0.000793,-0.34845,-0.321289,-0.015267,0.022901,-0.007634,6.327173,2.469141,7.116724,0.307446,0.288306,-0.302661,0.517993,-0.013159,0.022729,you
1616137041.4880662,1,39.0,10.0,81.0,60.0,58.0,0.880554,-0.000854,-0.348267,-0.321472,-0.015267,0.015267,-0.015267,6.281714,2.415308,7.132276,0.265576,0.235669,-0.289502,0.456982,-0.027515,-0.003589,you
1616137041.497907,1,42.0,11.0,84.0,83.0,58.0,0.880554,-0.000854,-0.348022,-0.321594,-0.007634,0.015267,-0.015267,6.238647,2.359082,7.163379,0.226099,0.179443,-0.260791,0.385205,-0.044263,-0.017944,you
1616137041.508088,1,39.0,10.0,80.0,78.0,58.0,0.880554,-0.000732,-0.347961,-0.321716,0.0,0.007634,-0.015267,6.188403,2.32439,7.204053,0.178247,0.142358,-0.221313,0.313428,-0.037085,-0.026318,you
1616137041.5172052,1,39.0,11.0,82.0,79.0,58.0,0.880554,-0.000427,-0.3479,-0.321838,0.007634,0.007634,-0.015267,6.13457,2.319604,7.260278,0.126807,0.131592,-0.166284,0.245239,-0.004785,-0.017944,you
1616137041.5279183,1,42.0,9.0,80.0,76.0,57.0,0.880493,6.1e-05,-0.347961,-0.322021,0.015267,0.0,-0.022901,6.089111,2.349512,7.297363,0.08374,0.151929,-0.129199,0.210547,0.043066,-0.011963,you
1616137041.5373588,1,43.0,10.0,81.0,79.0,57.0,0.88031,0.000488,-0.348083,-0.322266,0.015267,-0.007634,-0.030534,6.055615,2.396167,7.332056,0.052637,0.189014,-0.092114,0.192603,0.098096,0.004785,you
1616137041.5474863,1,39.0,10.0,80.0,77.0,58.0,0.880127,0.000977,-0.348206,-0.322693,0.007634,-0.007634,-0.038168,6.035278,2.453589,7.360766,0.034692,0.233276,-0.062207,0.189014,0.150732,0.026318,you
1616137041.5572126,1,39.0,10.0,83.0,77.0,55.0,0.879944,0.001465,-0.348267,-0.323181,0.0,0.0,-0.038168,6.046045,2.502637,7.383496,0.047852,0.270361,-0.039478,0.203369,0.177051,0.059814,you
1616137041.5674276,1,43.0,10.0,84.0,71.0,57.0,0.879761,0.001892,-0.348267,-0.323669,0.007634,0.007634,-0.038168,6.0604,2.526562,7.375122,0.066992,0.283521,-0.047852,0.226099,0.174658,0.069385,you
1616137041.577235,1,40.0,10.0,81.0,83.0,58.0,0.879639,0.002502,-0.348145,-0.324036,0.015267,0.015267,-0.030534,6.054419,2.53374,7.333252,0.066992,0.278735,-0.089722,0.250024,0.161499,0.035889,you
1616137041.58736,1,39.0,10.0,81.0,79.0,57.0,0.879578,0.003296,-0.348083,-0.324219,0.030534,0.015267,-0.022901,6.042456,2.55647,7.292578,0.062207,0.287109,-0.131592,0.277539,0.161499,0.003589,you
1616137043.195827,1,29.0,16.0,61.0,56.0,41.0,0.897217,0.415833,0.027161,0.145752,-0.022901,-0.007634,-0.007634,0.581396,7.863208,6.791333,-0.128003,0.472534,0.395972,-0.16748,-0.039478,0.605322,you
1616137043.205296,1,29.0,15.0,60.0,57.0,39.0,0.8974,0.415588,0.027039,0.14563,-0.022901,-0.007634,-0.015267,0.610107,7.808179,6.794922,-0.100488,0.421094,0.393579,-0.129199,-0.061011,0.567041,you
1616137043.2159226,1,29.0,16.0,61.0,57.0,42.0,0.897522,0.415283,0.027039,0.145447,-0.015267,-0.007634,-0.015267,0.631641,7.754346,6.799707,-0.076563,0.37085,0.394775,-0.094507,-0.084937,0.531152,you
1616137043.2253013,1,29.0,15.0,61.0,57.0,42.0,0.897644,0.4151,0.027161,0.145203,-0.015267,0.0,-0.022901,0.645996,7.724439,6.803296,-0.057422,0.343335,0.395972,-0.069385,-0.096899,0.513208,you
1616137043.235351,1,31.0,15.0,60.0,57.0,41.0,0.897766,0.414917,0.027283,0.14502,-0.015267,0.0,-0.022901,0.65437,7.72085,6.806885,-0.044263,0.342139,0.395972,-0.056226,-0.093311,0.513208,you
1616137043.2453582,1,29.0,15.0,61.0,35.0,37.0,0.897888,0.414673,0.027405,0.144714,-0.015267,0.0,-0.022901,0.653174,7.751953,6.808081,-0.040674,0.375635,0.393579,-0.061011,-0.070581,0.537134,you
1616137043.255349,1,29.0,15.0,60.0,58.0,42.0,0.898071,0.414368,0.027466,0.144409,-0.022901,-0.007634,-0.022901,0.656763,7.787842,6.81167,-0.0323,0.416309,0.392383,-0.062207,-0.04187,0.567041,you
1616137043.2651992,1,32.0,15.0,62.0,57.0,40.0,0.898315,0.414001,0.027588,0.144104,-0.030534,-0.007634,-0.022901,0.648389,7.817749,6.822436,-0.034692,0.449805,0.397168,-0.071777,-0.025122,0.595752,you
1616137043.275436,1,28.0,16.0,62.0,57.0,41.0,0.89856,0.413574,0.02771,0.143738,-0.038168,-0.007634,-0.030534,0.634033,7.847656,6.828418,-0.043066,0.485693,0.395972,-0.088525,-0.003589,0.620874,you
1616137043.2853494,1,27.0,15.0,61.0,57.0,40.0,0.898865,0.413025,0.027832,0.143372,-0.045802,-0.007634,-0.030534,0.624463,7.870386,6.836792,-0.045459,0.515601,0.395972,-0.096899,0.014355,0.643604,you
1616137043.2952197,1,32.0,17.0,61.0,57.0,42.0,0.899231,0.412415,0.027832,0.143066,-0.045802,-0.007634,-0.022901,0.617285,7.881152,6.836792,-0.047852,0.533545,0.385205,-0.105273,0.033496,0.649585,you
1616137043.3053932,1,28.0,13.0,58.0,57.0,39.0,0.899536,0.411804,0.027832,0.142822,-0.045802,-0.007634,-0.022901,0.623267,7.883545,6.837988,-0.038281,0.544312,0.376831,-0.100488,0.050244,0.653174,you
1616137043.3151932,1,29.0,17.0,60.0,56.0,40.0,0.89978,0.411316,0.027771,0.142639,-0.038168,-0.007634,-0.015267,0.635229,7.866797,6.827222,-0.023926,0.534741,0.358887,-0.087329,0.062207,0.635229,you
1616137043.325302,1,26.0,15.0,62.0,57.0,42.0,0.900024,0.410828,0.027771,0.142517,-0.030534,0.0,-0.015267,0.640015,7.830908,6.816455,-0.016748,0.50603,0.339746,-0.076563,0.061011,0.600537,you
1616137043.335103,1,29.0,14.0,60.0,56.0,40.0,0.900146,0.410522,0.027893,0.142456,-0.022901,0.0,-0.007634,0.640015,7.801001,6.810473,-0.013159,0.479712,0.330176,-0.069385,0.052637,0.575415,you
1616137043.345234,1,28.0,12.0,60.0,57.0,41.0,0.900269,0.410339,0.028015,0.142456,-0.015267,0.007634,0.0,0.636426,7.76272,6.81167,-0.014355,0.443823,0.327783,-0.062207,0.0323,0.546704,you
1616137043.3550825,1,27.0,15.0,62.0,56.0,40.0,0.900269,0.410217,0.028198,0.142639,-0.007634,0.007634,0.0,0.629248,7.723242,6.810473,-0.019141,0.405542,0.324194,-0.058618,0.00957,0.515601,you
1616137043.3651984,1,29.0,16.0,61.0,57.0,42.0,0.900208,0.410278,0.028442,0.142822,0.007634,0.015267,0.0,0.605322,7.702905,6.817651,-0.040674,0.384009,0.332568,-0.071777,-0.014355,0.503638,you
1616137043.375044,1,28.0,15.0,59.0,57.0,40.0,0.900085,0.410461,0.028809,0.143005,0.015267,0.015267,0.0,0.558667,7.72085,6.827222,-0.082544,0.398364,0.345728,-0.112451,-0.027515,0.520386,you
1616137043.385118,1,27.0,17.0,61.0,52.0,37.0,0.899963,0.410645,0.029175,0.143127,0.015267,0.007634,0.0,0.500049,7.76272,6.855933,-0.136377,0.436646,0.378027,-0.16748,-0.043066,0.567041,you
1616137043.3951252,1,28.0,16.0,41.0,57.0,42.0,0.899902,0.410889,0.029419,0.143066,0.007634,0.0,-0.007634,0.44502,7.816553,6.889429,-0.187817,0.485693,0.415112,-0.221313,-0.053833,0.624463,you
1616137043.4052656,1,25.0,15.0,60.0,56.0,37.0,0.899841,0.411011,0.029541,0.142822,0.0,-0.015267,-0.015267,0.394775,7.853638,6.930102,-0.234473,0.521582,0.458179,-0.266772,-0.076563,0.6771,you
1616137043.4153318,1,27.0,17.0,63.0,58.0,40.0,0.899963,0.41095,0.029419,0.142334,-0.015267,-0.038168,-0.022901,0.327783,7.903882,6.967187,-0.299072,0.571826,0.494067,-0.334961,-0.088525,0.734522,you
1616137043.4252186,1,29.0,17.0,63.0,57.0,39.0,0.900146,0.410706,0.028992,0.141724,-0.030534,-0.053435,-0.022901,0.293091,7.958911,7.006665,-0.336157,0.631641,0.529956,-0.378027,-0.087329,0.800317,you
1616137043.4352112,1,28.0,15.0,62.0,57.0,42.0,0.900513,0.410217,0.028259,0.140991,-0.045802,-0.068702,-0.022901,0.31582,7.982837,7.054517,-0.318213,0.66394,0.569434,-0.362476,-0.089722,0.851758,you
1616137043.4451308,1,28.0,16.0,63.0,57.0,42.0,0.90094,0.409546,0.027344,0.14032,-0.061069,-0.076336,-0.015267,0.350513,7.948144,7.08562,-0.291895,0.640015,0.588574,-0.330176,-0.110059,0.848169,you
1616137043.4553452,1,28.0,15.0,63.0,57.0,42.0,0.901489,0.408752,0.026367,0.139648,-0.061069,-0.076336,-0.015267,0.358887,7.872778,7.093994,-0.293091,0.577808,0.582593,-0.319409,-0.142358,0.796728,you
1616137043.4651537,1,27.0,16.0,61.0,60.0,42.0,0.901917,0.40802,0.025452,0.138916,-0.061069,-0.076336,-0.022901,0.352905,7.792627,7.088013,-0.307446,0.509619,0.564648,-0.321802,-0.174658,0.733325,you
1616137043.4751234,1,27.0,16.0,63.0,58.0,39.0,0.902405,0.40741,0.024536,0.138,-0.045802,-0.083969,-0.030534,0.322998,7.718457,7.098779,-0.344531,0.44502,0.563452,-0.344531,-0.22251,0.681885,you
1616137043.4851477,1,25.0,14.0,63.0,57.0,41.0,0.902771,0.406982,0.02356,0.136841,-0.030534,-0.091603,-0.045802,0.311035,7.664624,7.113135,-0.362476,0.399561,0.57063,-0.350513,-0.259595,0.651978,you
1616137043.4950664,1,29.0,19.0,64.0,63.0,43.0,0.903076,0.406738,0.022461,0.135498,-0.022901,-0.114504,-0.045802,0.318213,7.629931,7.116724,-0.363672,0.37085,0.57063,-0.346924,-0.276343,0.630444,you
1616137043.505234,1,27.0,16.0,64.0,62.0,42.0,0.903381,0.406677,0.021118,0.133972,-0.015267,-0.129771,-0.053435,0.354102,7.616773,7.120313,-0.339746,0.360083,0.57063,-0.324194,-0.275146,0.623267,you
1616137043.5153103,1,28.0,15.0,64.0,58.0,43.0,0.903687,0.406677,0.01947,0.132324,-0.015267,-0.145038,-0.053435,0.38999,7.611987,7.123901,-0.319409,0.35769,0.573022,-0.305054,-0.272754,0.624463,you
1616137043.5251484,1,31.0,13.0,63.0,63.0,43.0,0.903931,0.406738,0.017639,0.130615,-0.015267,-0.160305,-0.053435,0.399561,7.613183,7.122705,-0.328979,0.361279,0.571826,-0.318213,-0.270361,0.624463,you
1616137043.5353098,1,28.0,16.0,66.0,60.0,44.0,0.904175,0.40686,0.015503,0.128723,-0.015267,-0.19084,-0.053435,0.391187,7.638306,7.120313,-0.360083,0.388794,0.57063,-0.35769,-0.258398,0.641211,you
1616137043.5450027,1,28.0,17.0,68.0,62.0,43.0,0.90448,0.407043,0.012939,0.126465,-0.015267,-0.221374,-0.061069,0.388794,7.689746,7.11792,-0.38999,0.441431,0.568237,-0.400757,-0.228491,0.674707,you
1616137043.5552995,1,31.0,17.0,68.0,64.0,46.0,0.904785,0.407166,0.009888,0.123962,-0.030534,-0.259542,-0.061069,0.410327,7.77229,7.15022,-0.403149,0.527563,0.601733,-0.433057,-0.198584,0.758447,you
1616137043.5650527,1,27.0,17.0,68.0,67.0,46.0,0.905212,0.407104,0.006348,0.121338,-0.053435,-0.282443,-0.061069,0.439038,7.872778,7.193286,-0.416309,0.634033,0.642407,-0.468945,-0.160303,0.860132,you
1616137043.5749605,1,29.0,17.0,71.0,65.0,47.0,0.905762,0.406799,0.002502,0.118652,-0.068702,-0.305344,-0.053435,0.455786,7.970874,7.223193,-0.44502,0.742895,0.666333,-0.522778,-0.110059,0.952246,you
1616137043.5851502,1,28.0,19.0,70.0,67.0,47.0,0.906372,0.40625,-0.001709,0.115906,-0.091603,-0.320611,-0.045802,0.453394,8.034277,7.247119,-0.498853,0.820654,0.681885,-0.595752,-0.077759,1.012061,you
1616137043.5951557,1,29.0,16.0,73.0,68.0,46.0,0.906982,0.405518,-0.006287,0.113037,-0.099237,-0.351145,-0.038168,0.459375,8.053418,7.265063,-0.550293,0.857739,0.689062,-0.660352,-0.063403,1.03479,you
1616137043.6052022,1,29.0,17.0,73.0,71.0,48.0,0.907654,0.404785,-0.011353,0.110046,-0.099237,-0.374046,-0.038168,0.50603,8.058203,7.311719,-0.568237,0.880469,0.726147,-0.687866,-0.072974,1.069482,you
1616137043.61533,1,31.0,17.0,74.0,71.0,51.0,0.908264,0.404053,-0.016907,0.106995,-0.099237,-0.412214,-0.030534,0.513208,8.067774,7.360766,-0.634033,0.90918,0.766821,-0.764429,-0.088525,1.105371,you
1616137043.6250129,1,28.0,16.0,74.0,69.0,46.0,0.908813,0.40332,-0.023071,0.10376,-0.10687,-0.458015,-0.022901,0.559863,8.121607,7.442114,-0.671118,0.98335,0.840991,-0.824243,-0.092114,1.197485,you
1616137043.6351726,1,29.0,17.0,77.0,73.0,48.0,0.909363,0.402466,-0.030029,0.100281,-0.114504,-0.503817,-0.015267,0.573022,8.170654,7.573706,-0.752466,1.056323,0.966602,-0.92832,-0.13877,1.315918,you
1616137043.645043,1,32.0,16.0,76.0,70.0,53.0,0.909973,0.401428,-0.03772,0.096497,-0.129771,-0.557252,-0.007634,0.595752,8.195776,7.713672,-0.836206,1.106567,1.100586,-1.035986,-0.203369,1.419995,you
1616137043.6550672,1,30.0,15.0,77.0,69.0,51.0,0.910583,0.400085,-0.046143,0.092407,-0.152672,-0.603053,-0.007634,0.657959,8.25918,7.896704,-0.890039,1.201074,1.27644,-1.129297,-0.260791,1.586279,you
1616137043.665098,1,32.0,16.0,75.0,68.0,50.0,0.911255,0.398438,-0.055115,0.087891,-0.175573,-0.648855,-0.022901,0.693848,8.376416,8.109644,-0.976172,1.354199,1.481006,-1.27644,-0.299072,1.8052,you
1616137043.675145,1,29.0,15.0,76.0,70.0,52.0,0.912048,0.39624,-0.064758,0.082764,-0.229008,-0.70229,-0.030534,0.76084,8.608496,8.321386,-1.038379,1.629346,1.681982,-1.433154,-0.24165,2.107861,you
1616137043.6850982,1,33.0,19.0,78.0,73.0,49.0,0.913147,0.393066,-0.075195,0.076904,-0.312977,-0.763359,-0.053435,0.907983,8.939868,8.589355,-1.030005,2.01814,1.928418,-1.556372,-0.119629,2.531348,you
1616137043.6950774,1,32.0,17.0,76.0,71.0,51.0,0.914673,0.388367,-0.086426,0.070374,-0.427481,-0.816794,-0.061069,1.089819,9.274829,8.880054,-0.994116,2.430859,2.183228,-1.671216,0.033496,2.977563,you
1616137043.7052107,1,34.0,14.0,75.0,74.0,52.0,0.916809,0.381775,-0.098389,0.063171,-0.564885,-0.854962,-0.076336,1.339844,9.593042,9.212622,-0.900806,2.854346,2.458374,-1.745386,0.210547,3.450098,you
1616137043.7150793,1,34.0,15.0,62.0,73.0,49.0,0.919556,0.372803,-0.110962,0.05542,-0.732824,-0.885496,-0.083969,1.641309,9.961499,9.573901,-0.763232,3.362769,2.739502,-1.806396,0.479712,3.987231,you
1616137043.725221,1,36.0,13.0,77.0,72.0,53.0,0.923096,0.36084,-0.124023,0.04718,-0.954198,-0.908397,-0.076336,1.988232,10.414892,9.922022,-0.588574,4.000391,2.975171,-1.853052,0.924731,4.571021,you
1616137043.7350955,1,36.0,15.0,77.0,73.0,53.0,0.927551,0.345276,-0.137451,0.038391,-1.21374,-0.916031,-0.068702,2.390186,10.852735,10.207934,-0.368457,4.678687,3.115137,-1.842285,1.528857,5.097388,you
1616137043.7455077,1,36.0,15.0,77.0,74.0,53.0,0.9328,0.325745,-0.151123,0.028992,-1.473282,-0.916031,-0.068702,2.787354,10.965185,10.325171,-0.160303,5.094995,3.05293,-1.732227,2.129395,5.268457,you
1616137043.7551525,1,36.0,13.0,73.0,72.0,53.0,0.938416,0.302795,-0.164917,0.019104,-1.664122,-0.916031,-0.076336,3.160596,10.576391,10.22229,0.013159,5.068677,2.752661,-1.495361,2.551685,4.950244,you
1616137043.7652664,1,38.0,14.0,76.0,72.0,52.0,0.943726,0.277893,-0.178772,0.008789,-1.725191,-0.931298,-0.091603,3.428565,9.620557,9.902881,0.072974,4.51001,2.243042,-1.199878,2.622266,4.128394,you
1616137043.7750149,1,37.0,12.0,78.0,72.0,55.0,0.948059,0.252869,-0.192871,-0.001587,-1.656489,-0.961832,-0.099237,3.551782,8.281909,9.481787,-0.023926,3.576904,1.664038,-0.968994,2.32439,3.034985,you
1616137043.7851825,1,36.0,11.0,76.0,70.0,53.0,0.950806,0.229492,-0.207581,-0.012024,-1.496183,-1.030534,-0.122137,3.573315,6.997095,9.095386,-0.240454,2.671314,1.172363,-0.881665,1.910474,2.032495,you
1616137043.7949636,1,36.0,11.0,74.0,73.0,52.0,0.951843,0.209045,-0.223145,-0.022705,-1.290076,-1.10687,-0.175573,3.658252,5.983838,8.814258,-0.411523,1.983447,0.845776,-0.836206,1.536035,1.325488,you
1616137043.805065,1,38.0,12.0,75.0,78.0,51.0,0.951172,0.191711,-0.239563,-0.033569,-1.083969,-1.167939,-0.21374,3.919043,5.19668,8.595337,-0.419897,1.464258,0.640015,-0.710596,1.195093,0.890039,you
1616137043.815001,1,37.0,12.0,78.0,77.0,59.0,0.949097,0.177124,-0.256653,-0.043823,-0.916031,-1.198473,-0.206107,4.356885,4.776782,8.452978,-0.26438,1.260889,0.558667,-0.517993,1.046753,0.776392,you
1616137043.8251395,1,38.0,12.0,74.0,76.0,53.0,0.946106,0.16449,-0.273743,-0.053162,-0.816794,-1.183206,-0.160305,4.836596,4.804297,8.326172,-0.068188,1.467847,0.525171,-0.322998,1.244141,0.882861,you
1616137043.8350384,1,38.0,10.0,75.0,73.0,55.0,0.942566,0.152771,-0.290527,-0.061646,-0.793893,-1.145038,-0.114504,5.287598,5.181128,8.176636,0.104077,2.007373,0.488086,-0.135181,1.75376,1.087427,you
1616137043.844918,1,39.0,13.0,74.0,71.0,52.0,0.938782,0.140991,-0.306458,-0.069885,-0.824427,-1.091603,-0.099237,5.651269,5.639307,7.926611,0.204565,2.624658,0.356494,0.069385,2.369849,1.195093,you
1616137043.8551838,1,38.0,11.0,75.0,75.0,53.0,0.934875,0.128784,-0.32135,-0.078186,-0.870229,-1.038168,-0.099237,5.895312,5.94436,7.546191,0.203369,3.091211,0.094507,0.295483,2.885449,1.088623,you
1616137043.8643322,1,37.0,12.0,76.0,73.0,53.0,0.930908,0.116089,-0.335327,-0.08667,-0.89313,-0.984733,-0.10687,6.08313,5.959912,7.08562,0.161499,3.271851,-0.246436,0.553882,3.134277,0.809888,you
1616137043.8748956,1,39.0,13.0,74.0,73.0,54.0,0.926819,0.103394,-0.348206,-0.095093,-0.877863,-0.916031,-0.122137,6.274536,5.739795,6.637012,0.141162,3.212036,-0.576611,0.821851,3.122314,0.491675,you
1616137043.884893,1,39.0,12.0,76.0,73.0,53.0,0.922668,0.091492,-0.359863,-0.103699,-0.824427,-0.832061,-0.175573,6.456372,5.419189,6.191992,0.133984,3.032593,-0.904395,1.094604,2.966797,0.168677,you
1616137043.8949797,1,38.0,13.0,77.0,73.0,56.0,0.918579,0.080872,-0.370178,-0.112488,-0.755725,-0.732824,-0.229008,6.684863,5.019629,5.775683,0.197388,2.74668,-1.209448,1.385303,2.666528,-0.094507,you
1616137043.9049416,1,39.0,12.0,78.0,76.0,57.0,0.914551,0.071533,-0.379089,-0.121216,-0.679389,-0.633588,-0.259542,6.896606,4.62605,5.390479,0.270361,2.442822,-1.491772,1.653271,2.329175,-0.320605,you
1616137043.9151664,1,38.0,13.0,77.0,75.0,55.0,0.910767,0.063354,-0.386841,-0.129578,-0.618321,-0.557252,-0.267176,6.970777,4.318604,4.992114,0.226099,2.204761,-1.794434,1.856641,2.075562,-0.611304,you
1616137043.9243326,1,40.0,11.0,76.0,72.0,47.0,0.907104,0.056091,-0.393738,-0.137634,-0.572519,-0.503817,-0.267176,6.999487,4.05542,4.629639,0.149536,1.99541,-2.06958,2.016943,1.849463,-0.890039,you
1616137043.9352305,1,39.0,15.0,76.0,73.0,53.0,0.903564,0.049194,-0.400024,-0.145081,-0.541985,-0.465649,-0.236641,6.971972,3.764722,4.301856,0.026318,1.754956,-2.312427,2.11145,1.600635,-1.181934,you
1616137043.9449863,1,39.0,14.0,75.0,77.0,52.0,0.900146,0.042297,-0.406067,-0.151611,-0.519084,-0.458015,-0.183206,6.851148,3.46206,3.986035,-0.186621,1.50852,-2.545703,2.136572,1.370947,-1.530054,you
1616137043.9543283,1,41.0,15.0,78.0,74.0,53.0,0.896667,0.035522,-0.412231,-0.15741,-0.48855,-0.465649,-0.152672,6.840381,3.232373,3.780273,-0.294287,1.335059,-2.664136,2.156909,1.180737,-1.707104,you
1616137043.9651315,1,40.0,11.0,74.0,77.0,54.0,0.893066,0.029053,-0.418274,-0.162964,-0.458015,-0.450382,-0.160305,7.000684,3.02063,3.654663,-0.227295,1.175952,-2.698828,2.219116,0.954639,-1.695142,you
1616137043.9749656,1,40.0,13.0,79.0,74.0,55.0,0.889587,0.022949,-0.423889,-0.168396,-0.435115,-0.40458,-0.175573,7.25669,2.757446,3.537427,-0.057422,0.958228,-2.728735,2.313623,0.642407,-1.611401,you
1616137043.984939,1,40.0,15.0,77.0,74.0,53.0,0.886292,0.017578,-0.428833,-0.174011,-0.40458,-0.343511,-0.21374,7.511499,2.476318,3.384302,0.122021,0.708203,-2.804101,2.426074,0.293091,-1.550391,you
1616137043.9942646,1,40.0,12.0,76.0,73.0,52.0,0.883118,0.013062,-0.433105,-0.179871,-0.366412,-0.290076,-0.259542,7.816553,2.245435,3.241943,0.364868,0.491675,-2.877075,2.568433,-0.04187,-1.430762,you
1616137044.0042748,1,39.0,12.0,77.0,72.0,55.0,0.880066,0.009399,-0.436707,-0.186157,-0.343511,-0.229008,-0.29771,8.22688,2.065991,3.073267,0.727344,0.309839,-2.985938,2.802905,-0.391187,-1.233374,you
1616137044.015064,1,42.0,10.0,77.0,73.0,53.0,0.877258,0.005981,-0.439575,-0.192566,-0.343511,-0.160305,-0.312977,8.670703,1.799219,2.694043,1.134082,0.037085,-3.316113,3.18811,-0.880469,-1.154419,you
1616137044.0249302,1,41.0,13.0,74.0,74.0,53.0,0.874573,0.002014,-0.442505,-0.198364,-0.351145,-0.152672,-0.259542,9.102564,1.338647,1.928418,1.524072,-0.416309,-4.033887,3.788647,-1.609009,-1.349414,you
1616137044.034225,1,40.0,13.0,77.0,73.0,54.0,0.87146,-0.002869,-0.446594,-0.202637,-0.328244,-0.206107,-0.175573,9.656446,0.720166,0.79314,2.016943,-1.003687,-5.096191,4.649976,-2.57561,-1.666431,you
1616137044.0443444,1,42.0,16.0,79.0,74.0,55.0,0.867859,-0.008362,-0.452271,-0.205383,-0.290076,-0.251908,-0.114504,10.599121,-0.021533,-0.582593,2.87229,-1.69873,-6.371436,5.815161,-3.83291,-1.789648,you
1616137044.0551386,1,43.0,11.0,79.0,74.0,55.0,0.863708,-0.013611,-0.45929,-0.206848,-0.206107,-0.244275,-0.10687,11.790625,-0.849365,-2.223901,3.959717,-2.479907,-7.884741,7.24353,-5.315112,-1.802808,you
1616137044.0649798,1,39.0,10.0,77.0,75.0,53.0,0.859558,-0.017639,-0.466431,-0.208069,-0.137405,-0.152672,-0.160305,13.153198,-1.478613,-3.715674,5.222998,-3.082837,-9.244922,8.689844,-6.670508,-1.494165,you
1616137044.0751216,1,39.0,9.0,79.0,76.0,53.0,0.856018,-0.020508,-0.471741,-0.210327,-0.167939,0.045802,-0.251908,14.481079,-1.783667,-5.029199,6.481494,-3.383106,-10.457959,10.094287,-7.731616,-1.055127,you
1616137044.085015,1,42.0,10.0,79.0,73.0,57.0,0.853821,-0.022949,-0.473389,-0.215271,-0.312977,0.328244,-0.381679,15.596021,-1.757349,-5.979053,7.576098,-3.369946,-11.375513,11.248706,-8.438623,-0.619678,you
1616137044.095034,1,40.0,8.0,79.0,74.0,53.0,0.85376,-0.025696,-0.469299,-0.224121,-0.534351,0.709924,-0.534351,16.207325,-1.697534,-6.38938,8.241236,-3.328076,-11.86001,11.796606,-8.959009,-0.474927,you
1616137044.1042063,1,44.0,7.0,79.0,76.0,54.0,0.856079,-0.028625,-0.458435,-0.236816,-0.725191,1.091603,-0.687023,15.954907,-1.893726,-6.233862,8.128784,-3.541016,-11.897095,11.44729,-9.386084,-0.979761,you
1616137044.115105,1,41.0,7.0,77.0,75.0,53.0,0.860779,-0.031189,-0.441345,-0.251587,-0.78626,1.381679,-0.748092,14.552856,-2.497852,-5.24812,6.952832,-4.147534,-11.210424,9.794019,-9.524854,-2.127002,you
1616137044.1242297,1,41.0,0.0,77.0,74.0,57.0,0.867493,-0.032532,-0.419617,-0.26532,-0.664122,1.51145,-0.656489,12.005957,-3.373535,-3.222803,4.701416,-5.001685,-9.551172,6.733911,-8.988916,-3.495557,you
1616137044.1350477,1,43.0,0.0,79.0,75.0,54.0,0.875732,-0.030701,-0.395203,-0.275574,-0.358779,1.519084,-0.503817,8.472119,-3.974072,-0.227295,1.522876,-5.580688,-6.946851,2.677295,-7.306933,-4.598535,you
1616137044.1443486,1,41.0,0.0,76.0,74.0,48.0,0.884644,-0.024109,-0.370361,-0.282166,0.0,1.396947,-0.351145,4.20376,-3.682178,3.493164,-2.350708,-5.311523,-3.605615,-1.76333,-4.234863,-5.067481,you
1616137044.1541388,1,41.0,-1.0,77.0,73.0,52.0,0.893433,-0.013733,-0.346375,-0.285767,0.183206,1.198473,-0.167939,-0.314624,-1.915259,7.634717,-6.456372,-3.613989,0.189014,-5.847461,0.25481,-4.52915,you
1616137044.1643612,1,41.0,1.0,79.0,75.0,53.0,0.90094,-0.003052,-0.324463,-0.288147,0.091603,0.916031,-0.030534,-4.611694,0.858936,10.807276,-10.357471,-0.91875,3.069678,-8.724536,5.181128,-3.816162,you
1616137044.1743002,1,45.0,3.0,78.0,75.0,53.0,0.906433,0.004456,-0.305969,-0.291138,-0.145038,0.572519,0.0,-8.070166,3.386694,13.138843,-13.479785,1.561157,5.172754,-10.733106,9.327466,-2.94646,you
1616137044.184596,1,41.0,-2.0,77.0,78.0,53.0,0.909668,0.006897,-0.291992,-0.295288,-0.351145,0.19084,-0.030534,-9.863403,4.720557,14.851929,-15.028979,2.906982,6.723145,-11.893506,11.608789,-1.808789,you
1616137044.19497,1,45.0,3.0,79.0,74.0,55.0,0.91095,0.004761,-0.283508,-0.2995,-0.412214,-0.122137,-0.038168,-9.869385,4.757642,15.671387,-14.903369,3.007471,7.446899,-12.066968,11.839673,-0.869702,you
1616137044.2043717,1,43.0,1.0,79.0,76.0,54.0,0.91095,0.000488,-0.280579,-0.302368,-0.320611,-0.320611,-0.007634,-8.580981,3.974072,15.239527,-13.587451,2.30166,6.981543,-11.26665,10.547681,-0.666333,you
1616137044.214248,1,43.0,1.0,80.0,75.0,55.0,0.910034,-0.003357,-0.282349,-0.303467,-0.122137,-0.427481,0.007634,-6.504224,3.008667,13.941553,-11.559741,1.388892,5.703906,-9.736597,8.508008,-0.939087,you
1616137044.2242105,1,44.0,3.0,79.0,74.0,55.0,0.908508,-0.00531,-0.287415,-0.303345,0.053435,-0.450382,0.007634,-4.044653,2.365063,12.254786,-9.193481,0.750073,4.073364,-7.681372,6.400146,-1.306348,you
1616137044.234347,1,42.0,1.0,78.0,74.0,55.0,0.906616,-0.005676,-0.293823,-0.302734,0.129771,-0.396947,-0.015267,-1.524072,2.173657,10.575195,-6.778174,0.529956,2.467944,-5.378516,4.594946,-1.503735,you
1616137044.2443883,1,44.0,1.0,79.0,76.0,55.0,0.904785,-0.005432,-0.299805,-0.302429,0.091603,-0.274809,-0.030534,0.842188,2.256201,9.098974,-4.506421,0.574219,1.061108,-3.1271,3.123511,-1.490576,you
1616137044.2541704,1,41.0,-1.0,78.0,77.0,49.0,0.90332,-0.005798,-0.303833,-0.302673,-0.007634,-0.129771,-0.045802,2.776587,2.26936,7.85603,-2.636621,0.569434,-0.132788,-1.280029,1.870996,-1.465454,you
1616137044.2643018,1,42.0,1.0,78.0,76.0,52.0,0.902405,-0.006775,-0.305603,-0.303589,-0.076336,0.0,-0.068702,4.154712,2.057617,6.849951,-1.290796,0.358887,-1.117334,-0.001196,0.772803,-1.562353,you
1616137044.274305,1,42.0,0.0,79.0,74.0,52.0,0.901978,-0.007812,-0.305664,-0.30481,-0.091603,0.083969,-0.083969,4.975366,1.699927,6.168067,-0.474927,0.010767,-1.798023,0.690259,-0.092114,-1.723853,you
1616137044.2843218,1,41.0,0.0,76.0,71.0,55.0,0.901917,-0.008362,-0.304871,-0.305908,-0.053435,0.10687,-0.068702,5.293579,1.34104,5.830713,-0.144751,-0.33855,-2.146142,0.888843,-0.628052,-1.885352,you
1616137044.2942176,1,43.0,-1.0,96.0,77.0,54.0,0.902039,-0.008362,-0.303955,-0.306335,0.0,0.083969,-0.038168,5.282813,1.112549,5.866601,-0.141162,-0.563452,-2.119824,0.747681,-0.806299,-1.9021,you
1616137044.304224,1,42.0,1.0,78.0,76.0,53.0,0.902344,-0.007568,-0.303162,-0.306213,0.045802,0.068702,-0.015267,5.062696,1.137671,6.225488,-0.343335,-0.5479,-1.770508,0.439038,-0.608911,-1.727441,you
1616137044.3141105,1,43.0,0.0,79.0,75.0,52.0,0.902771,-0.006226,-0.302185,-0.306091,0.053435,0.061069,-0.007634,4.752856,1.364966,6.776978,-0.630444,-0.337354,-1.232178,0.082544,-0.168677,-1.411621,you
1616137044.3242028,1,43.0,0.0,77.0,75.0,55.0,0.903137,-0.004944,-0.300903,-0.306152,0.030534,0.053435,-0.007634,4.420288,1.678394,7.339233,-0.935498,-0.039478,-0.684277,-0.24165,0.349316,-1.077856,you
1616137044.334209,1,41.0,1.0,79.0,75.0,53.0,0.903381,-0.00415,-0.299744,-0.30658,-0.015267,0.030534,-0.015267,4.169067,1.991821,7.773486,-1.162793,0.263184,-0.26438,-0.446216,0.803906,-0.80271,you
1616137044.3441255,1,43.0,3.0,76.0,79.0,55.0,0.903442,-0.004028,-0.298828,-0.307312,-0.053435,0.0,-0.022901,4.076953,2.21792,8.048633,-1.238159,0.489282,0.0,-0.509619,1.080249,-0.584985,you
1616137044.3543818,1,45.0,1.0,79.0,77.0,53.0,0.90332,-0.004517,-0.298401,-0.308167,-0.083969,-0.030534,-0.030534,4.152319,2.28252,8.138354,-1.158008,0.559863,0.08374,-0.462964,1.110156,-0.459375,you
1616137044.36409,1,45.0,4.0,79.0,75.0,56.0,0.903015,-0.005554,-0.298523,-0.308899,-0.083969,-0.053435,-0.022901,4.365259,2.235864,8.104858,-0.95105,0.526367,0.05144,-0.331372,0.963013,-0.381616,you
1616137044.3741102,1,40.0,3.0,80.0,74.0,52.0,0.902649,-0.006592,-0.299072,-0.309387,-0.061069,-0.068702,-0.015267,4.62605,2.138965,7.980444,-0.704614,0.441431,-0.0646,-0.160303,0.734522,-0.358887,you
1616137044.384057,1,44.0,1.0,79.0,79.0,53.0,0.902222,-0.007324,-0.30011,-0.309631,-0.022901,-0.076336,-0.007634,4.921533,2.03728,7.851245,-0.429468,0.344531,-0.181836,0.021533,0.479712,-0.322998,you
1616137044.3942618,1,45.0,4.0,79.0,76.0,56.0,0.901794,-0.007507,-0.301208,-0.309753,0.007634,-0.053435,-0.015267,5.260083,1.958325,7.756738,-0.108862,0.261987,-0.263184,0.220117,0.218921,-0.229687,you
1616137044.404132,1,44.0,0.0,80.0,78.0,52.0,0.90155,-0.007385,-0.302124,-0.309692,0.015267,-0.015267,-0.007634,5.632129,2.074365,7.766309,0.247632,0.37085,-0.242847,0.494067,0.113647,0.001196,you
1616137044.4141128,1,43.0,3.0,78.0,76.0,53.0,0.901489,-0.007019,-0.302124,-0.309753,-0.007634,0.053435,-0.007634,5.94436,2.276538,7.844068,0.563452,0.565845,-0.165088,0.759644,0.111255,0.272754,you
1616137044.424167,1,44.0,4.0,79.0,77.0,55.0,0.901794,-0.006653,-0.300842,-0.310059,-0.045802,0.122137,-0.015267,6.0604,2.424878,7.890723,0.702222,0.714185,-0.132788,0.912769,0.160303,0.399561,you
1616137044.434121,1,45.0,1.0,79.0,77.0,54.0,0.902344,-0.006531,-0.298706,-0.310608,-0.083969,0.152672,-0.015267,6.005371,2.528955,7.909863,0.681885,0.825439,-0.139966,0.968994,0.258398,0.398364,you
1616137044.4441528,1,41.0,-1.0,78.0,74.0,52.0,0.902954,-0.006775,-0.296326,-0.311218,-0.099237,0.137405,-0.007634,5.830713,2.519385,7.9302,0.544312,0.831421,-0.147144,0.891235,0.337354,0.314624,you
1616137044.4542515,1,44.0,-1.0,78.0,74.0,55.0,0.903442,-0.007202,-0.29425,-0.311646,-0.083969,0.10687,0.0,5.640503,2.404541,7.970874,0.385205,0.734522,-0.130396,0.72854,0.350513,0.223706,you
1616137044.4641533,1,44.0,1.0,79.0,73.0,55.0,0.90387,-0.007629,-0.292786,-0.31189,-0.053435,0.068702,0.0,5.481397,2.280127,8.058203,0.247632,0.624463,-0.059814,0.543115,0.351709,0.187817,you
1616137044.4741738,1,41.0,1.0,79.0,73.0,57.0,0.904114,-0.00769,-0.29187,-0.312012,-0.022901,0.038168,0.0,5.370142,2.215527,8.167066,0.150732,0.565845,0.037085,0.397168,0.378027,0.205762,you
1616137044.4842384,1,42.0,3.0,79.0,75.0,52.0,0.904297,-0.007446,-0.291321,-0.312012,0.0,0.022901,0.0,5.292383,2.202368,8.281909,0.082544,0.552686,0.145947,0.289502,0.427075,0.257202,you
1616137044.4940765,1,43.0,4.0,78.0,76.0,53.0,0.904419,-0.006897,-0.290894,-0.311951,0.007634,0.022901,0.0,5.21582,2.207153,8.368042,0.016748,0.550293,0.227295,0.204565,0.477319,0.289502,you
1616137044.5039485,1,41.0,1.0,79.0,83.0,16.0,0.904602,-0.006287,-0.290466,-0.31189,0.015267,0.022901,0.0,5.123706,2.220313,8.427856,-0.0646,0.555078,0.282324,0.126807,0.537134,0.294287,you
1616137044.5139785,1,45.0,-1.0,76.0,75.0,52.0,0.904724,-0.005737,-0.290039,-0.311829,0.007634,0.022901,0.0,5.039966,2.25022,8.468531,-0.137573,0.579004,0.318213,0.07417,0.604126,0.289502,you
1616137044.5240586,1,41.0,1.0,78.0,75.0,52.0,0.904907,-0.005188,-0.289673,-0.311768,0.007634,0.015267,0.007634,4.989722,2.252612,8.502027,-0.179443,0.574219,0.346924,0.029907,0.628052,0.291895,you
1616137044.533966,1,42.0,4.0,79.0,76.0,55.0,0.90509,-0.004578,-0.289307,-0.311584,0.015267,0.022901,0.007634,4.987329,2.234668,8.510401,-0.172266,0.5479,0.350513,0.016748,0.604126,0.294287,you
1616137044.5434628,1,43.0,4.0,79.0,74.0,51.0,0.905334,-0.003967,-0.288879,-0.311279,0.022901,0.030534,0.015267,4.989722,2.203564,8.493652,-0.160303,0.510815,0.328979,0.014355,0.562256,0.277539,you
1616137044.5534136,1,43.0,0.0,78.0,74.0,57.0,0.905579,-0.003235,-0.288513,-0.310913,0.030534,0.030534,0.015267,4.984937,2.190405,8.445801,-0.155518,0.489282,0.277539,0.0323,0.532349,0.234473,you
1616137044.563376,1,43.0,3.0,79.0,76.0,51.0,0.905762,-0.002502,-0.28833,-0.310486,0.030534,0.015267,0.015267,5.000488,2.211938,8.371631,-0.132788,0.501245,0.200977,0.092114,0.515601,0.185425,you
1616137044.573307,1,44.0,3.0,80.0,73.0,55.0,0.905884,-0.001831,-0.28833,-0.31012,0.022901,0.007634,0.015267,5.071069,2.257397,8.295069,-0.058618,0.537134,0.124414,0.19978,0.489282,0.166284,you
1616137044.5840197,1,44.0,1.0,80.0,77.0,53.0,0.905945,-0.001465,-0.288513,-0.309814,0.007634,0.0,0.015267,5.152417,2.26936,8.206543,0.020337,0.543115,0.038281,0.297876,0.434253,0.137573,you
1616137044.5940115,1,42.0,1.0,79.0,76.0,52.0,0.906006,-0.001343,-0.288757,-0.309509,0.0,-0.007634,0.015267,5.22539,2.258594,8.125196,0.088525,0.529956,-0.040674,0.375635,0.37085,0.105273,you
1616137044.6041498,1,43.0,4.0,79.0,73.0,53.0,0.906006,-0.001404,-0.289001,-0.309265,-0.015267,-0.007634,0.015267,5.316308,2.234668,8.073755,0.174658,0.507227,-0.088525,0.442627,0.295483,0.10647,you
1616137044.6141136,1,42.0,5.0,78.0,74.0,53.0,0.906006,-0.001648,-0.289124,-0.309021,-0.022901,0.0,0.015267,5.397656,2.171265,8.048633,0.252417,0.448608,-0.111255,0.471338,0.200977,0.118433,you
1616137044.623363,1,42.0,0.0,78.0,76.0,55.0,0.906128,-0.001892,-0.289062,-0.308777,-0.015267,0.007634,0.015267,5.445508,2.077954,8.042651,0.300269,0.361279,-0.118433,0.456982,0.102881,0.122021,you
1616137044.6339006,1,43.0,3.0,79.0,74.0,53.0,0.90625,-0.002075,-0.289001,-0.308594,-0.007634,0.015267,0.015267,5.468237,1.989429,8.028296,0.321802,0.277539,-0.133984,0.43186,0.020337,0.105273,you
1616137044.644166,1,47.0,5.0,77.0,75.0,53.0,0.906311,-0.002075,-0.288879,-0.308411,0.0,0.015267,0.007634,5.482593,1.92124,8.022314,0.337354,0.211743,-0.141162,0.409131,-0.04187,0.095703,you
1616137044.6531906,1,41.0,1.0,80.0,75.0,56.0,0.906372,-0.001892,-0.28894,-0.308228,0.015267,0.007634,0.0,5.498145,1.892529,8.022314,0.352905,0.179443,-0.141162,0.400757,-0.076563,0.098096,you
1616137044.663538,1,44.0,1.0,79.0,77.0,52.0,0.906372,-0.001526,-0.289124,-0.308044,0.015267,0.0,0.0,5.484985,1.928418,8.009155,0.33855,0.209351,-0.151929,0.413916,-0.045459,0.087329,you
1616137044.673308,1,43.0,1.0,80.0,74.0,55.0,0.906311,-0.00116,-0.28949,-0.307922,0.015267,-0.007634,0.0,5.464648,2.001392,8.001978,0.314624,0.27395,-0.155518,0.436646,0.017944,0.08374,you
1616137044.6833048,1,41.0,3.0,78.0,77.0,58.0,0.906189,-0.000977,-0.289856,-0.307922,0.0,-0.015267,0.0,5.450293,2.054028,8.005567,0.295483,0.321802,-0.147144,0.446216,0.069385,0.089722,you
1616137046.3412304,1,27.0,11.0,72.0,66.0,47.0,0.694336,0.68811,-0.079468,0.194885,-0.030534,0.015267,-0.030534,3.733618,9.741382,0.636426,0.022729,0.679492,0.24165,-0.198584,-0.250024,0.645996,you
1616137046.3515558,1,27.0,11.0,73.0,67.0,45.0,0.694824,0.687744,-0.078979,0.194763,-0.030534,0.015267,-0.030534,3.720459,9.742579,0.617285,0.019141,0.6771,0.210547,-0.205762,-0.218921,0.641211,you
1616137046.3612704,1,29.0,10.0,73.0,68.0,48.0,0.695251,0.687439,-0.078613,0.194519,-0.030534,0.007634,-0.022901,3.698926,9.74856,0.594556,0.005981,0.679492,0.178247,-0.22251,-0.189014,0.637622,you
1616137046.371309,1,29.0,12.0,70.0,67.0,45.0,0.695679,0.687073,-0.07843,0.194275,-0.030534,-0.007634,-0.022901,3.695337,9.74856,0.587378,0.00957,0.678296,0.160303,-0.221313,-0.169873,0.637622,you
1616137046.3812091,1,26.0,11.0,73.0,67.0,47.0,0.696045,0.686768,-0.078369,0.19397,-0.030534,-0.007634,-0.015267,3.710889,9.7354,0.593359,0.029907,0.66394,0.159106,-0.197388,-0.163892,0.632837,you
1616137046.3921485,1,28.0,10.0,70.0,67.0,46.0,0.696411,0.686462,-0.078369,0.193726,-0.030534,-0.007634,-0.015267,3.736011,9.722241,0.600537,0.058618,0.649585,0.15791,-0.166284,-0.156714,0.630444,you
1616137046.4012237,1,28.0,11.0,72.0,68.0,47.0,0.696716,0.686218,-0.078308,0.193542,-0.022901,-0.007634,-0.015267,3.752759,9.737793,0.607715,0.080151,0.66394,0.15791,-0.151929,-0.153125,0.651978,you
1616137046.4112804,1,30.0,11.0,72.0,64.0,47.0,0.69696,0.686035,-0.078186,0.19342,-0.022901,0.0,-0.015267,3.767114,9.770093,0.625659,0.098096,0.693848,0.169873,-0.144751,-0.162695,0.68667,you
1616137046.4214149,1,29.0,11.0,69.0,67.0,45.0,0.697327,0.68573,-0.078003,0.193237,-0.022901,0.0,-0.015267,3.761133,9.820337,0.643604,0.096899,0.742895,0.179443,-0.162695,-0.172266,0.732129,you
1616137046.43127,1,27.0,10.0,70.0,68.0,44.0,0.697693,0.685364,-0.077759,0.193115,-0.030534,0.007634,-0.015267,3.756348,9.887329,0.660352,0.098096,0.808691,0.186621,-0.184229,-0.179443,0.794336,you
1616137046.4413188,1,29.0,11.0,70.0,66.0,45.0,0.698242,0.684875,-0.077576,0.192993,-0.045802,0.007634,-0.015267,3.751563,9.950732,0.685474,0.098096,0.870898,0.197388,-0.205762,-0.189014,0.852954,you
1616137046.4511836,1,30.0,12.0,73.0,67.0,48.0,0.698975,0.684204,-0.077454,0.192871,-0.061069,0.007634,-0.015267,3.743188,9.989014,0.708203,0.094507,0.907983,0.202173,-0.22251,-0.192603,0.88645,you
1616137046.4612615,1,32.0,10.0,73.0,63.0,49.0,0.699768,0.683411,-0.077393,0.192749,-0.068702,0.007634,-0.007634,3.728833,9.997388,0.72854,0.084937,0.916357,0.200977,-0.234473,-0.191406,0.891235,you
1616137046.4712489,1,29.0,12.0,70.0,64.0,44.0,0.700684,0.682495,-0.077393,0.192688,-0.076336,0.007634,-0.007634,3.721655,9.983032,0.735718,0.080151,0.902002,0.183032,-0.236865,-0.172266,0.875684,you
1616137046.4812353,1,28.0,10.0,72.0,63.0,47.0,0.701599,0.68158,-0.077515,0.192627,-0.083969,0.0,0.0,3.704907,9.942358,0.742895,0.0646,0.861328,0.166284,-0.238062,-0.155518,0.831421,you
1616137046.4911864,1,28.0,31.0,69.0,67.0,47.0,0.702454,0.680664,-0.077698,0.192566,-0.076336,0.0,0.0,3.702515,9.880152,0.740503,0.063403,0.801514,0.139966,-0.221313,-0.128003,0.773999,you
1616137046.501185,1,28.0,11.0,74.0,66.0,45.0,0.703247,0.679871,-0.077881,0.192505,-0.068702,0.0,0.0,3.703711,9.802393,0.739307,0.0646,0.724951,0.118433,-0.194995,-0.104077,0.702222,you
1616137046.5112712,1,28.0,12.0,75.0,67.0,48.0,0.703857,0.679199,-0.078125,0.192566,-0.053435,0.0,0.007634,3.708496,9.724634,0.739307,0.066992,0.648389,0.100488,-0.16748,-0.084937,0.631641,you
1616137046.5212336,1,31.0,13.0,73.0,67.0,49.0,0.704224,0.678711,-0.078308,0.192688,-0.038168,0.0,0.007634,3.712085,9.679174,0.739307,0.066992,0.606519,0.089722,-0.153125,-0.07417,0.592163,you
1616137046.53128,1,29.0,11.0,74.0,70.0,47.0,0.704468,0.678467,-0.07843,0.192871,-0.022901,0.0,0.015267,3.715674,9.668408,0.757251,0.066992,0.595752,0.100488,-0.14834,-0.084937,0.582593,you
1616137046.5412507,1,27.0,12.0,70.0,68.0,45.0,0.70459,0.678223,-0.078552,0.193054,-0.015267,0.007634,0.015267,3.715674,9.709082,0.782373,0.063403,0.640015,0.119629,-0.166284,-0.102881,0.623267,you
1616137046.551276,1,28.0,10.0,73.0,67.0,49.0,0.704712,0.67804,-0.078613,0.193298,-0.015267,0.0,0.015267,3.703711,9.78684,0.811084,0.047852,0.71897,0.143555,-0.206958,-0.129199,0.692651,you
1616137046.561252,1,29.0,11.0,74.0,68.0,47.0,0.704956,0.677734,-0.078735,0.19342,-0.022901,0.0,0.015267,3.68457,9.871778,0.836206,0.026318,0.805103,0.160303,-0.257202,-0.14834,0.765625,you
1616137046.5714371,1,29.0,11.0,73.0,71.0,44.0,0.705322,0.677307,-0.078979,0.193481,-0.038168,-0.007634,0.015267,3.671411,9.951929,0.872095,0.010767,0.887646,0.186621,-0.299072,-0.174658,0.837402,you
1616137046.581205,1,23.0,12.0,70.0,64.0,53.0,0.705872,0.676697,-0.079346,0.19342,-0.061069,-0.022901,0.022901,3.652271,10.02251,0.896021,-0.010767,0.96062,0.194995,-0.345728,-0.184229,0.897217,you
1616137046.5913365,1,27.0,10.0,73.0,68.0,44.0,0.706665,0.675842,-0.079956,0.193237,-0.083969,-0.030534,0.022901,3.635522,10.069165,0.917554,-0.031104,1.010864,0.196191,-0.384009,-0.186621,0.936694,you
1616137046.6012108,1,33.0,10.0,73.0,66.0,47.0,0.707642,0.674805,-0.08075,0.192993,-0.10687,-0.038168,0.022901,3.645093,10.081128,0.94148,-0.026318,1.026416,0.194995,-0.387598,-0.18064,0.952246,you
1616137046.6113024,1,26.0,12.0,74.0,70.0,49.0,0.708801,0.673584,-0.081604,0.192627,-0.122137,-0.038168,0.015267,3.670215,10.063184,0.982153,-0.005981,1.013257,0.205762,-0.363672,-0.185425,0.948657,you
1616137046.621226,1,29.0,12.0,73.0,71.0,47.0,0.710083,0.672241,-0.082397,0.192322,-0.129771,-0.030534,0.015267,3.686963,10.044043,1.008472,0.005981,0.997705,0.19978,-0.34812,-0.173462,0.939087,you
1616137046.631246,1,28.0,10.0,75.0,70.0,48.0,0.711487,0.670776,-0.083191,0.192017,-0.137405,-0.030534,0.015267,3.692944,10.023706,1.028809,0.007178,0.982153,0.183032,-0.345728,-0.153125,0.923535,you
1616137046.6411653,1,28.0,13.0,76.0,40.0,47.0,0.712952,0.669189,-0.084045,0.191711,-0.145038,-0.030534,0.015267,3.708496,9.994995,1.046753,0.019141,0.959424,0.162695,-0.330176,-0.126807,0.905591,you
1616137046.6514132,1,29.0,10.0,72.0,67.0,46.0,0.714478,0.66748,-0.084961,0.191467,-0.152672,-0.030534,0.022901,3.718066,9.972265,1.059912,0.022729,0.942676,0.133984,-0.325391,-0.094507,0.888843,you
1616137046.6612248,1,29.0,11.0,73.0,70.0,49.0,0.716003,0.665771,-0.085938,0.191223,-0.160305,-0.030534,0.022901,3.702515,9.929199,1.064697,0.001196,0.907983,0.098096,-0.337354,-0.059814,0.845776,you
1616137046.671272,1,28.0,12.0,76.0,68.0,49.0,0.71759,0.664062,-0.086914,0.190857,-0.160305,-0.038168,0.022901,3.670215,9.876562,1.062305,-0.035889,0.861328,0.053833,-0.360083,-0.019141,0.783569,you
1616137046.6812763,1,28.0,10.0,73.0,66.0,45.0,0.719116,0.662415,-0.088013,0.190369,-0.160305,-0.045802,0.022901,3.653467,9.813159,1.077856,-0.058618,0.803906,0.029907,-0.362476,0.001196,0.71897,you
1616137046.6911168,1,29.0,10.0,73.0,68.0,47.0,0.720642,0.660828,-0.089233,0.189758,-0.152672,-0.061069,0.015267,3.660645,9.746167,1.10896,-0.057422,0.744092,0.023926,-0.339746,0.007178,0.66394,you
1616137046.7012756,1,29.0,11.0,74.0,69.0,51.0,0.722046,0.659241,-0.090576,0.189026,-0.145038,-0.068702,0.015267,3.672607,9.689941,1.154419,-0.05144,0.695044,0.033496,-0.314624,0.0,0.62207,you
1616137046.7111366,1,27.0,9.0,58.0,72.0,48.0,0.723389,0.657837,-0.091919,0.188232,-0.137405,-0.076336,0.015267,3.688159,9.627734,1.211841,-0.04187,0.638818,0.059814,-0.282324,-0.023926,0.576611,you
1616137046.721362,1,29.0,11.0,73.0,71.0,49.0,0.724609,0.656494,-0.093384,0.187439,-0.129771,-0.083969,0.015267,3.69773,9.569117,1.24773,-0.039478,0.587378,0.065796,-0.259595,-0.029907,0.529956,you
1616137046.7312284,1,29.0,10.0,75.0,74.0,53.0,0.725708,0.655273,-0.094971,0.186646,-0.122137,-0.091603,0.022901,3.719263,9.543994,1.282422,-0.028711,0.57063,0.075366,-0.242847,-0.037085,0.520386,you
1616137046.7411342,1,35.0,12.0,76.0,68.0,44.0,0.726746,0.654175,-0.096741,0.185791,-0.114504,-0.10687,0.030534,3.753955,9.543994,1.337451,-0.005981,0.577808,0.107666,-0.22251,-0.063403,0.539526,you
1616137046.7511363,1,29.0,11.0,76.0,71.0,49.0,0.727661,0.653015,-0.098633,0.185059,-0.114504,-0.10687,0.038168,3.799414,9.564331,1.393677,0.023926,0.607715,0.142358,-0.205762,-0.088525,0.582593,you
1616137046.7611585,1,29.0,10.0,78.0,72.0,49.0,0.728516,0.651978,-0.100464,0.184448,-0.10687,-0.099237,0.045802,3.836499,9.615771,1.445117,0.044263,0.668726,0.174658,-0.209351,-0.111255,0.649585,you
1616137046.7712934,1,31.0,11.0,74.0,72.0,49.0,0.72937,0.650879,-0.102234,0.183899,-0.10687,-0.091603,0.045802,3.850854,9.731812,1.501343,0.043066,0.795532,0.210547,-0.260791,-0.133984,0.769214,you
1616137046.7812264,1,28.0,12.0,77.0,70.0,47.0,0.730286,0.64978,-0.104004,0.18335,-0.114504,-0.091603,0.045802,3.85564,9.898096,1.583887,0.031104,0.97019,0.271558,-0.33855,-0.178247,0.931909,you
1616137046.7910447,1,28.0,12.0,75.0,72.0,48.0,0.731384,0.648376,-0.105896,0.182617,-0.137405,-0.099237,0.053435,3.856836,10.127783,1.684375,0.017944,1.211841,0.344531,-0.44502,-0.224902,1.155615,you
1616137046.8013277,1,29.0,13.0,79.0,57.0,49.0,0.732849,0.646606,-0.108093,0.181702,-0.175573,-0.129771,0.061069,3.89751,10.419678,1.82793,0.04187,1.515698,0.452197,-0.541919,-0.291895,1.455884,you
1616137046.8111742,1,27.0,10.0,77.0,69.0,48.0,0.734741,0.644348,-0.110962,0.18042,-0.229008,-0.167939,0.068702,3.951343,10.761816,1.978662,0.07417,1.874585,0.557471,-0.657959,-0.344531,1.809985,you
1616137046.8213718,1,29.0,12.0,77.0,72.0,53.0,0.737183,0.641418,-0.114746,0.178528,-0.290076,-0.229008,0.076336,4.031494,11.137451,2.156909,0.128003,2.270557,0.679492,-0.773999,-0.397168,2.207153,you
1616137046.831346,1,27.0,10.0,76.0,74.0,49.0,0.740173,0.637817,-0.119629,0.175781,-0.366412,-0.305344,0.076336,4.183423,11.559741,2.378223,0.250024,2.717969,0.832617,-0.855347,-0.455786,2.683276,you
1616137046.8410172,1,27.0,13.0,78.0,73.0,53.0,0.743896,0.633362,-0.12561,0.172058,-0.458015,-0.381679,0.083969,4.384399,12.039454,2.611499,0.416309,3.227588,0.98335,-0.930713,-0.480908,3.233569,you
1616137046.8512478,1,31.0,13.0,79.0,72.0,52.0,0.748352,0.627808,-0.132812,0.16748,-0.557252,-0.458015,0.091603,4.591357,12.55625,2.834009,0.581396,3.782666,1.105371,-1.037183,-0.449805,3.818555,you
1616137046.8611605,1,28.0,10.0,78.0,70.0,51.0,0.753601,0.621094,-0.141296,0.161987,-0.671756,-0.534351,0.10687,4.798316,13.098169,3.055322,0.739307,4.372437,1.208252,-1.177148,-0.366064,4.42627,you
1616137046.8711078,1,31.0,11.0,79.0,74.0,52.0,0.759766,0.612915,-0.151123,0.155457,-0.80916,-0.618321,0.114504,4.962207,13.666407,3.251514,0.843384,4.999292,1.262085,-1.391284,-0.19021,5.031592,you
1616137046.881206,1,33.0,14.0,79.0,77.0,52.0,0.76709,0.602722,-0.162415,0.147827,-0.992366,-0.694656,0.137405,5.145239,14.247803,3.457275,0.955835,5.656054,1.294385,-1.617383,0.069385,5.652466,you
1616137046.8911586,1,29.0,12.0,78.0,73.0,50.0,0.775818,0.589905,-0.175171,0.139282,-1.206107,-0.755725,0.167939,5.345019,14.761011,3.586475,1.070679,6.268555,1.208252,-1.815967,0.507227,6.190796,you
1616137046.90105,1,31.0,11.0,79.0,73.0,53.0,0.785767,0.57428,-0.18927,0.130066,-1.419847,-0.801527,0.206107,5.572314,15.061279,3.653467,1.1927,6.699219,1.019238,-1.909277,1.06709,6.522168,you
1616137046.9112098,1,33.0,12.0,79.0,72.0,55.0,0.796631,0.555786,-0.204651,0.120422,-1.618321,-0.832061,0.259542,5.685962,15.056494,3.627148,1.178345,6.860718,0.702222,-1.965503,1.723853,6.487475,you
1616137046.9210649,1,33.0,11.0,80.0,77.0,54.0,0.807983,0.534851,-0.221069,0.110168,-1.78626,-0.885496,0.29771,5.650073,14.93208,3.512305,0.994116,6.938477,0.277539,-2.06958,2.487085,6.2219,you
1616137046.931126,1,30.0,11.0,78.0,75.0,42.0,0.819458,0.511597,-0.238464,0.098938,-1.931298,-0.946565,0.320611,5.644092,14.698804,3.372339,0.821851,6.943262,-0.181836,-2.054028,3.264673,5.831909,you
1616137046.9410677,1,33.0,11.0,79.0,73.0,56.0,0.83075,0.486145,-0.256592,0.086975,-2.061069,-0.977099,0.328244,5.714673,14.275317,3.244336,0.707007,6.796118,-0.631641,-1.857837,3.944165,5.297168,you
1616137046.951283,1,38.0,11.0,79.0,74.0,56.0,0.841736,0.458435,-0.275146,0.074768,-2.175573,-0.984733,0.366412,5.867798,13.643677,3.090015,0.655566,6.48269,-1.106567,-1.465454,4.501636,4.610498,you
1616137046.9611807,1,35.0,11.0,79.0,72.0,57.0,0.851868,0.428894,-0.293823,0.06311,-2.229008,-0.969466,0.435115,6.013745,12.671094,2.86272,0.576611,5.872583,-1.638916,-0.906787,4.838989,3.640308,you
1616137046.9710033,1,37.0,12.0,66.0,78.0,58.0,0.860779,0.398193,-0.312561,0.052551,-2.206107,-0.954198,0.503817,6.011353,11.477198,2.580395,0.327783,5.08064,-2.196387,-0.372046,4.966992,2.434448,you
1616137046.9811175,1,35.0,10.0,80.0,76.0,53.0,0.86792,0.367615,-0.331116,0.042847,-2.129771,-0.961832,0.534351,5.847461,10.358667,2.304053,-0.093311,4.382007,-2.696435,0.0,4.99331,1.238159,you
1616137046.991107,1,37.0,11.0,80.0,74.0,52.0,0.873352,0.337646,-0.349304,0.033447,-2.045802,-0.977099,0.534351,5.620166,9.427954,2.061206,-0.5802,3.877173,-3.111548,0.248828,4.994507,0.185425,you
1616137047.0009794,1,37.0,10.0,81.0,73.0,57.0,0.877075,0.308533,-0.36731,0.023804,-1.977099,-1.007634,0.51145,5.476611,8.637207,1.870996,-0.980957,3.503931,-3.417798,0.495264,4.922729,-0.655566,you
1616137047.011068,1,37.0,10.0,79.0,73.0,51.0,0.879272,0.280029,-0.384949,0.013977,-1.908397,-1.015267,0.473282,5.5448,7.824927,1.722656,-1.165186,3.10437,-3.634326,0.866113,4.666724,-1.288403,you
1616137047.0210822,1,39.0,10.0,79.0,73.0,53.0,0.880249,0.252258,-0.401855,0.004456,-1.824427,-0.977099,0.442748,5.812768,6.915747,1.623364,-1.14126,2.59834,-3.763525,1.333862,4.173852,-1.733423,you
1616137047.0309937,1,39.0,10.0,80.0,76.0,55.0,0.880249,0.225586,-0.417297,-0.004578,-1.709924,-0.89313,0.396947,6.188403,5.937182,1.57312,-0.990527,2.007373,-3.814966,1.802808,3.496753,-2.01814,you
1616137047.0412588,1,38.0,9.0,79.0,73.0,55.0,0.879761,0.200623,-0.430725,-0.013062,-1.580153,-0.778626,0.328244,6.523364,5.017236,1.585083,-0.851758,1.44751,-3.788647,2.137769,2.790942,-2.190405,you
1616137047.0511222,1,38.0,10.0,78.0,72.0,55.0,0.879089,0.177734,-0.441772,-0.021423,-1.458015,-0.656489,0.244275,6.712378,4.256396,1.609009,-0.824243,1.008472,-3.745581,2.314819,2.203564,-2.345923,you
1616137047.0610318,1,22.0,9.0,79.0,74.0,57.0,0.878174,0.157166,-0.450745,-0.03009,-1.335878,-0.549618,0.145038,6.842773,3.631934,1.629346,-0.821851,0.660352,-3.703711,2.421289,1.707104,-2.457178,you
1616137047.0710192,1,39.0,10.0,80.0,75.0,55.0,0.877258,0.138672,-0.457764,-0.039185,-1.244275,-0.450382,0.045802,6.932495,3.103174,1.666431,-0.831421,0.366064,-3.647485,2.466748,1.269263,-2.53374,you
1616137047.0810373,1,40.0,10.0,79.0,76.0,55.0,0.876343,0.12207,-0.463379,-0.048645,-1.152672,-0.381679,-0.038168,6.878662,2.568433,1.644897,-0.963013,0.029907,-3.653467,2.464355,0.836206,-2.738306,you
1616137047.091094,1,38.0,11.0,80.0,73.0,56.0,0.875183,0.106995,-0.46814,-0.058105,-1.053435,-0.358779,-0.091603,6.749463,2.043262,1.598242,-1.158008,-0.324194,-3.680981,2.418896,0.407935,-2.995508,you
1616137047.100986,1,40.0,9.0,79.0,74.0,56.0,0.873596,0.093506,-0.472778,-0.067383,-0.961832,-0.358779,-0.129771,6.768603,1.619775,1.632935,-1.202271,-0.605322,-3.613989,2.359082,0.017944,-3.049341,you
1616137047.1111157,1,38.0,10.0,79.0,73.0,53.0,0.871582,0.081482,-0.477295,-0.076172,-0.862595,-0.351145,-0.152672,6.973169,1.214233,1.678394,-1.058716,-0.890039,-3.525464,2.363867,-0.399561,-2.929712,you
1616137047.1209834,1,38.0,9.0,79.0,76.0,52.0,0.869385,0.070801,-0.481689,-0.084412,-0.770992,-0.328244,-0.167939,7.290185,0.954639,1.754956,-0.800317,-1.047949,-3.398657,2.386597,-0.708203,-2.661743,you
1616137047.1311352,1,39.0,10.0,78.0,75.0,51.0,0.867188,0.061584,-0.485413,-0.092712,-0.709924,-0.274809,-0.221374,7.657446,0.90918,1.836304,-0.480908,-1.019238,-3.270654,2.441626,-0.832617,-2.304053,you
1616137047.1411026,1,40.0,11.0,79.0,75.0,52.0,0.865173,0.053467,-0.488098,-0.101746,-0.694656,-0.19084,-0.29771,8.053418,0.85415,1.829126,-0.11604,-1.02522,-3.244336,2.589966,-0.99292,-1.972681,you
1616137047.1510563,1,38.0,10.0,79.0,78.0,56.0,0.863525,0.045837,-0.489624,-0.111572,-0.70229,-0.114504,-0.358779,8.406323,0.629248,1.598242,0.218921,-1.216626,-3.460864,2.890234,-1.336255,-1.832715,you
1616137047.1610184,1,39.0,9.0,80.0,77.0,53.0,0.861938,0.038147,-0.490723,-0.121582,-0.70229,-0.068702,-0.374046,8.746069,0.10647,0.984546,0.546704,-1.707104,-4.066186,3.450098,-2.003784,-1.95354,you
1616137047.1703053,1,38.0,10.0,79.0,72.0,53.0,0.859863,0.029907,-0.492432,-0.131042,-0.70229,-0.091603,-0.351145,9.131274,-0.641211,-0.096899,0.907983,-2.409326,-5.124902,4.343726,-2.951245,-2.302856,you
1616137047.1810966,1,40.0,10.0,79.0,76.0,55.0,0.856934,0.021118,-0.495728,-0.139587,-0.671756,-0.152672,-0.320611,9.743774,-1.544409,-1.469043,1.475024,-3.255103,-6.443213,5.49336,-4.166675,-2.593555,you
1616137047.1910954,1,38.0,11.0,79.0,75.0,56.0,0.852905,0.012268,-0.500732,-0.147095,-0.610687,-0.206107,-0.312977,10.774976,-2.612695,-3.043359,2.439233,-4.261182,-7.925415,6.890625,-5.718262,-2.589966,you
1616137047.2011456,1,41.0,11.0,82.0,75.0,55.0,0.848145,0.003784,-0.506897,-0.153687,-0.549618,-0.198473,-0.328244,12.069361,-3.631934,-4.598535,3.653467,-5.220605,-9.360962,8.321386,-7.338037,-2.258594,you
1616137047.2110207,1,38.0,11.0,79.0,75.0,55.0,0.843445,-0.00354,-0.512573,-0.160706,-0.51145,-0.091603,-0.419847,13.415186,-4.45498,-5.970679,4.929907,-6.010156,-10.619458,9.602612,-8.829809,-1.723853,you
1616137047.2212706,1,38.0,10.0,80.0,73.0,54.0,0.839722,-0.00946,-0.515808,-0.169617,-0.549618,0.137405,-0.580153,14.597119,-4.913159,-6.961206,6.075952,-6.471924,-11.544189,10.550074,-9.973462,-1.146045,you
1616137047.2310474,1,41.0,9.0,81.0,79.0,57.0,0.837891,-0.013977,-0.514343,-0.182312,-0.671756,0.473282,-0.78626,15.340014,-4.928711,-7.428955,6.842773,-6.536523,-12.039454,10.991504,-10.631421,-0.805103,you
1616137047.2411225,1,40.0,11.0,78.0,76.0,53.0,0.838623,-0.0177,-0.506714,-0.199219,-0.854962,0.854962,-0.961832,15.329248,-4.770801,-7.341626,6.930102,-6.457568,-12.102857,10.748657,-10.935278,-1.053931,you
1616137047.2510257,1,40.0,10.0,79.0,72.0,53.0,0.841858,-0.020996,-0.492676,-0.21936,-0.984733,1.198473,-1.076336,14.344702,-4.807886,-6.762622,6.125,-6.57959,-11.796606,9.671997,-11.042944,-2.11145,you
1616137047.2611902,1,46.0,11.0,79.0,75.0,56.0,0.847107,-0.023071,-0.473633,-0.239807,-0.908397,1.40458,-1.068702,12.36604,-5.372534,-5.590259,4.392774,-7.214819,-10.981934,7.51748,-10.989111,-3.825732,you
1616137047.2710164,1,39.0,10.0,79.0,76.0,63.0,0.853821,-0.022156,-0.452148,-0.257019,-0.580153,1.442748,-0.954198,9.597827,-6.117822,-3.692944,1.918848,-8.024707,-9.475805,4.405932,-10.320386,-5.650073,you
1616137047.2803495,1,36.0,9.0,79.0,76.0,54.0,0.861267,-0.015686,-0.43042,-0.269592,-0.099237,1.396947,-0.824427,6.29248,-6.036475,-0.905591,-1.055127,-8.045044,-7.068872,0.825439,-8.22688,-6.88584,you
1616137047.2910438,1,41.0,11.0,78.0,76.0,57.0,0.868835,-0.002625,-0.409058,-0.278992,0.267176,1.290076,-0.717557,2.628247,-4.265967,2.660547,-4.350904,-6.457568,-3.859229,-2.624658,-4.250415,-7.110742,you
1616137047.301125,1,38.0,-4.0,80.0,78.0,55.0,0.87561,0.013977,-0.388062,-0.287354,0.335878,1.129771,-0.603053,-1.026416,-1.04436,6.781763,-7.607202,-3.469238,-0.062207,-5.72544,1.00249,-6.010156,you
1616137047.3102148,1,40.0,10.0,80.0,75.0,56.0,0.881104,0.028992,-0.36792,-0.295776,0.114504,0.885496,-0.458015,-4.384399,2.569629,10.181616,-10.569214,-0.063403,3.050537,-7.92063,6.1896,-4.46814,you
1616137047.3204618,1,41.0,11.0,80.0,75.0,55.0,0.884827,0.038757,-0.350464,-0.304504,-0.183206,0.564885,-0.335878,-6.988721,5.511304,12.678271,-12.834986,2.74668,5.315112,-9.316699,10.262964,-2.889038,you
1616137047.3310602,1,43.0,10.0,79.0,77.0,53.0,0.887024,0.042664,-0.336609,-0.313049,-0.396947,0.236641,-0.251908,-8.45896,7.12749,14.514575,-14.049219,4.3198,6.970777,-10.184009,12.604101,-1.411621,you
1616137047.3402689,1,41.0,12.0,78.0,76.0,55.0,0.888062,0.042114,-0.326782,-0.320557,-0.442748,-0.015267,-0.167939,-8.689844,7.473218,15.719238,-14.112622,4.685864,8.04624,-10.545288,13.213013,-0.178247,you
1616137047.3510635,1,39.0,10.0,78.0,78.0,55.0,0.888367,0.039612,-0.320984,-0.325928,-0.351145,-0.167939,-0.091603,-7.954126,7.023413,15.935766,-13.289576,4.282715,8.18501,-10.235449,12.528735,0.434253,you
1616137047.3604252,1,40.0,10.0,80.0,75.0,56.0,0.888062,0.037354,-0.318909,-0.328979,-0.175573,-0.251908,-0.022901,-6.597534,6.337939,15.375903,-11.906665,3.630737,7.596436,-9.360962,11.164966,0.5802,you
1616137047.3711069,1,40.0,9.0,79.0,73.0,56.0,0.88739,0.036438,-0.319702,-0.330139,-0.022901,-0.290076,0.015267,-4.848559,5.780469,14.314795,-10.173243,3.076855,6.543701,-8.015137,9.553564,0.508423,you
1616137047.3802955,1,39.0,13.0,80.0,74.0,56.0,0.886414,0.036499,-0.322327,-0.330139,0.053435,-0.282443,0.038168,-2.939282,5.463452,13.006055,-8.302246,2.743091,5.268457,-6.363061,7.97207,0.375635,you
1616137047.390242,1,42.0,9.0,79.0,75.0,55.0,0.885376,0.036682,-0.325623,-0.329773,0.053435,-0.251908,0.045802,-1.101782,5.22539,11.584864,-6.51499,2.483496,3.889136,-4.661939,6.479102,0.149536,you
1616137047.4001908,1,42.0,10.0,78.0,74.0,54.0,0.884277,0.036316,-0.328979,-0.329407,0.007634,-0.21374,0.030534,0.56106,4.946655,10.193579,-4.905982,2.192798,2.539722,-3.092407,5.073462,-0.137573,you
1616137047.410235,1,41.0,9.0,79.0,75.0,15.0,0.883179,0.035339,-0.33197,-0.329346,-0.038168,-0.175573,0.015267,1.982251,4.569824,8.92312,-3.535034,1.81477,1.307544,-1.771704,3.759937,-0.46416,you
1616137047.4204743,1,41.0,9.0,79.0,78.0,53.0,0.882263,0.034058,-0.334473,-0.32959,-0.061069,-0.129771,-0.007634,3.177344,4.103271,7.875171,-2.3854,1.353003,0.289502,-0.754858,2.543311,-0.750073,you
1616137047.4303718,1,40.0,10.0,80.0,76.0,53.0,0.88147,0.032776,-0.336243,-0.329834,-0.053435,-0.076336,-0.015267,4.133179,3.618774,7.096387,-1.463062,0.878076,-0.465356,-0.035889,1.490576,-0.948657,you
1616137047.4402745,1,39.0,10.0,79.0,75.0,52.0,0.881104,0.03186,-0.337402,-0.329834,-0.030534,-0.022901,-0.007634,4.833008,3.194092,6.603516,-0.787158,0.461768,-0.945068,0.403149,0.6771,-1.050342,you
1616137047.4503171,1,43.0,8.0,80.0,76.0,53.0,0.881042,0.031555,-0.337952,-0.329468,0.007634,0.015267,0.007634,5.262475,2.884253,6.384595,-0.368457,0.156714,-1.156811,0.595752,0.150732,-1.05752,you
1616137047.4601996,1,41.0,11.0,79.0,76.0,55.0,0.881226,0.03186,-0.338013,-0.328918,0.038168,0.045802,0.015267,5.47063,2.71438,6.410913,-0.161499,-0.014355,-1.129297,0.598145,-0.101685,-0.965405,you
1616137047.4703078,1,42.0,10.0,80.0,74.0,51.0,0.881592,0.032654,-0.337585,-0.328247,0.038168,0.061069,0.015267,5.525659,2.783765,6.665723,-0.096899,0.046655,-0.879272,0.513208,-0.049048,-0.71897,you
1616137047.4804575,1,39.0,10.0,79.0,79.0,53.0,0.882019,0.033508,-0.33667,-0.328003,0.015267,0.068702,0.0,5.4802,3.025415,7.042554,-0.124414,0.281128,-0.513208,0.401953,0.211743,-0.387598,you
1616137047.4902654,1,40.0,10.0,81.0,76.0,55.0,0.882385,0.03418,-0.335205,-0.32843,-0.038168,0.083969,-0.022901,5.455078,3.227588,7.437329,-0.122021,0.478516,-0.136377,0.281128,0.425879,-0.039478,you
1616137047.500089,1,39.0,9.0,79.0,73.0,56.0,0.882751,0.034241,-0.333496,-0.329224,-0.068702,0.083969,-0.038168,5.417993,3.281421,7.756738,-0.130396,0.535937,0.159106,0.128003,0.521582,0.198584,you
1616137047.5102816,1,41.0,10.0,79.0,76.0,54.0,0.883057,0.034119,-0.331665,-0.3302,-0.076336,0.076336,-0.038168,5.409619,3.292187,8.065381,-0.108862,0.555078,0.443823,-0.019141,0.568237,0.437842,you
1616137047.5202005,1,43.0,9.0,82.0,75.0,53.0,0.883423,0.033875,-0.329895,-0.331055,-0.068702,0.068702,-0.030534,5.386889,3.281421,8.292676,-0.105273,0.553882,0.647192,-0.13877,0.596948,0.599341,you
1616137047.5300465,1,41.0,11.0,81.0,75.0,57.0,0.883728,0.033691,-0.32843,-0.331726,-0.053435,0.053435,-0.022901,5.36416,3.258691,8.449389,-0.105273,0.539526,0.784766,-0.227295,0.607715,0.704614,you
1616137047.5401847,1,41.0,12.0,82.0,75.0,55.0,0.883972,0.033813,-0.327454,-0.33197,-0.007634,0.038168,-0.015267,5.356982,3.200073,8.554663,-0.095703,0.483301,0.878076,-0.308643,0.571826,0.768018,you
1616137047.550182,1,43.0,13.0,85.0,76.0,53.0,0.884155,0.034546,-0.326904,-0.332031,0.038168,0.022901,-0.007634,5.408423,3.22998,8.621655,-0.031104,0.503638,0.939087,-0.29668,0.556274,0.858936,you
1616137047.560093,1,44.0,13.0,79.0,78.0,55.0,0.884216,0.035645,-0.326721,-0.331848,0.045802,0.022901,0.0,5.481397,3.404639,8.632421,0.050244,0.661548,0.948657,-0.168677,0.629248,0.955835,you
1616137047.5702932,1,40.0,10.0,82.0,69.0,48.0,0.884338,0.036621,-0.32666,-0.331482,0.030534,0.015267,0.022901,5.529248,3.669019,8.596533,0.104077,0.911572,0.913965,0.020337,0.783569,1.030005,you
1616137047.5801115,1,41.0,10.0,63.0,76.0,52.0,0.884521,0.03717,-0.326599,-0.331055,-0.007634,0.007634,0.038168,5.526855,3.867603,8.509204,0.105273,1.102978,0.826636,0.18064,0.917554,1.016846,you
1616137047.5901096,1,39.0,10.0,80.0,79.0,54.0,0.884644,0.037048,-0.326599,-0.330627,-0.038168,-0.007634,0.045802,5.513696,3.964502,8.406323,0.089722,1.204663,0.723755,0.289502,0.991724,0.955835,you
1616137047.6002114,1,41.0,10.0,79.0,74.0,53.0,0.884766,0.036499,-0.326599,-0.330444,-0.061069,-0.015267,0.038168,5.518481,3.947754,8.298657,0.090918,1.198682,0.614893,0.352905,0.971387,0.868506,you
1616137047.6102085,1,41.0,11.0,79.0,75.0,56.0,0.884827,0.035522,-0.326599,-0.330322,-0.076336,-0.022901,0.030534,5.542407,3.838892,8.182617,0.107666,1.107764,0.497656,0.382812,0.873291,0.758447,you
1616137047.620145,1,40.0,10.0,79.0,73.0,56.0,0.884827,0.034485,-0.326721,-0.330261,-0.068702,-0.030534,0.030534,5.563941,3.663037,8.060596,0.120825,0.949854,0.376831,0.375635,0.724951,0.624463,you
1616137047.6302142,1,41.0,10.0,80.0,76.0,39.0,0.884827,0.033508,-0.327026,-0.330261,-0.053435,-0.038168,0.022901,5.566333,3.468042,7.931396,0.111255,0.769214,0.248828,0.345728,0.57063,0.467749,you
1616137047.6403887,1,42.0,12.0,79.0,79.0,55.0,0.884644,0.032776,-0.327576,-0.330139,-0.022901,-0.045802,0.015267,5.587866,3.279028,7.817749,0.119629,0.590967,0.141162,0.314624,0.410327,0.33855,you
1616137047.650087,1,39.0,10.0,79.0,74.0,55.0,0.88446,0.032471,-0.328308,-0.329895,0.0,-0.045802,0.015267,5.622559,3.170166,7.745972,0.139966,0.483301,0.078955,0.302661,0.303857,0.271558,you
1616137047.6602886,1,42.0,10.0,80.0,74.0,57.0,0.884277,0.032532,-0.329041,-0.329651,0.022901,-0.038168,0.007634,5.665625,3.172559,7.717261,0.172266,0.482104,0.059814,0.331372,0.281128,0.275146,you
1616137047.6702578,1,39.0,10.0,82.0,74.0,54.0,0.884155,0.032898,-0.32959,-0.329468,0.015267,-0.022901,0.0,5.694336,3.245532,7.700513,0.194995,0.546704,0.050244,0.386401,0.31582,0.299072,you
1616137047.6800294,1,43.0,10.0,79.0,78.0,56.0,0.884033,0.033142,-0.329834,-0.329468,0.0,-0.007634,0.0,5.687158,3.298169,7.662231,0.185425,0.593359,0.015552,0.427075,0.352905,0.279932,you
1616137047.690116,1,41.0,9.0,81.0,75.0,54.0,0.883972,0.033264,-0.329956,-0.329529,-0.015267,0.0,-0.007634,5.656054,3.313721,7.586865,0.153125,0.605322,-0.056226,0.459375,0.37085,0.208154,you
1616137047.7002,1,41.0,10.0,80.0,78.0,57.0,0.88385,0.033203,-0.330017,-0.329773,-0.030534,-0.007634,-0.007634,5.635718,3.296973,7.482788,0.132788,0.588574,-0.160303,0.501245,0.352905,0.111255,you
1616137047.7100985,1,41.0,10.0,80.0,76.0,52.0,0.883667,0.032837,-0.330322,-0.330017,-0.038168,-0.022901,-0.007634,5.648877,3.233569,7.381104,0.139966,0.527563,-0.258398,0.531152,0.284717,0.022729,you
1616137047.7202072,1,41.0,11.0,79.0,76.0,53.0,0.883484,0.03241,-0.330627,-0.330261,-0.038168,-0.022901,-0.007634,5.701514,3.139062,7.278223,0.185425,0.436646,-0.35769,0.565845,0.169873,-0.053833,you
1616137047.7301898,1,40.0,10.0,79.0,73.0,53.0,0.88324,0.031982,-0.331055,-0.330444,-0.022901,-0.022901,-0.007634,5.750562,3.070874,7.208838,0.226099,0.372046,-0.421094,0.590967,0.08374,-0.096899,you
1616137047.7401474,1,43.0,14.0,82.0,79.0,54.0,0.883118,0.031799,-0.331421,-0.330566,-0.015267,-0.015267,-0.007634,5.790039,3.033789,7.172949,0.258398,0.334961,-0.453394,0.607715,0.029907,-0.114844,you
1616137047.7500927,1,41.0,11.0,82.0,79.0,55.0,0.882996,0.031799,-0.331665,-0.330566,-0.007634,-0.007634,0.0,5.819946,3.060107,7.184912,0.285913,0.360083,-0.437842,0.628052,0.035889,-0.078955,you
1616137047.76014,1,39.0,11.0,80.0,75.0,51.0,0.882996,0.031799,-0.331787,-0.330505,-0.015267,0.0,0.007634,5.840283,3.143848,7.231567,0.303857,0.443823,-0.38999,0.656763,0.098096,-0.008374,you
1616137047.770131,1,41.0,10.0,81.0,75.0,50.0,0.883057,0.031738,-0.331665,-0.330444,-0.022901,0.015267,0.015267,5.859424,3.18811,7.304541,0.324194,0.490479,-0.319409,0.650781,0.133984,0.069385,you
1616137047.7801309,1,42.0,10.0,80.0,75.0,56.0,0.883301,0.031555,-0.331238,-0.330261,-0.030534,0.030534,0.015267,5.834302,3.179736,7.381104,0.303857,0.489282,-0.248828,0.595752,0.156714,0.111255,you
1616137047.790086,1,42.0,12.0,80.0,79.0,57.0,0.883545,0.031433,-0.330627,-0.3302,-0.030534,0.038168,0.015267,5.752954,3.148633,7.458862,0.229687,0.46416,-0.178247,0.497656,0.193799,0.117236,you
1616137047.8000848,1,44.0,10.0,80.0,78.0,55.0,0.883789,0.031372,-0.330017,-0.3302,-0.030534,0.030534,0.007634,5.646484,3.119922,7.537817,0.132788,0.440234,-0.107666,0.387598,0.245239,0.110059,you
1616137047.809369,1,41.0,10.0,80.0,77.0,55.0,0.883911,0.031311,-0.32959,-0.330322,-0.022901,0.015267,0.0,5.575903,3.107959,7.620361,0.068188,0.430664,-0.031104,0.299072,0.289502,0.131592,you
1616137047.819477,1,39.0,11.0,80.0,76.0,56.0,0.883972,0.031189,-0.329285,-0.330505,-0.022901,0.0,-0.007634,5.525659,3.090015,7.683764,0.021533,0.416309,0.027515,0.229687,0.31582,0.147144,you
1616137047.8299973,1,43.0,10.0,82.0,76.0,56.0,0.883911,0.031128,-0.329163,-0.33075,-0.015267,-0.007634,-0.015267,5.486182,3.081641,7.72085,-0.014355,0.407935,0.062207,0.184229,0.336157,0.150732,you
1616137050.466313,1,38.0,10.0,84.0,80.0,58.0,0.899475,0.255615,-0.345581,-0.078247,-0.015267,-0.007634,-0.007634,5.781665,5.307935,6.318799,0.080151,0.270361,0.139966,-0.04187,0.14834,0.272754,you
1616137050.4763722,1,39.0,10.0,84.0,83.0,58.0,0.899536,0.255554,-0.34552,-0.078369,-0.015267,-0.007634,-0.007634,5.791235,5.291186,6.325976,0.090918,0.253613,0.145947,-0.037085,0.129199,0.275146,you
1616137050.48828,1,38.0,10.0,82.0,80.0,58.0,0.899536,0.255493,-0.34552,-0.07843,-0.007634,-0.007634,-0.007634,5.798413,5.288794,6.343921,0.099292,0.252417,0.162695,-0.04187,0.118433,0.289502,you
1616137050.4964976,1,39.0,10.0,84.0,86.0,58.0,0.899536,0.255432,-0.345459,-0.078552,-0.015267,-0.007634,-0.007634,5.802002,5.295972,6.355884,0.104077,0.259595,0.173462,-0.045459,0.118433,0.302661,you
1616137050.5064943,1,38.0,11.0,87.0,82.0,58.0,0.899597,0.255249,-0.345459,-0.078674,-0.015267,-0.007634,0.0,5.804395,5.288794,6.375024,0.10647,0.25481,0.191406,-0.055029,0.10647,0.313428,you
1616137050.516458,1,41.0,11.0,83.0,83.0,59.0,0.899597,0.255127,-0.34552,-0.078735,-0.015267,-0.007634,0.0,5.803198,5.287598,6.391772,0.104077,0.25481,0.206958,-0.066992,0.100488,0.321802,you
1616137050.5263658,1,38.0,10.0,84.0,83.0,58.0,0.899658,0.254944,-0.34552,-0.078735,-0.015267,-0.007634,0.0,5.796021,5.284009,6.39895,0.095703,0.25481,0.212939,-0.077759,0.101685,0.320605,you
