"Alphabet","timestamp","user_id","flex_1","flex_2","flex_3","flex_4","flex_5","Qw","Qx","Qy","Qz","GYRx","GYRy","GYRz","ACCx","ACCy","ACCz","ACCx_body","ACCy_body","ACCz_body","ACCx_world","ACCy_world","ACCz_world"
"Z","1617451823.2195628","7","1","-16","63","53","25","0.900085","0.125732","-0.236206","-0.343872","0.114504","-0.137405","-0.267176","2.905786","12.684253","7.175342","-0.41272","8.874072","-1.220215","5.321094","6.852344","2.264575"
"Z","1617451823.2089784","7","0","-17","63","55","25","0.903442","0.120361","-0.232361","-0.339478","0.122137","-0.183206","-0.412214","2.327979","12.659131","7.531836","-0.984546","8.981738","-0.924731","4.818652","7.364356","2.238257"
"Z","1617451823.1996813","7","1","-16","63","54","25","0.907837","0.114258","-0.228271","-0.332581","0.10687","-0.229008","-0.587786","1.728638","12.320581","7.979248","-1.587476","8.798706","-0.541919","4.048242","7.693335","2.152124"
"Z","1617451823.1895554","7","1","-17","63","53","24","0.913208","0.107422","-0.224182","-0.322815","0.099237","-0.251908","-0.793893","1.184326","11.607593","8.535522","-2.148535","8.266357","-0.052637","3.015845","7.724439","2.040869"
"Z","1617451823.1795335","7","0","-19","62","52","26","0.919434","0.099854","-0.22052","-0.309814","0.099237","-0.259542","-0.992366","0.724951","10.487866","9.132471","-2.642602","7.348804","0.480908","1.759741","7.389478","1.8698"
"Z","1617451823.169611","7","-3","-19","62","56","26","0.92627","0.091675","-0.217407","-0.293823","0.099237","-0.259542","-1.167939","0.406738","9.009253","9.670801","-3.012256","6.0927","0.961816","0.425879","6.657349","1.616186"
"Z","1617451823.159495","7","-16","-16","63","40","-13","0.93335","0.083191","-0.214905","-0.275208","0.099237","-0.259542","-1.305344","0.197388","7.329663","10.075147","-3.28501","4.647583","1.315918","-0.850561","5.634521","1.280029"
"Z","1617451823.1495783","7","0","-15","63","54","23","0.940308","0.074585","-0.213074","-0.254578","0.099237","-0.244275","-1.40458","0.119629","5.560351","10.280909","-3.434546","3.122314","1.47981","-1.930811","4.387988","0.858936"
"Z","1617451823.1395411","7","0","-17","63","53","25","0.946899","0.066345","-0.211853","-0.232605","0.083969","-0.221374","-1.458015","0.244043","3.871192","10.292871","-3.384302","1.673608","1.458276","-2.653369","3.024219","0.435449"
"Z","1617451823.1295793","7","-1","-19","63","63","23","0.95282","0.058716","-0.211304","-0.209839","0.068702","-0.175573","-1.496183","0.544312","2.388989","10.185205","-3.1594","0.42229","1.327881","-3.007471","1.692749","0.089722"
"Z","1617451823.119818","7","-1","-15","63","53","26","0.958008","0.051453","-0.211487","-0.186707","0.068702","-0.099237","-1.503817","0.898413","1.110156","10.05481","-2.884253","-0.629248","1.18313","-3.137866","0.489282","-0.153125"
"Z","1617451823.109774","7","0","-18","61","52","24","0.962341","0.044128","-0.212585","-0.163574","0.10687","-0.022901","-1.480916","1.208252","-0.227295","9.923218","-2.659351","-1.740601","1.046753","-3.234766","-0.769214","-0.369653"
"Z","1617451823.0996363","7","1","-18","63","52","25","0.965698","0.036865","-0.214661","-0.141174","0.122137","0.061069","-1.435115","1.49895","-1.481006","9.789233","-2.461963","-2.771802","0.91875","-3.238354","-1.952344","-0.52876"
"Z","1617451823.0896685","7","2","-16","63","56","26","0.968201","0.029968","-0.21759","-0.119629","0.122137","0.10687","-1.374046","1.748975","-2.478711","9.644483","-2.308838","-3.556567","0.789551","-3.139062","-2.887842","-0.634033"
"Z","1617451823.0798","7","-1","-18","63","55","26","0.96991","0.023804","-0.220947","-0.099365","0.114504","0.10687","-1.282443","1.920044","-3.240747","9.474609","-2.233472","-4.122412","0.642407","-3.000293","-3.582886","-0.73811"
"Z","1617451823.0696993","7","0","-13","63","56","23","0.971069","0.018677","-0.22406","-0.080505","0.083969","0.083969","-1.19084","2.046851","-3.706104","9.259277","-2.188013","-4.414307","0.449805","-2.789746","-3.993213","-0.860132"
"Z","1617451823.059714","7","0","-19","63","56","26","0.971863","0.014587","-0.226501","-0.062988","0.061069","0.030534","-1.10687","2.107861","-3.941772","9.024805","-2.188013","-4.499243","0.234473","-2.570825","-4.178638","-1.004883"
"Z","1617451823.0496671","7","0","-17","63","55","24","0.972473","0.011292","-0.227905","-0.046814","0.038168","-0.022901","-1.022901","2.03728","-4.135571","8.760425","-2.295679","-4.559058","-0.017944","-2.429663","-4.316211","-1.228589"
"Z","1617451823.039599","7","-1","-17","63","52","25","0.972961","0.008728","-0.228394","-0.031738","0.015267","-0.053435","-0.954198","1.908081","-4.268359","8.560644","-2.441626","-4.575806","-0.214136","-2.350708","-4.40354","-1.418799"
"Z","1617451823.0297225","7","-3","-17","62","55","26","0.973267","0.006592","-0.228699","-0.017578","0.007634","-0.038168","-0.885496","1.892529","-4.438232","8.519971","-2.466748","-4.641602","-0.252417","-2.238257","-4.544702","-1.419995"
"Z","1617451823.0197046","7","3","-16","63","55","25","0.973328","0.004761","-0.229309","-0.004578","0.015267","0","-0.816794","2.030102","-4.733716","8.58816","-2.34353","-4.844971","-0.18064","-2.048047","-4.81626","-1.262085"
"Z","1617451823.009721","7","5","-11","63","53","24","0.973022","0.002808","-0.230347","0.007446","0.045802","0.038168","-0.763359","2.18562","-5.124902","8.722143","-2.207153","-5.144043","-0.035889","-1.874585","-5.171557","-1.031201"
"Z","1617451822.9995248","7","3","-16","63","55","24","0.972473","0.00061","-0.232117","0.018433","0.083969","0.083969","-0.709924","2.393775","-5.651269","8.936279","-2.030102","-5.578296","0.192603","-1.695142","-5.647681","-0.703418"
"Z","1617451822.9897993","7","0","-17","61","-1","25","0.97168","-0.001648","-0.234375","0.028381","0.099237","0.099237","-0.648855","2.610303","-6.160889","9.189893","-1.851856","-5.998193","0.466553","-1.53125","-6.095093","-0.328979"
"Z","1617451822.979579","7","-1","-16","63","56","22","0.970825","-0.003418","-0.236633","0.037292","0.091603","0.083969","-0.587786","2.732324","-6.517383","9.426758","-1.766919","-6.279321","0.724951","-1.452295","-6.39895","-0.014355"
"Z","1617451822.9695554","7","1","-17","63","52","24","0.970093","-0.004578","-0.238342","0.045166","0.068702","0.030534","-0.519084","2.721558","-6.730322","9.66482","-1.8052","-6.43125","0.978564","-1.495361","-6.578393","0.228491"
"Z","1617451822.9598489","7","0","-8","63","55","26","0.969604","-0.005066","-0.238953","0.052063","0.045802","-0.045802","-0.450382","2.497852","-6.869092","9.846655","-2.03728","-6.52815","1.166382","-1.690356","-6.719556","0.31582"
"Z","1617451822.9496253","7","-1","-18","63","52","25","0.96936","-0.005127","-0.238586","0.057922","0.038168","-0.099237","-0.381679","2.178442","-7.004272","9.975855","-2.348315","-6.635816","1.291992","-1.934399","-6.882251","0.308643"
"Z","1617451822.939743","7","1","-16","63","55","30","0.969238","-0.004822","-0.237854","0.062744","0.045802","-0.091603","-0.305344","1.961914","-7.165771","10.14812","-2.550488","-6.780566","1.45708","-2.104272","-7.072461","0.382812"
"Z","1617451822.9298542","7","0","-17","63","53","26","0.969055","-0.004456","-0.237732","0.066223","0.083969","-0.038168","-0.221374","1.982251","-7.363159","10.351489","-2.526562","-6.96958","1.659253","-2.104272","-7.274634","0.588574"
"Z","1617451822.9197755","7","1","-16","62","56","24","0.968628","-0.004333","-0.238831","0.068237","0.160305","0.038168","-0.137405","2.225098","-7.632324","10.540503","-2.302856","-7.230371","1.859033","-1.937988","-7.516284","0.878076"
"Z","1617451822.9096427","7","0","-8","60","54","24","0.967957","-0.005127","-0.241272","0.068604","0.244275","0.114504","-0.045802","2.576807","-8.025904","10.626636","-1.993018","-7.603613","1.969092","-1.671216","-7.845263","1.136475"
"Z","1617451822.8996477","7","0","-16","62","53","23","0.967224","-0.006287","-0.24469","0.067139","0.29771","0.160305","0.045802","2.921338","-8.388379","10.649365","-1.708301","-7.946948","2.024121","-1.440332","-8.14314","1.33147"
"Z","1617451822.8897145","7","0","-15","63","54","25","0.966492","-0.007141","-0.248535","0.063904","0.290076","0.175573","0.145038","3.185718","-8.385986","10.727124","-1.513306","-7.938574","2.137769","-1.390088","-8.103662","1.50852"
"Z","1617451822.8796735","7","-1","-16","63","57","26","0.96582","-0.007263","-0.252136","0.059265","0.244275","0.145038","0.229008","3.265869","-8.11084","10.84436","-1.497754","-7.680176","2.290894","-1.562353","-7.838086","1.607813"
"Z","1617451822.8696623","7","-3","-18","61","54","26","0.965393","-0.00647","-0.255127","0.053528","0.21374","0.10687","0.305344","3.185718","-7.774683","10.997485","-1.634131","-7.383496","2.473926","-1.892529","-7.550977","1.641309"
"Z","1617451822.859772","7","-1","-17","63","56","25","0.965088","-0.005188","-0.257507","0.046814","0.198473","0.068702","0.381679","2.948853","-7.419385","11.123096","-1.916455","-7.084424","2.623462","-2.337549","-7.267456","1.564746"
"Z","1617451822.84978","7","1","-17","63","55","26","0.964905","-0.003601","-0.259705","0.038879","0.206107","0.068702","0.465649","2.717969","-7.125098","11.22478","-2.190405","-6.858325","2.74668","-2.763428","-7.041358","1.464258"
"Z","1617451822.8398075","7","0","-19","61","55","25","0.964539","-0.001831","-0.262146","0.029602","0.221374","0.099237","0.549618","2.554077","-6.826025","11.297754","-2.399756","-6.638208","2.844775","-3.130688","-6.798511","1.366162"
"Z","1617451822.8296442","7","1","-18","62","56","24","0.963928","0","-0.26532","0.018982","0.236641","0.152672","0.633588","2.464355","-6.459961","11.315699","-2.548096","-6.360669","2.896216","-3.435742","-6.477905","1.248926"
"Z","1617451822.819765","7","1","-16","63","55","26","0.962891","0.002197","-0.269592","0.006897","0.236641","0.229008","0.732824","2.509815","-5.94436","11.275024","-2.578003","-5.949145","2.899805","-3.621167","-6.001782","1.135278"
"Z","1617451822.8096845","7","1","-17","63","55","24","0.961365","0.004761","-0.275146","-0.006775","0.236641","0.312977","0.839695","2.642602","-5.255298","11.124292","-2.540918","-5.380908","2.80769","-3.696533","-5.35459","0.968994"
"Z","1617451822.7998462","7","-4","-17","63","56","26","0.959106","0.007874","-0.281921","-0.022156","0.229008","0.381679","0.961832","2.817261","-4.407129","10.865893","-2.478711","-4.67749","2.624658","-3.679785","-4.56145","0.73811"
"Z","1617451822.7898638","7","0","-14","63","57","26","0.956299","0.011536","-0.28949","-0.039307","0.206107","0.427481","1.068702","2.971582","-3.389087","10.498632","-2.445215","-3.828125","2.34353","-3.588867","-3.612793","0.425879"
"Z","1617451822.779881","7","0","-19","63","55","24","0.952881","0.015686","-0.297302","-0.0578","0.19084","0.435115","1.152672","3.019433","-2.241846","10.014135","-2.5146","-2.871094","1.951147","-3.451294","-2.540918","0"
"Z","1617451822.7697136","7","1","-17","63","52","25","0.948975","0.020081","-0.305054","-0.077148","0.175573","0.435115","1.19084","2.972778","-1.03479","9.455469","-2.670117","-1.868603","1.486987","-3.257495","-1.406836","-0.48689"
"Z","1617451822.7596843","7","-1","-18","63","57","26","0.944641","0.02417","-0.3125","-0.096741","0.183206","0.442748","1.206107","2.890234","0.081348","8.925512","-2.84956","-0.958228","1.051538","-3.025415","-0.358887","-0.924731"
"Z","1617451822.749808","7","2","-15","63","57","24","0.93988","0.027588","-0.319824","-0.116394","0.206107","0.450382","1.21374","2.861523","1.006079","8.478101","-2.966797","-0.230884","0.697437","-2.749072","0.492871","-1.239355"
"Z","1617451822.7398567","7","1","-17","63","55","23","0.934692","0.030518","-0.326965","-0.136108","0.21374","0.450382","1.236641","2.885449","1.81477","8.104858","-3.023022","0.382812","0.417505","-2.433252","1.210644","-1.439136"
"Z","1617451822.7297916","7","1","-16","63","54","26","0.929016","0.033325","-0.333862","-0.156067","0.198473","0.442748","1.267176","2.896216","2.642602","7.736402","-3.080444","1.014453","0.142358","-2.061206","1.929614","-1.599438"
"Z","1617451822.719792","7","-4","-18","62","57","21","0.922852","0.036499","-0.340393","-0.176331","0.160305","0.427481","1.305344","2.938086","3.551782","7.415796","-3.092407","1.714282","-0.086133","-1.612598","2.680884","-1.64729"
"Z","1617451822.7097597","7","1","-16","62","54","24","0.916321","0.040039","-0.346497","-0.196655","0.129771","0.412214","1.328244","2.976367","4.507617","7.137061","-3.091211","2.452393","-0.277539","-1.112549","3.436939","-1.609009"
"Z","1617451822.699569","7","-1","-16","63","56","29","0.909485","0.043823","-0.352112","-0.216736","0.10687","0.389313","1.320611","3.018237","5.370142","6.871484","-3.07207","3.092407","-0.460571","-0.593359","4.061401","-1.534839"
"Z","1617451822.6901598","7","0","-16","63","56","24","0.902405","0.047485","-0.357239","-0.236267","0.10687","0.381679","1.290076","3.082837","6.122607","6.595141","-3.014648","3.628345","-0.659155","-0.044263","4.539917","-1.440332"
"Z","1617451822.6797452","7","1","-18","61","56","23","0.895142","0.050598","-0.362061","-0.255188","0.10687","0.381679","1.251908","3.213233","6.726733","6.35708","-2.885449","4.027905","-0.823047","0.492871","4.828223","-1.2896"
"Z","1617451822.6696794","7","1","-17","62","56","26","0.887756","0.053284","-0.366516","-0.273315","0.10687","0.374046","1.206107","3.353198","7.22439","6.132178","-2.738306","4.332959","-0.978564","1.004883","4.992114","-1.134082"
"Z","1617451822.659785","7","0","-18","61","51","25","0.88031","0.055481","-0.370789","-0.290588","0.10687","0.366412","1.152672","3.500342","7.650269","5.924024","-2.580395","4.580591","-1.119727","1.486987","5.072266","-0.971387"
"Z","1617451822.649787","7","-1","-18","62","55","24","0.872986","0.057373","-0.374756","-0.306885","0.091603","0.366412","1.083969","3.6427","8.022314","5.740991","-2.423682","4.786353","-1.241748","1.928418","5.094995","-0.803906"
"Z","1617451822.6396697","7","-3","-19","63","121","24","0.865723","0.059021","-0.378601","-0.32196","0.068702","0.358779","1.015267","3.757544","8.412305","5.595044","-2.293286","5.020825","-1.326685","2.33396","5.136865","-0.616089"
"Z","1617451822.629733","7","-3","-15","63","56","25","0.858704","0.060547","-0.382263","-0.335876","0.053435","0.343511","0.954198","3.889136","8.793921","5.456275","-2.144946","5.25769","-1.406836","2.735913","5.153613","-0.409131"
"Z","1617451822.61993","7","1","-17","63","57","25","0.851929","0.061951","-0.385681","-0.348755","0.038168","0.320611","0.900763","3.999194","9.17793","5.276831","-2.016943","5.506518","-1.532446","3.155811","5.167969","-0.240454"
"Z","1617451822.6097236","7","1","-15","63","57","26","0.845398","0.063293","-0.388794","-0.360718","0.015267","0.290076","0.839695","4.044653","9.606201","5.071069","-1.949951","5.807983","-1.686768","3.588867","5.242139","-0.105273"
"Z","1617451822.5997193","7","-1","-19","62","57","22","0.839294","0.064819","-0.391479","-0.371704","-0.015267","0.259542","0.778626","4.044653","10.107447","4.830615","-1.922436","6.188403","-1.882959","4.072168","5.379712","0.013159"
"Z","1617451822.5898054","7","-1","-16","63","64","26","0.833618","0.066406","-0.393921","-0.38147","-0.045802","0.229008","0.709924","4.037476","10.694824","4.624854","-1.9021","6.664526","-2.046851","4.579394","5.58667","0.193799"
"Z","1617451822.579877","7","0","-17","63","56","26","0.828552","0.06781","-0.396057","-0.389954","-0.053435","0.206107","0.641221","4.038672","11.23794","4.470532","-1.874585","7.109546","-2.164087","5.030396","5.768506","0.398364"
"Z","1617451822.56978","7","0","-17","63","57","26","0.824097","0.068604","-0.397766","-0.3974","-0.038168","0.19084","0.557252","4.078149","11.623144","4.338941","-1.811182","7.415796","-2.266968","5.395264","5.828321","0.565845"
"Z","1617451822.5598078","7","-1","-17","63","55","25","0.820374","0.068604","-0.399109","-0.403809","-0.015267","0.175573","0.473282","4.102075","11.854029","4.234863","-1.771704","7.59165","-2.350708","5.653662","5.822339","0.659155"
"Z","1617451822.549757","7","1","-20","61","56","24","0.817261","0.067749","-0.400024","-0.40918","0.007634","0.152672","0.381679","4.088916","11.970068","4.142749","-1.775293","7.676587","-2.429663","5.828321","5.792432","0.671118"
"Z","1617451822.5398884","7","-3","-20","61","52","25","0.814941","0.06604","-0.400696","-0.413391","0.007634","0.145038","0.290076","4.079346","12.015528","4.047046","-1.784863","7.713672","-2.519385","5.969482","5.742188","0.629248"
"Z","1617451822.529788","7","-3","-19","63","54","25","0.813354","0.063843","-0.401367","-0.41626","-0.007634","0.129771","0.183206","4.117627","12.045435","3.997998","-1.759741","7.751953","-2.563648","6.078345","5.69314","0.62207"
"Z","1617451822.5197582","7","2","-16","63","56","25","0.812561","0.061157","-0.401917","-0.417725","-0.022901","0.114504","0.083969","4.175049","12.035864","3.975269","-1.725049","7.771094","-2.585181","6.147729","5.645288","0.611304"
"Z","1617451822.5104992","7","2","-16","63","55","25","0.812561","0.058044","-0.402283","-0.417725","-0.022901","0.091603","-0.015267","4.204956","11.928198","4.001587","-1.726245","7.710083","-2.558862","6.105859","5.599829","0.559863"
"Z","1617451822.5005283","7","-1","-17","62","57","22","0.813416","0.054504","-0.402466","-0.416382","-0.030534","0.076336","-0.10687","4.242041","11.720044","4.080542","-1.728638","7.565332","-2.485889","5.963501","5.530444","0.48689"
"Z","1617451822.4907105","7","0","-19","63","55","23","0.815002","0.050537","-0.402588","-0.413696","-0.045802","0.061069","-0.206107","4.331763","11.468823","4.261182","-1.68916","7.396655","-2.31123","5.736206","5.455078","0.484497"
"Z","1617451822.480472","7","-1","-17","63","56","25","0.8172","0.046265","-0.402771","-0.409607","-0.053435","0.045802","-0.312977","4.392774","11.179321","4.474121","-1.686768","7.204053","-2.103076","5.444312","5.412012","0.462964"
"Z","1617451822.4707255","7","-1","-17","63","54","26","0.820312","0.041382","-0.40271","-0.403992","-0.030534","0","-0.427481","4.370044","10.764209","4.640405","-1.776489","6.909766","-1.946362","5.079443","5.365356","0.294287"
"Z","1617451822.4604745","7","-3","-17","60","55","24","0.824341","0.0354","-0.402039","-0.396973","0.030534","-0.038168","-0.534351","4.269556","10.084717","4.649976","-1.949951","6.384595","-1.957129","4.643994","5.177539","-0.145947"
"Z","1617451822.450714","7","0","-19","63","53","23","0.829163","0.028137","-0.400635","-0.388794","0.083969","-0.045802","-0.633588","4.268359","9.120508","4.567431","-2.02771","5.609399","-2.070776","4.147534","4.708594","-0.69624"
"Z","1617451822.4405117","7","-1","-19","62","54","24","0.834473","0.019714","-0.398987","-0.379517","0.10687","-0.030534","-0.740458","4.506421","8.054614","4.577002","-1.872192","4.763623","-2.094702","3.630737","4.036279","-1.04436"
"Z","1617451822.430724","7","-1","-19","62","55","25","0.840027","0.010803","-0.397522","-0.36908","0.061069","-0.007634","-0.847328","4.874878","6.99231","4.74209","-1.591064","3.938184","-1.958325","3.076855","3.324487","-1.161597"
"Z","1617451822.4207168","7","-2","-19","63","57","25","0.845825","0.002502","-0.396423","-0.356934","-0.045802","-0.007634","-0.961832","5.212232","6.171655","5.145239","-1.342236","3.356787","-1.57312","2.499048","2.875879","-1.012061"
"Z","1617451822.4105487","7","-3","-17","63","56","26","0.852112","-0.004456","-0.395691","-0.342529","-0.160305","-0.045802","-1.076336","5.293579","5.59624","5.737402","-1.344629","3.013452","-0.99292","1.82793","2.808887","-0.797925"
"Z","1617451822.4006896","7","1","-19","63","55","26","0.859009","-0.010559","-0.394836","-0.325745","-0.221374","-0.099237","-1.167939","5.126099","4.950244","6.424072","-1.588672","2.606714","-0.318213","0.937891","2.83999","-0.683081"
"Z","1617451822.3907366","7","0","-17","63","52","26","0.866211","-0.016357","-0.393494","-0.307434","-0.206107","-0.167939","-1.21374","4.874878","4.015943","7.079638","-1.903296","1.922436","0.319409","-0.119629","2.633032","-0.685474"
"Z","1617451822.3805194","7","-3","-16","63","55","26","0.873596","-0.022461","-0.391235","-0.288635","-0.129771","-0.251908","-1.229008","4.646387","2.801709","7.579688","-2.178442","0.972583","0.788355","-1.168774","2.077954","-0.789551"
"Z","1617451822.3706715","7","0","-17","62","54","24","0.880798","-0.029114","-0.387695","-0.270203","-0.038168","-0.305344","-1.221374","4.459765","1.45708","7.832105","-2.386597","-0.093311","0.994116","-2.030102","1.260889","-0.988135"
"Z","1617451822.360621","7","0","-19","62","54","26","0.887695","-0.036255","-0.383301","-0.252502","0.015267","-0.305344","-1.206107","4.349707","0.126807","8.019922","-2.497852","-1.138867","1.124512","-2.731128","0.349316","-1.100586"
"Z","1617451822.3506048","7","-1","-17","63","55","25","0.89386","-0.043335","-0.378967","-0.235474","0.007634","-0.251908","-1.175573","4.309033","-0.979761","8.274732","-2.530151","-1.969092","1.326685","-3.287402","-0.421094","-1.024023"
"Z","1617451822.3408546","7","1","-19","63","55","24","0.89917","-0.049683","-0.375671","-0.218872","-0.038168","-0.175573","-1.152672","4.326978","-1.861426","8.573804","-2.506226","-2.597144","1.587476","-3.715674","-1.039575","-0.811084"
"Z","1617451822.3305728","7","1","-20","63","57","26","0.903442","-0.055115","-0.37384","-0.202271","-0.099237","-0.076336","-1.137405","4.439429","-2.502637","8.844165","-2.39856","-3.008667","1.843481","-3.95852","-1.503735","-0.512012"
"Z","1617451822.320746","7","0","-17","63","55","26","0.906799","-0.059692","-0.37384","-0.185547","-0.137405","0.015267","-1.122137","4.695435","-2.93689","9.042749","-2.165283","-3.234766","2.050439","-3.988428","-1.849463","-0.150732"
"Z","1617451822.3106165","7","-1","-17","62","54","25","0.90918","-0.063599","-0.375305","-0.168884","-0.183206","0.083969","-1.061069","5.066284","-3.244336","9.100171","-1.831519","-3.353198","2.138965","-3.81377","-2.141357","0.192603"
"Z","1617451822.300733","7","-1","-12","62","56","25","0.910889","-0.066406","-0.377441","-0.152954","-0.221374","0.091603","-0.969466","5.359375","-3.396265","8.985327","-1.577905","-3.341235","2.063599","-3.529053","-2.306445","0.35769"
"Z","1617451822.2905908","7","0","-18","63","52","25","0.912231","-0.067749","-0.379578","-0.138245","-0.274809","0.091603","-0.877863","5.402442","-3.356787","8.78435","-1.567139","-3.173755","1.898511","-3.298169","-2.274146","0.277539"
"Z","1617451822.280635","7","1","-19","62","54","26","0.91333","-0.067749","-0.381714","-0.124451","-0.328244","0.083969","-0.793893","5.285205","-3.164185","8.582178","-1.713086","-2.88186","1.727441","-3.140259","-2.086328","0.066992"
"Z","1617451822.2706778","7","-1","-19","44","55","25","0.914185","-0.066772","-0.38385","-0.111511","-0.351145","0.076336","-0.725191","5.112939","-2.945264","8.381201","-1.910474","-2.587573","1.556372","-3.029004","-1.884155","-0.19021"
"Z","1617451822.260736","7","2","-19","63","57","26","0.914795","-0.065369","-0.385986","-0.099365","-0.343511","0.076336","-0.648855","4.917944","-2.844775","8.10127","-2.129395","-2.423682","1.305151","-2.920142","-1.818359","-0.521582"
"Z","1617451822.2508206","7","0","-16","63","55","26","0.915039","-0.063904","-0.388306","-0.088318","-0.305344","0.10687","-0.587786","4.846167","-2.924927","7.767505","-2.22749","-2.45","1.00249","-2.739502","-1.955933","-0.796728"
"Z","1617451822.241055","7","1","-17","63","26","26","0.914856","-0.062683","-0.391113","-0.078369","-0.267176","0.160305","-0.534351","4.947852","-3.0625","7.413404","-2.160498","-2.538525","0.687866","-2.446411","-2.161694","-0.959424"
"Z","1617451822.230625","7","0","-17","63","56","26","0.914062","-0.061584","-0.394836","-0.069336","-0.251908","0.244275","-0.473282","5.219409","-3.172559","7.06648","-1.937988","-2.605518","0.395972","-2.054028","-2.342334","-0.994116"
"Z","1617451822.2206671","7","1","-19","62","55","24","0.912598","-0.06012","-0.399658","-0.061279","-0.274809","0.320611","-0.419847","5.639307","-3.184521","6.778174","-1.581494","-2.588769","0.179443","-1.607813","-2.420093","-0.88645"
"Z","1617451822.2106326","7","-3","-20","62","55","25","0.910767","-0.057739","-0.405273","-0.053772","-0.328244","0.374046","-0.374046","6.062793","-3.031396","6.581983","-1.232178","-2.42727","0.065796","-1.219019","-2.323193","-0.723755"
"Z","1617451822.2006462","7","1","-18","63","54","26","0.908691","-0.054443","-0.411316","-0.046387","-0.381679","0.381679","-0.351145","6.340332","-2.740698","6.461157","-1.03479","-2.144946","0.034692","-0.982153","-2.076758","-0.624463"
"Z","1617451822.1906934","7","-3","-17","63","52","16","0.906494","-0.050415","-0.417358","-0.039001","-0.40458","0.374046","-0.328244","6.467139","-2.453589","6.382202","-0.985742","-1.875781","0.045459","-0.884058","-1.825537","-0.608911"
"Z","1617451822.1808102","7","-1","-19","63","55","25","0.904297","-0.046265","-0.423157","-0.031738","-0.389313","0.358779","-0.312977","6.576001","-2.307642","6.346313","-0.952246","-1.750171","0.098096","-0.852954","-1.710693","-0.569434"
"Z","1617451822.1707602","7","-1","-19","63","56","25","0.9021","-0.042847","-0.428711","-0.02478","-0.305344","0.328244","-0.305344","6.613086","-2.39856","6.256592","-0.986938","-1.848267","0.094507","-0.845776","-1.821948","-0.601733"
"Z","1617451822.1608193","7","1","-17","63","54","25","0.899902","-0.040833","-0.433716","-0.018555","-0.19084","0.29771","-0.290076","6.587964","-2.777783","6.053223","-1.07666","-2.214331","-0.026318","-0.801514","-2.209546","-0.730933"
"Z","1617451822.1508584","7","1","-19","63","55","25","0.897766","-0.040222","-0.438354","-0.013306","-0.091603","0.29771","-0.274809","6.645386","-3.310132","5.781665","-1.077856","-2.715576","-0.218921","-0.650781","-2.735913","-0.818262"
"Z","1617451822.1409037","7","0","-18","63","54","26","0.895508","-0.040466","-0.442993","-0.009094","-0.053435","0.312977","-0.259542","6.817651","-3.779077","5.498145","-0.964209","-3.147437","-0.42229","-0.413916","-3.18811","-0.817065"
"Z","1617451822.1306252","7","0","-16","64","57","26","0.893127","-0.040344","-0.447937","-0.005493","-0.076336","0.358779","-0.251908","7.178931","-3.95852","5.400049","-0.666333","-3.299365","-0.434253","-0.202173","-3.338843","-0.569434"
"Z","1617451822.1207929","7","-1","-19","63","51","25","0.890442","-0.039734","-0.453247","-0.001831","-0.10687","0.381679","-0.251908","7.54978","-3.811377","5.445508","-0.361279","-3.133081","-0.295483","-0.096899","-3.155811","-0.247632"
"Z","1617451822.1105976","7","-1","-19","60","57","26","0.887695","-0.038696","-0.45874","0.002136","-0.129771","0.389313","-0.244275","7.844068","-3.658252","5.507715","-0.135181","-2.9656","-0.137573","-0.059814","-2.970386","0.019141"
"Z","1617451822.10075","7","1","-19","63","54","25","0.884888","-0.037598","-0.464294","0.006042","-0.114504","0.366412","-0.229008","8.066577","-3.557764","5.580688","0.017944","-2.84956","0.0323","-0.084937","-2.837598","0.238062"
"Z","1617451822.0908384","7","-1","-18","62","54","26","0.882202","-0.036682","-0.46936","0.009583","-0.091603","0.335878","-0.198473","8.10127","-3.564941","5.529248","-0.007178","-2.842383","0.072974","-0.113647","-2.83042","0.244043"
"Z","1617451822.08073","7","0","-18","63","55","26","0.8797","-0.036011","-0.473999","0.012512","-0.061069","0.305344","-0.167939","8.100073","-3.606812","5.465845","-0.063403","-2.868701","0.094507","-0.14834","-2.857934","0.214136"
"Z","1617451822.0706935","7","0","-18","63","54","25","0.87738","-0.0354","-0.47821","0.014771","-0.045802","0.274809","-0.137405","8.011548","-3.60083","5.358179","-0.200977","-2.853149","0.0646","-0.185425","-2.853149","0.08374"
"Z","1617451822.0607638","7","-1","-20","62","52","26","0.875305","-0.034546","-0.481995","0.016296","-0.045802","0.244275","-0.091603","7.863208","-3.464453","5.239746","-0.394775","-2.716773","0.016748","-0.238062","-2.732324","-0.11604"
"Z","1617451822.050691","7","0","-17","62","55","25","0.873413","-0.033325","-0.485535","0.017151","-0.045802","0.221374","-0.045802","7.714868","-3.207251","5.108154","-0.584985","-2.472729","-0.049048","-0.272754","-2.503833","-0.336157"
"Z","1617451822.0408971","7","2","-18","63","55","26","0.871582","-0.031738","-0.488892","0.017395","-0.045802","0.221374","0.007634","7.585669","-2.918945","4.896411","-0.754858","-2.209546","-0.198584","-0.224902","-2.257397","-0.584985"
"Z","1617451822.0308738","7","2","-17","63","55","23","0.86969","-0.029907","-0.492432","0.016907","-0.038168","0.244275","0.061069","7.558154","-2.618677","4.653564","-0.825439","-1.945166","-0.375635","-0.101685","-2.001392","-0.764429"
"Z","1617451822.020645","7","-5","-21","63","54","24","0.867554","-0.027893","-0.496277","0.015625","-0.022901","0.274809","0.10687","7.663428","-2.319604","4.409522","-0.765625","-1.692749","-0.546704","0.081348","-1.748975","-0.826636"
"Z","1617451822.01063","7","0","-19","63","55","25","0.865234","-0.025696","-0.500549","0.013794","-0.022901","0.312977","0.129771","7.816553","-1.99541","4.196582","-0.66394","-1.423584","-0.679492","0.25481","-1.473828","-0.829028"
"Z","1617451822.0009398","7","2","-19","63","54","26","0.862671","-0.023254","-0.505066","0.011597","-0.038168","0.335878","0.152672","7.980444","-1.571924","4.049438","-0.553882","-1.063501","-0.739307","0.369653","-1.106567","-0.788355"
"Z","1617451821.9909518","7","-5","-19","63","54","24","0.859924","-0.020569","-0.509949","0.009399","-0.053435","0.358779","0.175573","8.164673","-1.068286","4.01355","-0.425879","-0.626855","-0.680689","0.388794","-0.659155","-0.671118"
"Z","1617451821.980685","7","-1","-18","63","55","26","0.857056","-0.0177","-0.514832","0.00708","-0.061069","0.351145","0.206107","8.344116","-0.620874","4.006372","-0.301465","-0.251221","-0.590967","0.378027","-0.272754","-0.533545"
"Z","1617451821.9708676","7","1","-17","63","52","26","0.854248","-0.014709","-0.519592","0.004456","-0.053435","0.312977","0.221374","8.487671","-0.208154","4.019531","-0.210547","0.082544","-0.483301","0.332568","0.066992","-0.410327"
"Z","1617451821.9609988","7","-1","-17","63","57","24","0.851746","-0.011841","-0.523804","0.001648","-0.045802","0.259542","0.236641","8.524755","0.163892","3.964502","-0.218921","0.378027","-0.45459","0.309839","0.366064","-0.407935"
"Z","1617451821.9507594","7","-3","-17","63","57","26","0.84967","-0.009216","-0.527222","-0.001343","-0.030534","0.206107","0.251908","8.496045","0.449805","3.831714","-0.283521","0.588574","-0.517993","0.344531","0.576611","-0.491675"
"Z","1617451821.9409502","7","1","-16","63","54","25","0.847961","-0.006714","-0.529968","-0.004578","-0.030534","0.160305","0.244275","8.468531","0.716577","3.7073","-0.339746","0.77998","-0.586182","0.388794","0.77041","-0.567041"
"Z","1617451821.930823","7","0","-20","63","55","24","0.846619","-0.004456","-0.532104","-0.007568","-0.022901","0.137405","0.221374","8.441015","0.95105","3.582886","-0.388794","0.945068","-0.666333","0.447412","0.936694","-0.637622"
"Z","1617451821.9207537","7","16","-20","63","54","26","0.84552","-0.002686","-0.533875","-0.010254","-0.007634","0.129771","0.183206","8.492456","1.100586","3.523071","-0.355298","1.037183","-0.690259","0.490479","1.031201","-0.610107"
"Z","1617451821.910764","7","-3","-19","63","55","24","0.844421","-0.001587","-0.535522","-0.012451","0.015267","0.129771","0.152672","8.627637","1.136475","3.548193","-0.235669","1.031201","-0.630444","0.492871","1.02522","-0.470142"
"Z","1617451821.9008474","7","-3","-17","63","52","26","0.843384","-0.001099","-0.537109","-0.014343","0.030534","0.122137","0.129771","8.781958","1.061108","3.609204","-0.096899","0.927124","-0.535937","0.467749","0.91875","-0.301465"
"Z","1617451821.8909392","7","0","-20","63","55","26","0.842346","-0.000916","-0.538635","-0.016174","0.038168","0.114504","0.10687","8.889624","0.982153","3.671411","-0.002393","0.825439","-0.441431","0.42229","0.815869","-0.173462"
"Z","1617451821.8805854","7","-1","-17","63","54","25","0.841431","-0.000732","-0.540039","-0.017761","0.015267","0.10687","0.091603","8.968579","0.982153","3.762329","0.061011","0.805103","-0.320605","0.340942","0.795532","-0.063403"
"Z","1617451821.8708117","7","0","-19","63","54","26","0.840698","-0.000305","-0.541199","-0.018921","-0.015267","0.068702","0.076336","9.005664","1.052734","3.871192","0.087329","0.856543","-0.187817","0.234473","0.848169","0.017944"
"Z","1617451821.8608282","7","-1","-20","63","54","23","0.84021","0.000305","-0.541931","-0.019592","-0.030534","0.015267","0.061069","8.894409","1.123315","3.92981","-0.029907","0.90918","-0.113647","0.119629","0.906787","-0.053833"
"Z","1617451821.850658","7","1","-18","63","54","24","0.840149","0.000732","-0.541992","-0.019958","-0.015267","-0.030534","0.053435","8.662329","1.091016","3.899902","-0.261987","0.866113","-0.142358","0.049048","0.870898","-0.276343"
"Z","1617451821.8407829","7","-1","-19","63","54","26","0.840393","0.000854","-0.541626","-0.020325","0.007634","-0.038168","0.038168","8.499634","0.931909","3.812573","-0.421094","0.701025","-0.236865","0.0646","0.709399","-0.46416"
"Z","1617451821.830743","7","-3","-19","63","57","26","0.840637","0.00061","-0.541199","-0.020813","0.022901","-0.015267","0.030534","8.52356","0.756055","3.768311","-0.392383","0.525171","-0.290698","0.119629","0.532349","-0.46416"
"Z","1617451821.820804","7","-3","-17","62","55","25","0.840637","0.000244","-0.541138","-0.02124","0.030534","0.007634","0.015267","8.659937","0.624463","3.786255","-0.256006","0.394775","-0.272754","0.155518","0.397168","-0.336157"
"Z","1617451821.8110042","7","-3","-19","63","56","25","0.840576","-0.000305","-0.54126","-0.021606","0.022901","0.022901","0","8.761621","0.50603","3.812573","-0.155518","0.281128","-0.245239","0.168677","0.279932","-0.235669"
"Z","1617451821.8007252","7","-1","-19","61","56","26","0.840393","-0.000793","-0.541565","-0.021729","0.015267","0.030534","-0.007634","8.880054","0.43186","3.896313","-0.040674","0.214136","-0.154321","0.131592","0.210547","-0.095703"
"Z","1617451821.7916942","7","-1","-19","62","54","26","0.840149","-0.00116","-0.54187","-0.021667","0","0.015267","-0.015267","8.924316","0.38042","3.980054","0","0.168677","-0.063403","0.063403","0.166284","-0.021533"
"Z","1617451821.780798","7","-3","-20","62","53","24","0.840088","-0.001404","-0.541931","-0.021484","-0.007634","-0.015267","-0.015267","8.850146","0.351709","4.030298","-0.072974","0.145947","-0.011963","-0.013159","0.147144","-0.068188"
"Z","1617451821.77094","7","0","-17","63","57","25","0.840271","-0.001343","-0.541687","-0.021301","-0.022901","-0.038168","-0.007634","8.71377","0.366064","4.04585","-0.206958","0.161499","-0.001196","-0.077759","0.16748","-0.185425"
"Z","1617451821.761458","7","0","-19","63","56","26","0.840576","-0.001099","-0.54126","-0.021118","-0.022901","-0.038168","0","8.634814","0.417505","4.056616","-0.282324","0.210547","0","-0.108862","0.218921","-0.252417"
"Z","1617451821.7514515","7","-1","-20","63","54","26","0.84082","-0.000854","-0.540894","-0.020935","-0.015267","-0.030534","0.007634","8.665918","0.460571","4.088916","-0.247632","0.252417","0.022729","-0.113647","0.260791","-0.209351"
"Z","1617451821.7415483","7","-3","-17","63","54","26","0.841003","-0.000671","-0.540649","-0.020996","-0.007634","-0.022901","0.015267","8.68147","0.443823","4.075757","-0.229687","0.23208","0.003589","-0.089722","0.239258","-0.202173"
"Z","1617451821.7314136","7","-1","-19","60","57","26","0.841125","-0.000488","-0.540405","-0.021118","-0.015267","-0.015267","0.015267","8.698217","0.440234","4.06499","-0.210547","0.223706","-0.010767","-0.069385","0.229687","-0.19021"
"Z","1617451819.9937308","7","6","-12","63","55","23","0.896484","0.145325","-0.295654","-0.296265","-0.030534","-0.091603","-0.114504","3.975269","10.472315","6.670508","-0.375635","6.201562","-1.001294","3.134277","5.167969","1.751367"
"Z","1617451819.9835851","7","6","-13","63","55","26","0.898254","0.142761","-0.294128","-0.293579","0.045802","-0.099237","-0.206107","3.816162","10.346704","6.543701","-0.540723","6.140552","-1.1604","3.079248","5.258887","1.482202"
"Z","1617451819.973545","7","5","-17","62","56","26","0.900574","0.138489","-0.292786","-0.289856","0.099237","-0.061069","-0.305344","3.950146","9.99021","6.409717","-0.430664","5.882154","-1.332666","3.118726","5.032788","1.219019"
"Z","1617451819.9635594","7","6","-15","63","56","26","0.903198","0.133301","-0.291809","-0.285095","0.091603","-0.038168","-0.381679","4.252808","9.686353","6.354688","-0.16748","5.695532","-1.427173","3.238354","4.771997","1.110156"
"Z","1617451819.9535654","7","3","-16","61","56","26","0.906006","0.128052","-0.291077","-0.279175","0.053435","-0.053435","-0.465649","4.452588","9.491358","6.407324","-0.015552","5.623755","-1.409229","3.258691","4.669116","1.087427"
"Z","1617451819.9434905","7","5","-15","61","57","26","0.909302","0.122986","-0.2901","-0.271851","0.022901","-0.099237","-0.557252","4.414307","9.180323","6.487475","-0.100488","5.441919","-1.366162","3.044556","4.618872","0.933105"
"Z","1617451819.933624","7","4","-16","60","57","26","0.913086","0.117981","-0.288513","-0.262817","0.007634","-0.160305","-0.664122","4.192993","8.665918","6.604712","-0.362476","5.067481","-1.2896","2.593555","4.506421","0.651978"
"Z","1617451819.923518","7","4","-15","63","55","26","0.917419","0.112732","-0.286499","-0.252014","0.007634","-0.206107","-0.770992","3.951343","7.894311","6.786548","-0.642407","4.451392","-1.154419","1.987036","4.182227","0.326587"
"Z","1617451819.9136128","7","4","-15","62","56","24","0.92218","0.107178","-0.284119","-0.239441","0.015267","-0.259542","-0.885496","3.849658","6.948047","7.007861","-0.782373","3.677392","-0.98335","1.398462","3.624756","0.055029"
"Z","1617451819.903678","7","4","-15","63","57","26","0.927307","0.101379","-0.28125","-0.225037","0.015267","-0.305344","-1","3.859229","5.961108","7.257886","-0.805103","2.877075","-0.788355","0.887646","2.95603","-0.124414"
"Z","1617451819.8935664","7","5","-18","62","56","24","0.932678","0.095642","-0.277893","-0.208923","-0.007634","-0.343511","-1.091603","3.931006","4.989722","7.571313","-0.757251","2.103076","-0.534741","0.43186","2.249023","-0.184229"
"Z","1617451819.8836095","7","4","-12","62","57","26","0.93811","0.090393","-0.27417","-0.191406","-0.038168","-0.366412","-1.152672","3.989624","4.124804","7.986426","-0.711792","1.433154","-0.179443","-0.00957","1.606616","-0.096899"
"Z","1617451819.8734732","7","5","-19","60","56","25","0.943298","0.085693","-0.269897","-0.173035","-0.061069","-0.40458","-1.183206","3.834106","3.34602","8.388379","-0.864917","0.845776","0.160303","-0.535937","1.093408","-0.063403"
"Z","1617451819.8636608","7","3","-16","61","52","80","0.948303","0.081421","-0.265137","-0.154114","-0.053435","-0.419847","-1.175573","3.45249","2.522974","8.753247","-1.228589","0.208154","0.460571","-1.187915","0.573022","-0.147144"
"Z","1617451819.853705","7","6","-15","61","52","26","0.95282","0.077148","-0.260315","-0.135437","-0.022901","-0.412214","-1.137405","2.964404","1.559961","9.069067","-1.691553","-0.571826","0.714185","-1.893726","-0.093311","-0.318213"
"Z","1617451819.8437378","7","4","-15","61","54","26","0.956726","0.072815","-0.255859","-0.117615","0.015267","-0.381679","-1.083969","2.534936","0.497656","9.310718","-2.094702","-1.45708","0.898413","-2.490674","-0.922339","-0.508423"
"Z","1617451819.8339248","7","8","-12","63","55","26","0.9599","0.068542","-0.252258","-0.100891","0.045802","-0.335878","-1.030534","2.34353","-0.376831","9.465039","-2.265771","-2.164087","1.004883","-2.775391","-1.662842","-0.593359"
"Z","1617451819.8237357","7","5","-38","63","56","25","0.962463","0.064453","-0.24939","-0.085083","0.061069","-0.282443","-1","2.392578","-0.937891","9.528442","-2.203564","-2.569629","1.028809","-2.740698","-2.162891","-0.568237"
"Z","1617451819.8135867","7","6","-15","62","56","27","0.964478","0.060242","-0.247375","-0.069946","0.076336","-0.229008","-0.961832","2.601929","-1.39248","9.539209","-1.990625","-2.869897","1.009668","-2.518188","-2.574414","-0.48689"
"Z","1617451819.8037536","7","5","-15","62","56","26","0.966003","0.056274","-0.246033","-0.055542","0.068702","-0.175573","-0.923664","2.855542","-1.770508","9.490161","-1.740601","-3.103174","0.939087","-2.21792","-2.90459","-0.418701"
"Z","1617451819.7937362","7","4","-15","62","56","26","0.967163","0.052734","-0.245117","-0.041809","0.053435","-0.145038","-0.877863","3.021826","-2.010962","9.423169","-1.581494","-3.21084","0.85415","-1.970288","-3.081641","-0.388794"
"Z","1617451819.7838247","7","4","-15","62","56","26","0.967957","0.049622","-0.244507","-0.028687","0.038168","-0.122137","-0.832061","3.147437","-2.249023","9.376513","-1.463062","-3.32688","0.795532","-1.768115","-3.25271","-0.35769"
"Z","1617451819.7736886","7","7","-15","61","55","26","0.968506","0.046997","-0.243896","-0.016418","0.015267","-0.122137","-0.778626","3.171362","-2.463159","9.320288","-1.442725","-3.43335","0.729736","-1.646094","-3.397461","-0.379224"
"Z","1617451819.76371","7","8","-17","63","57","26","0.968933","0.044922","-0.243103","-0.004822","0","-0.122137","-0.725191","3.0625","-2.660547","9.30354","-1.549194","-3.536231","0.701025","-1.652075","-3.532642","-0.429468"
"Z","1617451819.7536864","7","5","-12","60","55","25","0.969177","0.043274","-0.24231","0.006042","-0.007634","-0.122137","-0.671756","2.960815","-2.910571","9.320288","-1.646094","-3.703711","0.708203","-1.662842","-3.734814","-0.451001"
"Z","1617451819.7437837","7","3","-11","60","52","26","0.969299","0.042053","-0.241638","0.015991","-0.022901","-0.114504","-0.618321","2.976367","-3.186914","9.393262","-1.626953","-3.909473","0.771606","-1.594653","-3.978858","-0.373242"
"Z","1617451819.7337933","7","5","-16","61","56","26","0.969299","0.041138","-0.241028","0.025146","-0.015267","-0.10687","-0.564885","3.084033","-3.471631","9.505713","-1.514502","-4.134375","0.87688","-1.460669","-4.238452","-0.217725"
"Z","1617451819.7235453","7","4","-15","62","54","25","0.969238","0.040222","-0.240356","0.033508","0.007634","-0.099237","-0.519084","3.206055","-3.895117","9.654053","-1.385303","-4.50044","1.018042","-1.313525","-4.634424","-0.029907"
"Z","1617451819.7137957","7","4","-17","61","53","25","0.969116","0.039307","-0.239807","0.041016","0.022901","-0.083969","-0.473282","3.323291","-4.382007","9.886133","-1.263281","-4.934692","1.244141","-1.202271","-5.097388","0.226099"
"Z","1617451819.7038686","7","6","-15","61","55","25","0.968933","0.038574","-0.239441","0.047668","0.030534","-0.068702","-0.412214","3.386694","-4.830615","10.192383","-1.196289","-5.339038","1.545605","-1.172363","-5.537622","0.526367"
"Z","1617451819.693642","7","6","-15","61","55","26","0.96875","0.038391","-0.239136","0.053284","0.022901","-0.061069","-0.351145","3.403442","-5.208642","10.527344","-1.177148","-5.687158","1.876978","-1.205859","-5.92522","0.827832"
"Z","1617451819.6840792","7","3","-36","67","52","26","0.968506","0.038818","-0.238892","0.057739","0.007634","-0.053435","-0.274809","3.365161","-5.46106","10.869482","-1.213037","-5.926416","2.21792","-1.309937","-6.20874","1.10896"
"Z","1617451819.6736455","7","3","-15","62","56","26","0.968323","0.040039","-0.238708","0.061035","-0.007634","-0.053435","-0.19084","3.296973","-5.607007","11.203247","-1.281226","-6.080737","2.551685","-1.45708","-6.414502","1.358984"
"Z","1617451819.6639595","7","5","-15","62","55","26","0.96814","0.04187","-0.238647","0.063049","-0.015267","-0.045802","-0.10687","3.22998","-5.668017","11.474805","-1.349414","-6.16687","2.825635","-1.599438","-6.54729","1.547998"
"Z","1617451819.6535542","7","3","-16","62","55","26","0.967957","0.044067","-0.238831","0.063843","0","-0.022901","-0.030534","3.170166","-5.701514","11.690137","-1.41521","-6.238647","3.045752","-1.729834","-6.660937","1.681982"
"Z","1617451819.6439545","7","3","-13","61","53","25","0.967712","0.046326","-0.239441","0.063293","0.030534","0.007634","0.045802","3.166577","-5.77688","11.861206","-1.431958","-6.358276","3.226392","-1.812378","-6.809278","1.792041"
"Z","1617451819.6336486","7","7","-12","62","54","26","0.967407","0.048401","-0.240784","0.061401","0.076336","0.053435","0.114504","3.27544","-5.859424","12.016724","-1.348218","-6.486279","3.398657","-1.821948","-6.954028","1.936792"
"Z","1617451819.6237624","7","4","-16","63","52","24","0.96698","0.050293","-0.242737","0.058289","0.114504","0.091603","0.183206","3.445312","-5.931201","12.135157","-1.211841","-6.605908","3.539819","-1.79563","-7.077246","2.071973"
"Z","1617451819.6145103","7","3","-12","63","56","24","0.966553","0.05188","-0.245178","0.053833","0.160305","0.122137","0.251908","3.55896","-5.964697","12.214111","-1.140064","-6.688452","3.645093","-1.836304","-7.164575","2.144946"
"Z","1617451819.6044257","7","4","-16","62","56","26","0.966064","0.053223","-0.248047","0.048096","0.19084","0.152672","0.320611","3.63313","-5.94436","12.306226","-1.113745","-6.717163","3.767114","-1.955933","-7.198071","2.211938"
"Z","1617451819.5937448","7","6","-14","61","57","26","0.965515","0.054688","-0.251099","0.041077","0.206107","0.160305","0.396947","3.612793","-5.774487","12.429443","-1.181934","-6.607104","3.923828","-2.207153","-7.101172","2.264575"
"Z","1617451819.5838156","7","5","-15","61","55","26","0.964905","0.056335","-0.254211","0.032715","0.206107","0.160305","0.48855","3.47522","-5.42876","12.523951","-1.368555","-6.330762","4.053027","-2.580395","-6.830811","2.243042"
"Z","1617451819.5737736","7","6","-17","61","56","26","0.964294","0.058472","-0.257202","0.023071","0.198473","0.160305","0.572519","3.24314","-4.914355","12.590942","-1.643701","-5.90249","4.154712","-3.033789","-6.396558","2.160498"
"Z","1617451819.563593","7","3","-17","62","55","26","0.963501","0.060974","-0.260315","0.012207","0.19084","0.175573","0.641221","2.947656","-4.293481","12.601709","-1.982251","-5.382104","4.202563","-3.51709","-5.843872","2.004981"
"Z","1617451819.5545404","7","5","-16","63","54","25","0.962463","0.063477","-0.263855","0.000305","0.206107","0.21374","0.709924","2.732324","-3.663037","12.583765","-2.245435","-4.85813","4.226489","-3.913062","-5.261279","1.8698"
"Z","1617451819.544492","7","2","-17","65","55","23","0.960999","0.065857","-0.268188","-0.012695","0.236641","0.267176","0.770992","2.650977","-3.046948","12.466528","-2.383008","-4.353296","4.160693","-4.142749","-4.669116","1.720264"
"Z","1617451819.534431","7","4","-17","62","55","26","0.959106","0.067688","-0.273438","-0.026733","0.282443","0.335878","0.832061","2.635425","-2.469141","12.229663","-2.469141","-3.884351","3.984839","-4.2552","-4.082934","1.504932"
"Z","1617451819.5236273","7","7","-14","60","55","26","0.956665","0.06897","-0.279663","-0.041931","0.312977","0.419847","0.89313","2.70481","-1.915259","11.917432","-2.4823","-3.438135","3.743188","-4.252808","-3.503931","1.272852"
"Z","1617451819.5144992","7","5","-17","60","56","26","0.953552","0.070007","-0.286987","-0.058289","0.320611","0.48855","0.961832","2.790942","-1.250122","11.550171","-2.49187","-2.885449","3.460864","-4.1906","-2.805298","1.031201"
"Z","1617451819.5125904","7","5","-17","63","56","26","0.949768","0.071106","-0.295105","-0.075684","0.305344","0.541985","1.030534","2.842383","-0.417505","11.1219","-2.544507","-2.178442","3.128296","-4.080542","-1.940381","0.76084"
"Z","1617451819.5113547","7","2","-16","60","54","26","0.945312","0.072693","-0.303711","-0.094055","0.267176","0.572519","1.091603","2.856738","0.515601","10.670898","-2.635425","-1.390088","2.781372","-3.922632","-0.988135","0.490479"
"Z","1617451819.4845445","7","1","-16","58","52","25","0.940247","0.074707","-0.312317","-0.113098","0.221374","0.580153","1.145038","2.767017","1.533643","10.205542","-2.822046","-0.534741","2.426074","-3.752759","0.046655","0.202173"
"Z","1617451819.473699","7","4","-13","62","56","26","0.934631","0.077271","-0.320923","-0.132324","0.175573","0.587786","1.175573","2.644995","2.522974","9.762915","-3.032593","0.27395","2.098291","-3.548193","1.035986","-0.052637"
"Z","1617451819.4640062","7","3","-16","61","51","26","0.928467","0.080078","-0.329468","-0.151489","0.145038","0.580153","1.167939","2.522974","3.448901","9.34541","-3.234766","1.013257","1.798023","-3.295776","1.946362","-0.263184"
"Z","1617451819.4544427","7","5","-16","61","55","25","0.921936","0.082703","-0.337952","-0.170105","0.137405","0.59542","1.137405","2.441626","4.234863","8.907568","-3.389087","1.612598","1.47981","-2.9656","2.694043","-0.462964"
"Z","1617451819.4444957","7","3","-15","62","54","25","0.9151","0.084656","-0.346558","-0.187927","0.152672","0.625954","1.10687","2.525366","4.809082","8.485278","-3.37832","2.013355","1.179541","-2.538525","3.172559","-0.581396"
"Z","1617451819.4346972","7","4","-15","60","56","26","0.907776","0.085938","-0.355591","-0.205261","0.152672","0.671756","1.083969","2.767017","5.254102","8.058203","-3.213233","2.293286","0.880469","-2.014551","3.450098","-0.623267"
"Z","1617451819.42391","7","5","-16","62","54","26","0.899902","0.087036","-0.36499","-0.22229","0.145038","0.70229","1.076336","3.123511","5.723047","7.596436","-2.934497","2.597144","0.555078","-1.374536","3.664233","-0.586182"
"Z","1617451819.4146204","7","3","-17","61","54","24","0.891602","0.088135","-0.374329","-0.239075","0.122137","0.694656","1.061069","3.371143","6.308032","7.067676","-2.75625","3.013452","0.166284","-0.699829","3.982446","-0.593359"
"Z","1617451819.4043615","7","4","-16","62","55","25","0.883179","0.089355","-0.383179","-0.25531","0.10687","0.664122","1.038168","3.441724","6.913354","6.488672","-2.743091","3.448901","-0.276343","-0.061011","4.358081","-0.702222"
"Z","1617451819.3938675","7","5","-16","62","56","26","0.874756","0.090332","-0.391418","-0.270874","0.091603","0.641221","1.022901","3.481201","7.401441","5.919238","-2.749072","3.774292","-0.716577","0.544312","4.616479","-0.836206"
"Z","1617451819.3846476","7","3","-16","60","53","26","0.866333","0.091431","-0.39917","-0.285889","0.061069","0.625954","1","3.608008","7.780664","5.423975","-2.656958","3.99082","-1.088623","1.11853","4.705005","-0.878076"
"Z","1617451819.374578","7","5","-15","63","56","28","0.857849","0.092651","-0.406616","-0.300171","0.030534","0.610687","0.946565","3.775488","8.182617","4.990918","-2.515796","4.232471","-1.398462","1.683179","4.762427","-0.820654"
"Z","1617451819.3645847","7","4","-15","60","57","26","0.849548","0.093933","-0.413818","-0.313354","0","0.59542","0.885496","3.946558","8.572607","4.582983","-2.36626","4.466943","-1.686768","2.225098","4.786353","-0.732129"
"Z","1617451819.3544495","7","3","-17","60","52","26","0.841431","0.095154","-0.420776","-0.325378","-0.022901","0.572519","0.824427","4.088916","8.871679","4.173852","-2.243042","4.618872","-1.977466","2.707202","4.739697","-0.685474"
"Z","1617451819.344527","7","4","-12","61","54","42","0.83374","0.096008","-0.427307","-0.336182","-0.022901","0.557252","0.748092","4.201367","9.051123","3.80061","-2.148535","4.665527","-2.238257","3.093604","4.620069","-0.684277"
"Z","1617451819.3345962","7","4","-16","62","55","26","0.826538","0.096252","-0.433411","-0.346008","-0.007634","0.534351","0.687023","4.275537","9.073853","3.447705","-2.092309","4.574609","-2.488281","3.377124","4.414307","-0.766821"
"Z","1617451819.3243828","7","4","-16","60","54","25","0.819641","0.096069","-0.439148","-0.355042","0","0.51145","0.641221","4.441821","9.018824","3.160596","-1.94397","4.419092","-2.677295","3.604419","4.104468","-0.787158"
"Z","1617451819.3144884","7","5","-17","61","55","25","0.813171","0.095825","-0.444397","-0.363403","-0.015267","0.480916","0.59542","4.632031","8.996094","2.903394","-1.768115","4.303052","-2.844775","3.828125","3.806592","-0.762036"
"Z","1617451819.304666","7","4","-17","62","54","26","0.807007","0.095581","-0.449402","-0.370972","-0.038168","0.458015","0.534351","4.859326","9.02002","2.71438","-1.55398","4.239648","-2.947656","4.021924","3.530249","-0.651978"
"Z","1617451819.294588","7","5","-15","61","57","24","0.801392","0.095337","-0.454041","-0.377563","-0.045802","0.427481","0.473282","5.071069","9.034375","2.539722","-1.354199","4.176245","-3.040967","4.187012","3.268262","-0.549097"
"Z","1617451819.2845483","7","3","-16","63","55","26","0.796265","0.094849","-0.458313","-0.38324","-0.038168","0.389313","0.40458","5.240942","8.967382","2.339942","-1.198682","4.043457","-3.165381","4.312622","2.984741","-0.534741"
"Z","1617451819.2744863","7","4","-18","59","57","25","0.791809","0.094116","-0.462097","-0.388123","-0.030534","0.358779","0.351145","5.358179","8.808276","2.106665","-1.096997","3.831714","-3.334058","4.407129","2.679688","-0.628052"
"Z","1617451819.2645595","7","5","-16","62","52","26","0.787903","0.09314","-0.465393","-0.392395","-0.022901","0.328244","0.29771","5.417993","8.63003","1.882959","-1.051538","3.611597","-3.501538","4.470532","2.412915","-0.769214"
"Z","1617451819.2544236","7","4","-15","62","53","26","0.784485","0.092285","-0.468201","-0.396118","-0.038168","0.290076","0.259542","5.410815","8.552271","1.696338","-1.070679","3.497949","-3.640308","4.545898","2.275342","-0.88645"
"Z","1617451819.244434","7","3","-16","62","52","26","0.781433","0.091675","-0.470642","-0.399353","-0.068702","0.267176","0.229008","5.309131","8.687451","1.561157","-1.180737","3.598438","-3.732422","4.672705","2.360278","-0.929517"
"Z","1617451819.2347827","7","6","-19","61","57","25","0.778687","0.091614","-0.473022","-0.401917","-0.10687","0.236641","0.21374","5.150024","9.060694","1.473828","-1.347021","3.935791","-3.775488","4.872485","2.660547","-0.857739"
"Z","1617451819.224414","7","5","-16","61","51","25","0.776123","0.092041","-0.475403","-0.403992","-0.145038","0.21374","0.206107","4.999292","9.613379","1.40564","-1.503735","4.447803","-3.798218","5.151221","3.078052","-0.671118"
"Z","1617451819.214641","7","5","-16","63","53","25","0.773926","0.092651","-0.4776","-0.405457","-0.145038","0.183206","0.175573","4.855737","10.24502","1.311133","-1.652075","5.043555","-3.849658","5.498145","3.542212","-0.447412"
"Z","1617451819.2045124","7","2","-17","62","57","26","0.772217","0.092896","-0.479431","-0.406372","-0.122137","0.145038","0.137405","4.76123","10.798902","1.198682","-1.754956","5.573511","-3.926221","5.836694","3.926221","-0.248828"
"Z","1617451819.1946683","7","5","-17","60","52","25","0.77124","0.092468","-0.480774","-0.406799","-0.10687","0.129771","0.083969","4.710986","11.241529","1.079053","-1.818359","6.010156","-4.021924","6.145337","4.220508","-0.096899"
"Z","1617451819.184684","7","3","-17","60","54","23","0.770935","0.091309","-0.481689","-0.406616","-0.091603","0.10687","0.022901","4.727735","11.631518","1.056323","-1.821948","6.412109","-4.032691","6.376221","4.475317","0.101685"
"Z","1617451819.174691","7","5","-18","61","56","26","0.77124","0.089661","-0.482239","-0.405701","-0.10687","0.068702","-0.045802","4.688257","11.966479","1.080249","-1.887744","6.775781","-4.00398","6.535327","4.767212","0.244043"
"Z","1617451819.16459","7","3","-20","62","55","26","0.772461","0.08783","-0.482361","-0.403625","-0.122137","0.007634","-0.122137","4.557861","12.242823","1.158008","-2.049243","7.096387","-3.92981","6.602319","5.128491","0.303857"
"Z","1617451819.154644","7","5","-16","60","55","26","0.774719","0.085815","-0.481873","-0.40033","-0.129771","-0.061069","-0.206107","4.32937","12.38518","1.254907","-2.313623","7.300952","-3.849658","6.565234","5.505322","0.212939"
"Z","1617451819.1446023","7","4","-20","62","37","21","0.778137","0.083191","-0.480713","-0.39563","-0.114504","-0.10687","-0.305344","4.059009","12.32417","1.398462","-2.627051","7.327271","-3.736011","6.375024","5.822339","-0.014355"
"Z","1617451819.1345878","7","5","-18","59","52","26","0.782471","0.07959","-0.479065","-0.389709","-0.091603","-0.129771","-0.381679","3.883154","12.016724","1.618579","-2.855542","7.135864","-3.557764","6.017334","5.951538","-0.289502"
"Z","1617451819.1247609","7","-20","-16","60","56","26","0.787415","0.075073","-0.477173","-0.382935","-0.068702","-0.137405","-0.465649","3.789844","11.538208","1.882959","-3.009863","6.797315","-3.343628","5.560351","5.931201","-0.583789"
"Z","1617451819.1146927","7","5","-20","63","79","-5","0.792847","0.069763","-0.475281","-0.375061","-0.076336","-0.122137","-0.564885","3.801807","10.992701","2.243042","-3.070874","6.414502","-3.033789","5.014844","5.830713","-0.790747"
"Z","1617451819.1045845","7","3","-16","60","53","24","0.798584","0.063721","-0.473816","-0.365601","-0.099237","-0.122137","-0.687023","3.994409","10.430445","2.72395","-2.964404","6.037671","-2.594751","4.40354","5.648877","-0.807495"
"Z","1617451819.094744","7","4","-19","61","55","26","0.804871","0.057068","-0.472534","-0.35437","-0.10687","-0.167939","-0.80916","4.257593","9.765307","3.22041","-2.799316","5.581885","-2.137769","3.74917","5.371338","-0.80271"
"Z","1617451819.0847638","7","34","-20","62","55","11","0.812134","0.049866","-0.470581","-0.34137","-0.091603","-0.251908","-0.946565","4.443017","8.856128","3.661841","-2.713184","4.913159","-1.748975","3.009863","4.955029","-0.97019"
"Z","1617451819.0745826","7","5","-17","61","55","26","0.820496","0.04187","-0.467346","-0.326538","-0.053435","-0.328244","-1.068702","4.556665","7.631128","4.155908","-2.690454","3.965698","-1.327881","2.082739","4.338941","-1.248926"
"Z","1617451819.0646126","7","1","-17","61","52","25","0.829712","0.032715","-0.46283","-0.310303","0.007634","-0.389313","-1.175573","4.654761","5.98982","4.805493","-2.67251","2.642602","-0.773999","0.87688","3.404639","-1.536035"
"Z","1617451819.0546224","7","3","-19","60","55","26","0.839355","0.022766","-0.457153","-0.293213","0.045802","-0.435115","-1.251908","4.726538","4.073364","5.602221","-2.66294","1.070679","-0.090918","-0.515601","2.229883","-1.732227"
"Z","1617451819.044688","7","0","-19","60","56","26","0.848816","0.012878","-0.450928","-0.275635","0.030534","-0.465649","-1.274809","4.834204","2.21792","6.593946","-2.597144","-0.43186","0.782373","-1.947559","1.056323","-1.622168"
"Z","1617451819.0345712","7","5","-19","60","52","26","0.857849","0.004456","-0.444519","-0.257935","-0.053435","-0.51145","-1.267176","4.901196","0.710596","7.637109","-2.549292","-1.611401","1.709497","-3.216821","0.119629","-1.286011"
"Z","1617451819.024743","7","6","-17","61","56","25","0.866333","-0.001526","-0.438049","-0.239929","-0.167939","-0.564885","-1.244275","4.850952","-0.228491","8.624048","-2.593555","-2.262183","2.585181","-4.202563","-0.375635","-0.845776"
"Z","1617451819.0148604","7","4","-19","56","52","25","0.874512","-0.005249","-0.431458","-0.221436","-0.267176","-0.603053","-1.21374","4.65835","-0.860132","9.461451","-2.758643","-2.642602","3.310132","-4.986133","-0.66394","-0.490479"
"Z","1617451819.0053697","7","11","-20","62","55","24","0.882141","-0.007324","-0.42511","-0.202698","-0.312977","-0.618321","-1.167939","4.429858","-1.418799","10.028491","-2.948853","-2.979956","3.770703","-5.541211","-1.000098","-0.287109"
"Z","1617451818.994844","7","5","-19","62","57","27","0.889038","-0.008728","-0.419067","-0.184326","-0.290076","-0.587786","-1.10687","4.312622","-2.054028","10.224683","-3.02063","-3.415405","3.867603","-5.76731","-1.557568","-0.226099"
"Z","1617451818.9848971","7","5","-19","60","55","26","0.894836","-0.010315","-0.413818","-0.167114","-0.21374","-0.496183","-1.022901","4.42627","-2.883057","10.081128","-2.865112","-4.056616","3.639111","-5.653662","-2.426074","-0.224902"
"Z","1617451818.974578","7","4","-17","63","55","26","0.899353","-0.012451","-0.409851","-0.151733","-0.137405","-0.358779","-0.938931","4.789941","-3.695337","9.69353","-2.471533","-4.694238","3.18811","-5.194287","-3.35918","-0.193799"
"Z","1617451818.9648817","7","4","-16","62","19","37","0.902588","-0.015015","-0.407471","-0.138245","-0.091603","-0.221374","-0.847328","5.316308","-4.402344","9.232959","-1.932007","-5.239746","2.690454","-4.555469","-4.202563","-0.081348"
"Z","1617451818.954801","7","3","-19","62","55","26","0.904663","-0.017212","-0.406494","-0.126465","-0.099237","-0.122137","-0.763359","5.840283","-4.827026","8.820239","-1.409229","-5.529248","2.264575","-3.896313","-4.74209","0.075366"
"Z","1617451818.9445257","7","5","-15","61","57","26","0.906128","-0.018494","-0.406433","-0.115845","-0.145038","-0.061069","-0.70229","6.217114","-4.949048","8.559448","-1.043164","-5.542407","2.002588","-3.383106","-4.929907","0.229687"
"Z","1617451818.934734","7","4","-15","60","56","26","0.907104","-0.018555","-0.406921","-0.105774","-0.206107","-0.038168","-0.656489","6.436035","-4.919141","8.435034","-0.836206","-5.432349","1.886548","-3.049341","-4.9323","0.354102"
"Z","1617451818.9247944","7","4","-15","62","54","26","0.907959","-0.017395","-0.407532","-0.095947","-0.282443","-0.030534","-0.633588","6.49585","-4.731323","8.364453","-0.788355","-5.187109","1.825537","-2.834009","-4.76123","0.38999"
"Z","1617451818.9146085","7","4","-17","58","54","26","0.90863","-0.014893","-0.408325","-0.085938","-0.343511","-0.022901","-0.603053","6.486279","-4.395166","8.297461","-0.809888","-4.817456","1.769312","-2.646191","-4.45498","0.367261"
"Z","1617451818.9054506","7","4","-19","59","54","26","0.909241","-0.01178","-0.409119","-0.075867","-0.358779","-0.038168","-0.572519","6.419287","-4.000391","8.20415","-0.888843","-4.398755","1.686768","-2.481103","-4.091309","0.278735"
"Z","1617451818.8946056","7","3","-17","59","55","26","0.909729","-0.008606","-0.40979","-0.066284","-0.328244","-0.053435","-0.51145","6.257788","-3.751563","7.993604","-1.059912","-4.12959","1.485791","-2.326782","-3.867603","0.034692"
"Z","1617451818.884698","7","7","-16","60","55","26","0.910095","-0.005615","-0.410278","-0.057739","-0.282443","-0.030534","-0.442748","6.187207","-3.599634","7.756738","-1.136475","-3.963306","1.256104","-2.117432","-3.74917","-0.162695"
"Z","1617451818.8747225","7","6","-12","60","55","26","0.910156","-0.00293","-0.411133","-0.050537","-0.236641","0.007634","-0.381679","6.316406","-3.440527","7.600024","-1.020435","-3.794629","1.112549","-1.860229","-3.630737","-0.163892"
"Z","1617451818.8647437","7","6","-15","60","48","26","0.909912","-0.00061","-0.412354","-0.044434","-0.19084","0.030534","-0.320611","6.447998","-3.295776","7.415796","-0.905591","-3.643897","0.948657","-1.601831","-3.520679","-0.183032"
"Z","1617451818.854602","7","4","-16","60","56","25","0.909546","0.001465","-0.413757","-0.039429","-0.167939","0.061069","-0.274809","6.52815","-3.152222","7.200464","-0.845776","-3.497949","0.754858","-1.367358","-3.402246","-0.263184"
"Z","1617451818.8448737","7","5","-15","58","54","26","0.908936","0.00354","-0.415466","-0.035278","-0.160305","0.083969","-0.229008","6.671704","-2.922534","7.06648","-0.727344","-3.271851","0.649585","-1.165186","-3.200073","-0.240454"
"Z","1617451818.835421","7","4","-13","58","56","26","0.908142","0.005798","-0.417419","-0.031799","-0.167939","0.114504","-0.19084","6.836792","-2.610303","6.970777","-0.588574","-2.972778","0.586182","-0.98335","-2.920142","-0.173462"
"Z","1617451818.825506","7","5","-13","62","52","26","0.907166","0.008362","-0.419617","-0.028748","-0.167939","0.122137","-0.152672","6.981543","-2.223901","6.946851","-0.47373","-2.60791","0.599341","-0.879272","-2.569629","-0.07417"
"Z","1617451818.8149216","7","5","-16","58","52","26","0.906189","0.010925","-0.421875","-0.026123","-0.160305","0.10687","-0.122137","7.023413","-1.857837","6.920532","-0.462964","-2.266968","0.611304","-0.850561","-2.234668","-0.055029"
"Z","1617451818.804762","7","4","-17","59","54","26","0.905334","0.013428","-0.423828","-0.024048","-0.145038","0.091603","-0.083969","6.970777","-1.53125","6.827222","-0.543115","-1.969092","0.550293","-0.832617","-1.937988","-0.151929"
"Z","1617451818.7955737","7","4","-13","56","57","26","0.90448","0.015869","-0.425537","-0.022522","-0.129771","0.076336","-0.053435","6.916944","-1.213037","6.712378","-0.619678","-1.681982","0.466553","-0.799121","-1.649683","-0.259595"
"Z","1617451818.7855294","7","4","-15","60","53","27","0.903748","0.018127","-0.427124","-0.021423","-0.10687","0.076336","-0.038168","6.873877","-0.905591","6.57959","-0.684277","-1.40564","0.361279","-0.745288","-1.370947","-0.369653"
"Z","1617451818.7748382","7","5","-15","59","54","25","0.902954","0.020081","-0.428711","-0.020691","-0.083969","0.083969","-0.015267","6.860718","-0.619678","6.432446","-0.717773","-1.148438","0.242847","-0.66394","-1.111353","-0.462964"
"Z","1617451818.7655308","7","5","-14","59","51","24","0.902161","0.021606","-0.430359","-0.020386","-0.053435","0.091603","0","6.891821","-0.355298","6.279321","-0.708203","-0.90918","0.118433","-0.552686","-0.869702","-0.525171"
"Z","1617451818.7555895","7","4","-13","60","57","26","0.901306","0.022644","-0.432129","-0.020447","-0.022901","0.099237","0.015267","6.973169","-0.165088","6.103467","-0.650781","-0.73811","-0.026318","-0.398364","-0.698633","-0.565845"
"Z","1617451818.745453","7","6","-12","59","54","26","0.900391","0.023315","-0.43396","-0.020874","0","0.10687","0.022901","7.10835","-0.002393","5.949145","-0.539526","-0.590967","-0.14834","-0.229687","-0.553882","-0.5479"
"Z","1617451818.7355978","7","5","-15","60","55","26","0.899475","0.023865","-0.435791","-0.021545","-0.007634","0.114504","0.030534","7.230371","0.200977","5.839087","-0.441431","-0.403149","-0.227295","-0.101685","-0.369653","-0.510815"
"Z","1617451818.7247696","7","1","-16","59","53","26","0.89856","0.024536","-0.4375","-0.022278","-0.022901","0.10687","0.038168","7.314111","0.470142","5.763721","-0.379224","-0.151929","-0.271558","-0.021533","-0.120825","-0.47373"
"Z","1617451818.7153733","7","4","-15","58","53","24","0.897766","0.025513","-0.439087","-0.022888","-0.045802","0.099237","0.038168","7.364356","0.77998","5.706299","-0.349316","0.133984","-0.301465","0.025122","0.162695","-0.449805"
"Z","1617451818.7050369","7","5","-12","60","54","26","0.897034","0.02655","-0.440491","-0.023254","-0.061069","0.083969","0.030534","7.383496","1.059912","5.663232","-0.34812","0.391187","-0.318213","0.045459","0.421094","-0.441431"
"Z","1617451818.6955214","7","5","-12","59","54","26","0.896423","0.027649","-0.441711","-0.023376","-0.068702","0.068702","0.030534","7.415796","1.264477","5.653662","-0.331372","0.575415","-0.30625","0.050244","0.604126","-0.406738"
"Z","1617451818.6846845","7","5","-15","60","53","26","0.895874","0.028625","-0.442749","-0.023315","-0.068702","0.053435","0.030534","7.458862","1.402051","5.650073","-0.301465","0.69624","-0.290698","0.058618","0.722559","-0.364868"
"Z","1617451818.6755326","7","3","-12","58","53","26","0.895386","0.029602","-0.443604","-0.023193","-0.068702","0.053435","0.022901","7.519873","1.478613","5.66084","-0.251221","0.757251","-0.263184","0.068188","0.77998","-0.301465"
"Z","1617451818.664743","7","3","-15","59","52","26","0.89502","0.030273","-0.444397","-0.022949","-0.053435","0.045802","0.007634","7.601221","1.510913","5.666821","-0.18064","0.778784","-0.244043","0.095703","0.796728","-0.23208"
"Z","1617451818.6554005","7","5","-11","61","51","26","0.894592","0.030457","-0.44519","-0.022583","-0.015267","0.045802","-0.007634","7.686157","1.441528","5.640503","-0.105273","0.709399","-0.25481","0.14834","0.722559","-0.183032"
"Z","1617451818.6448088","7","3","-16","59","51","25","0.894287","0.030029","-0.445984","-0.022278","0.015267","0.045802","-0.015267","7.757935","1.252515","5.567529","-0.045459","0.531152","-0.31582","0.230884","0.543115","-0.186621"
"Z","1617451818.635398","7","4","-16","59","52","26","0.893921","0.029114","-0.446716","-0.022156","0.038168","0.053435","-0.022901","7.850049","1.022827","5.490967","0.034692","0.318213","-0.38042","0.328979","0.326587","-0.177051"
"Z","1617451818.6255076","7","5","-12","59","54","26","0.893555","0.028137","-0.447449","-0.021973","0.030534","0.053435","-0.030534","7.937378","0.855347","5.434741","0.112451","0.168677","-0.424683","0.409131","0.173462","-0.151929"
"Z","1617451818.6147702","7","5","-12","61","54","26","0.89325","0.027466","-0.448242","-0.021729","0","0.061069","-0.038168","7.998389","0.769214","5.422778","0.161499","0.096899","-0.424683","0.437842","0.098096","-0.117236"
"Z","1617451818.605424","7","5","-16","58","54","26","0.892883","0.027222","-0.448914","-0.02124","-0.030534","0.053435","-0.038168","8.031885","0.747681","5.450293","0.186621","0.08374","-0.384009","0.419897","0.082544","-0.072974"
"Z","1617451818.595526","7","5","-16","59","55","26","0.892578","0.027466","-0.449524","-0.020508","-0.068702","0.045802","-0.045802","8.003174","0.77998","5.490967","0.149536","0.118433","-0.332568","0.356494","0.118433","-0.069385"
"Z","1617451818.585466","7","5","-12","61","54","26","0.892334","0.028137","-0.450012","-0.01947","-0.091603","0.030534","-0.045802","7.926611","0.856543","5.541211","0.065796","0.192603","-0.272754","0.259595","0.196191","-0.095703"
"Z","1617451818.5756574","7","4","-12","58","52","37","0.892151","0.029053","-0.450378","-0.01825","-0.099237","0.015267","-0.038168","7.844068","0.905591","5.578296","-0.020337","0.235669","-0.228491","0.172266","0.244043","-0.135181"
"Z","1617451818.5654445","7","3","-16","60","56","26","0.89209","0.029968","-0.450562","-0.017029","-0.083969","0.007634","-0.038168","7.769897","0.881665","5.59624","-0.098096","0.206958","-0.206958","0.108862","0.218921","-0.186621"
"Z","1617451818.5555208","7","1","-15","57","55","26","0.891968","0.030579","-0.450745","-0.01593","-0.053435","0.007634","-0.038168","7.69812","0.787158","5.609399","-0.172266","0.111255","-0.189014","0.049048","0.128003","-0.24165"
"Z","1617451818.5455818","7","6","-35","56","55","26","0.891907","0.030701","-0.450928","-0.015076","-0.015267","0.007634","-0.030534","7.64668","0.605322","5.593848","-0.226099","-0.0646","-0.202173","0.028711","-0.043066","-0.305054"
"Z","1617451818.5354607","7","5","-16","59","54","26","0.891785","0.030396","-0.451111","-0.014648","0.007634","0.007634","-0.038168","7.626343","0.424683","5.579492","-0.248828","-0.235669","-0.212939","0.023926","-0.212939","-0.340942"
"Z","1617451818.5254412","7","4","-16","61","54","26","0.891724","0.03009","-0.451294","-0.014282","0","0.007634","-0.030534","7.641894","0.340942","5.612988","-0.236865","-0.311035","-0.175854","0.001196","-0.289502","-0.314624"
"Z","1617451818.5155256","7","5","-16","56","54","26","0.891663","0.030029","-0.451477","-0.014038","-0.015267","0.007634","-0.030534","7.663428","0.362476","5.681177","-0.217725","-0.285913","-0.105273","-0.043066","-0.269165","-0.256006"
"Z","1617451818.505605","7","5","-12","60","57","26","0.891602","0.030273","-0.451538","-0.013672","-0.030534","0","-0.022901","7.670606","0.449805","5.764917","-0.211743","-0.19978","-0.020337","-0.107666","-0.186621","-0.194995"
"Z","1617451816.9867997","7","2","-13","62","57","27","0.876404","0.202759","-0.276611","-0.338074","0.10687","0.053435","0.068702","3.775488","6.063989","8.073755","0.367261","0.747681","0.579004","0.226099","0.15791","0.974976"
"Z","1617451816.9767225","7","3","-16","63","55","26","0.87616","0.20105","-0.276611","-0.339661","0.114504","0.061069","0.053435","3.890332","6.103467","8.084521","0.478516","0.808691","0.576611","0.327783","0.123218","1.04436"
"Z","1617451816.967405","7","3","-13","61","54","26","0.875977","0.199158","-0.276733","-0.341187","0.114504","0.061069","0.038168","4.008765","6.170459","8.102466","0.588574","0.899609","0.5802","0.439038","0.108862","1.134082"
"Z","1617451816.957539","7","4","-16","60","56","27","0.875854","0.197388","-0.276733","-0.342468","0.10687","0.045802","0.022901","4.050635","6.269751","8.113233","0.624463","1.022827","0.577808","0.525171","0.169873","1.209448"
"Z","1617451816.9474163","7","2","-17","61","55","23","0.875916","0.195862","-0.276428","-0.343445","0.083969","0.007634","0.015267","3.968091","6.419287","8.083325","0.540723","1.195093","0.532349","0.58977","0.355298","1.235767"
"Z","1617451816.9374082","7","3","-15","59","56","26","0.876038","0.194824","-0.275818","-0.344177","0.061069","-0.015267","0.015267","3.825732","6.65376","8.000781","0.403149","1.44751","0.435449","0.693848","0.641211","1.245337"
"Z","1617451816.927622","7","3","-13","60","51","26","0.87616","0.194153","-0.275208","-0.344727","0.045802","-0.015267","0.022901","3.724048","7.018628","7.897901","0.308643","1.824341","0.321802","0.897217","0.984546","1.323096"
"Z","1617451816.9174323","7","1","-13","60","53","26","0.876221","0.193542","-0.27478","-0.345276","0.030534","0.007634","0.030534","3.689355","7.461255","7.773486","0.279932","2.277734","0.187817","1.190308","1.336255","1.446314"
"Z","1617451816.907394","7","3","-12","62","56","26","0.876099","0.192749","-0.27478","-0.346069","0.045802","0.053435","0.045802","3.720459","7.92063","7.634717","0.308643","2.74668","0.043066","1.536035","1.658057","1.589868"
"Z","1617451816.8973644","7","2","-13","60","57","26","0.875793","0.191406","-0.275208","-0.347229","0.061069","0.099237","0.068702","3.824536","8.368042","7.446899","0.401953","3.208447","-0.149536","1.948755","1.933203","1.713086"
"Z","1617451816.8876731","7","3","-13","60","56","25","0.875305","0.189575","-0.276001","-0.348877","0.076336","0.129771","0.076336","3.925025","8.850146","7.241138","0.485693","3.709692","-0.361279","2.392578","2.241846","1.835107"
"Z","1617451816.877381","7","3","-16","60","56","26","0.874756","0.1875","-0.276855","-0.350708","0.061069","0.137405","0.061069","3.909473","9.447095","7.073657","0.451001","4.328174","-0.534741","2.806494","2.706006","2.003784"
"Z","1617451816.867484","7","3","-15","61","54","26","0.874268","0.185486","-0.277832","-0.352234","0.022901","0.122137","0.030534","3.795825","10.198364","6.961206","0.314624","5.100976","-0.650781","3.204858","3.341235","2.258594"
"Z","1617451816.857593","7","4","-12","60","56","25","0.874023","0.183777","-0.278748","-0.353027","-0.015267","0.091603","-0.015267","3.624756","11.06687","6.902588","0.120825","5.98982","-0.711792","3.593652","4.093701","2.592358"
"Z","1617451816.8473983","7","3","-15","62","55","26","0.874207","0.182312","-0.279358","-0.352783","-0.038168","0.038168","-0.076336","3.356787","11.990405","6.827222","-0.168677","6.934888","-0.790747","3.95852","4.9646","2.901001"
"Z","1617451816.8377423","7","3","-15","59","54","26","0.875183","0.180237","-0.27948","-0.351257","0","0.007634","-0.160305","3.043359","12.754834","6.750659","-0.509619","7.738794","-0.880469","4.215723","5.794824","3.090015"
"Z","1617451816.8276443","7","3","-15","60","56","26","0.877197","0.176331","-0.279175","-0.348511","0.122137","0","-0.259542","2.79812","13.055102","6.66333","-0.796728","8.115625","-0.998901","4.295874","6.318799","3.015845"
"Z","1617451816.817672","7","3","-17","60","54","25","0.880249","0.169189","-0.278442","-0.34491","0.305344","0.030534","-0.374046","2.707202","12.70459","6.540112","-0.952246","7.902686","-1.178345","4.1906","6.361865","2.587573"
"Z","1617451816.8074358","7","2","-15","60","53","26","0.884399","0.158325","-0.277466","-0.340271","0.480916","0.083969","-0.526718","2.740698","11.78584","6.434839","-1.012061","7.189697","-1.36377","3.889136","5.98623","1.897314"
"Z","1617451816.7975855","7","3","-14","58","56","26","0.889343","0.144287","-0.276733","-0.334106","0.572519","0.122137","-0.717557","2.868701","10.630224","6.434839","-1.009668","6.302051","-1.454687","3.468042","5.416797","1.210644"
"Z","1617451816.787589","7","1","-15","62","56","26","0.894958","0.129028","-0.276306","-0.325562","0.534351","0.099237","-0.916031","2.952441","9.628931","6.607104","-1.070679","5.602221","-1.368555","2.976367","4.9969","0.747681"
"Z","1617451816.7774916","7","2","-15","58","55","26","0.901367","0.114258","-0.275635","-0.313721","0.427481","-0.022901","-1.122137","2.709595","8.920728","6.867896","-1.45708","5.20625","-1.185522","2.341138","4.999292","0.378027"
"Z","1617451816.7677777","7","2","-16","60","56","26","0.908813","0.100708","-0.274048","-0.298096","0.320611","-0.160305","-1.305344","2.220313","8.164673","7.184912","-2.071973","4.769605","-0.943872","1.454687","5.08064","-0.038281"
"Z","1617451816.7574425","7","2","-17","58","56","25","0.916931","0.088135","-0.271362","-0.278992","0.244275","-0.274809","-1.435115","1.813574","7.072461","7.535425","-2.580395","4.00398","-0.668726","0.423486","4.768408","-0.462964"
"Z","1617451816.7476268","7","5","-13","60","56","26","0.925293","0.076843","-0.2677","-0.257446","0.167939","-0.366412","-1.519084","1.574316","5.739795","7.901489","-2.892627","2.994312","-0.378027","-0.588574","4.060205","-0.799121"
"Z","1617451816.7376535","7","6","-13","62","55","27","0.93335","0.067261","-0.263306","-0.234375","0.068702","-0.427481","-1.549618","1.312329","4.517188","8.280713","-3.195288","2.076758","-0.070581","-1.528857","3.340039","-1.012061"
"Z","1617451816.7277691","7","1","-13","58","53","29","0.940918","0.059631","-0.258423","-0.210449","-0.015267","-0.458015","-1.534351","0.939087","3.474023","8.65874","-3.580493","1.307544","0.236865","-2.428467","2.709595","-1.158008"
"Z","1617451816.7175877","7","3","-15","60","55","25","0.947571","0.053406","-0.253845","-0.186401","-0.068702","-0.435115","-1.480916","0.65437","2.386597","8.982935","-3.864014","0.466553","0.502441","-3.196484","1.897314","-1.254907"
"Z","1617451816.7077148","7","2","-16","61","52","26","0.953125","0.048523","-0.250122","-0.163086","-0.10687","-0.389313","-1.419847","0.605322","1.307544","9.179126","-3.911865","-0.398364","0.650781","-3.648682","0.92832","-1.305151"
"Z","1617451816.697655","7","3","-17","61","55","25","0.957581","0.044678","-0.247437","-0.140564","-0.137405","-0.335878","-1.374046","0.848169","0.483301","9.235352","-3.672607","-1.035986","0.674707","-3.660645","0.068188","-1.264477"
"Z","1617451816.6878586","7","5","-15","60","56","26","0.961182","0.041504","-0.245422","-0.118652","-0.137405","-0.267176","-1.335878","1.191504","-0.235669","9.186304","-3.335254","-1.587476","0.600537","-3.457275","-0.721362","-1.233374"
"Z","1617451816.677775","7","1","-16","60","56","26","0.96405","0.038452","-0.244202","-0.097473","-0.122137","-0.19084","-1.290076","1.514502","-1.087427","9.106153","-3.025415","-2.280127","0.503638","-3.233569","-1.617383","-1.236963"
"Z","1617451816.667611","7","4","-15","58","51","26","0.966125","0.035583","-0.243652","-0.077209","-0.114504","-0.137405","-1.236641","1.69873","-1.927222","8.990112","-2.860327","-2.969189","0.378027","-3.057715","-2.460767","-1.313525"
"Z","1617451816.6576655","7","4","-15","58","55","27","0.967529","0.03302","-0.243835","-0.057922","-0.10687","-0.083969","-1.175573","1.806396","-2.695239","8.911158","-2.77898","-3.597241","0.29668","-2.915356","-3.219214","-1.370947"
"Z","1617451816.6477184","7","3","-15","59","54","26","0.968262","0.030762","-0.244629","-0.039734","-0.076336","-0.045802","-1.10687","1.959522","-3.41062","8.825025","-2.658154","-4.184619","0.216528","-2.692847","-3.926221","-1.39248"
"Z","1617451816.6376224","7","1","-15","56","57","26","0.968628","0.028564","-0.245789","-0.022766","-0.053435","-0.022901","-1.045802","2.14375","-4.04585","8.729321","-2.509815","-4.696631","0.129199","-2.405737","-4.543506","-1.390088"
"Z","1617451816.6276624","7","1","-14","60","55","26","0.968628","0.02655","-0.246948","-0.007019","-0.030534","-0.007634","-0.984733","2.286108","-4.600928","8.70061","-2.39856","-5.138062","0.108862","-2.159302","-5.071069","-1.332666"
"Z","1617451816.6176505","7","4","-11","61","55","26","0.968323","0.024597","-0.24823","0.00769","-0.015267","0","-0.916031","2.390186","-5.116529","8.722143","-2.32439","-5.5448","0.142358","-1.954736","-5.549585","-1.235767"
"Z","1617451816.607719","7","5","-16","59","54","26","0.967834","0.02301","-0.249573","0.021179","-0.015267","0.015267","-0.839695","2.551685","-5.589063","8.828613","-2.191602","-5.921631","0.259595","-1.729834","-5.988623","-1.03479"
"Z","1617451816.5975797","7","2","-15","60","55","24","0.967102","0.021973","-0.25116","0.033264","-0.022901","0.030534","-0.755725","2.812476","-5.926416","9.010449","-1.961914","-6.178833","0.455786","-1.464258","-6.290088","-0.716577"
"Z","1617451816.5877335","7","4","-16","59","54","17","0.966248","0.021545","-0.252747","0.044067","-0.030534","0.030534","-0.671756","3.106763","-6.196777","9.189893","-1.697534","-6.385791","0.650781","-1.177148","-6.522168","-0.388794"
"Z","1617451816.577896","7","0","-15","59","54","24","0.965454","0.021667","-0.254028","0.05365","-0.030534","0.022901","-0.603053","3.305347","-6.428857","9.334643","-1.524072","-6.571216","0.808691","-0.959424","-6.723145","-0.142358"
"Z","1617451816.5684178","7","0","-17","57","52","26","0.964661","0.022278","-0.255127","0.062012","-0.038168","0.015267","-0.526718","3.408227","-6.610693","9.503321","-1.441528","-6.720752","0.988135","-0.845776","-6.891821","0.068188"
"Z","1617451816.5575335","7","1","-16","59","54","26","0.963867","0.023193","-0.256042","0.069275","-0.030534","0.015267","-0.450382","3.480005","-6.763818","9.686353","-1.387695","-6.85354","1.181934","-0.775195","-7.042554","0.272754"
"Z","1617451816.5476117","7","1","-17","59","54","29","0.963135","0.02417","-0.25708","0.075317","0","0.030534","-0.374046","3.566138","-7.009058","9.886133","-1.321899","-7.08562","1.39248","-0.699829","-7.290185","0.491675"
"Z","1617451816.5376365","7","2","-15","62","54","26","0.962402","0.025085","-0.258362","0.079895","0.038168","0.053435","-0.290076","3.695337","-7.297363","10.100268","-1.216626","-7.365552","1.620972","-0.608911","-7.578491","0.740503"
"Z","1617451816.5277264","7","3","-17","57","54","26","0.96167","0.026123","-0.259888","0.082947","0.068702","0.061069","-0.198473","3.788647","-7.500732","10.316797","-1.152026","-7.570117","1.854248","-0.588574","-7.79502","0.965405"
"Z","1617451816.518398","7","4","-16","63","56","26","0.96106","0.027222","-0.261536","0.084473","0.083969","0.068702","-0.114504","3.810181","-7.573706","10.504614","-1.1604","-7.652661","2.06001","-0.659155","-7.901489","1.123315"
"Z","1617451816.5084448","7","0","-16","62","55","26","0.96051","0.028625","-0.263367","0.084534","0.099237","0.083969","-0.015267","3.836499","-7.52107","10.703198","-1.168774","-7.622754","2.278931","-0.778784","-7.899096","1.281226"
"Z","1617451816.49763","7","2","-15","60","53","26","0.960083","0.030396","-0.265381","0.083008","0.10687","0.091603","0.083969","3.877173","-7.359571","10.891016","-1.165186","-7.499536","2.489478","-0.923535","-7.803393","1.427173"
"Z","1617451816.4877892","7","5","-16","60","55","25","0.959656","0.03241","-0.267456","0.079956","0.122137","0.099237","0.167939","3.927417","-7.158594","11.091992","-1.153223","-7.348804","2.71438","-1.096997","-7.680176","1.579102"
"Z","1617451816.478542","7","1","-17","61","55","26","0.959351","0.034424","-0.269653","0.0755","0.152672","0.10687","0.244275","3.915454","-6.925317","11.264257","-1.204663","-7.172949","2.912964","-1.335059","-7.536621","1.67002"
"Z","1617451816.467852","7","3","-16","60","53","26","0.959045","0.036194","-0.272095","0.069885","0.198473","0.114504","0.312977","3.878369","-6.713574","11.395849","-1.284814","-7.02102","3.07207","-1.589868","-7.411011","1.710693"
"Z","1617451816.457806","7","2","-13","58","54","26","0.95874","0.037476","-0.274658","0.062866","0.244275","0.122137","0.389313","3.84248","-6.530542","11.456861","-1.36377","-6.89541","3.162988","-1.824341","-7.293775","1.693945"
"Z","1617451816.4485934","7","4","-15","60","56","27","0.958374","0.038391","-0.277466","0.054443","0.290076","0.137405","0.465649","3.820947","-6.328369","11.480786","-1.431958","-6.753052","3.219214","-2.052832","-7.145434","1.653271"
"Z","1617451816.4378371","7","4","-13","62","56","25","0.957947","0.039124","-0.280579","0.044739","0.312977","0.160305","0.534351","3.787451","-6.030493","11.495142","-1.514502","-6.518579","3.268262","-2.312427","-6.89541","1.598242"
"Z","1617451816.4284844","7","3","-15","61","56","26","0.957336","0.039978","-0.283997","0.033813","0.305344","0.19084","0.603053","3.715674","-5.543603","11.473608","-1.638916","-6.104663","3.286206","-2.613892","-6.453979","1.49895"
"Z","1617451816.418337","7","3","-15","60","57","23","0.956482","0.041382","-0.287964","0.02179","0.282443","0.236641","0.694656","3.667822","-4.842578","11.432935","-1.747778","-5.494555","3.290991","-2.902197","-5.803198","1.400854"
"Z","1617451816.4083445","7","1","-15","58","52","32","0.9552","0.043518","-0.292664","0.008362","0.259542","0.282443","0.801527","3.698926","-3.984839","11.345606","-1.787256","-4.750464","3.261084","-3.10437","-5.001685","1.317114"
"Z","1617451816.398456","7","1","-13","61","53","26","0.95343","0.046326","-0.297852","-0.006531","0.244275","0.312977","0.900763","3.719263","-3.080444","11.161377","-1.839893","-3.983643","3.142651","-3.239551","-4.157104","1.159204"
"Z","1617451816.388372","7","3","-16","60","54","26","0.951294","0.049133","-0.303345","-0.022705","0.267176","0.343511","0.961832","3.617578","-2.223901","10.868286","-2.015747","-3.274243","2.918945","-3.377124","-3.340039","0.856543"
"Z","1617451816.378339","7","0","-16","60","53","26","0.948792","0.05127","-0.309143","-0.039795","0.328244","0.374046","1.007634","3.403442","-1.519287","10.444799","-2.305249","-2.713184","2.568433","-3.493164","-2.629443","0.38999"
"Z","1617451816.368514","7","5","-16","60","54","27","0.94574","0.052246","-0.315369","-0.057617","0.396947","0.419847","1.038168","3.219214","-0.991724","9.961499","-2.567236","-2.316016","2.164087","-3.518286","-2.057617","-0.10647"
"Z","1617451816.3583963","7","5","-15","61","55","28","0.942139","0.052246","-0.322266","-0.076294","0.427481","0.480916","1.091603","3.21084","-0.569434","9.503321","-2.661743","-2.015747","1.792041","-3.402246","-1.597046","-0.482104"
"Z","1617451816.3484025","7","1","-16","61","56","25","0.937744","0.052246","-0.329712","-0.095947","0.40458","0.526718","1.145038","3.298169","-0.017944","9.107348","-2.66294","-1.598242","1.490576","-3.203662","-1.040771","-0.71897"
"Z","1617451816.338375","7","3","-13","62","57","26","0.932617","0.05304","-0.337463","-0.11615","0.335878","0.541985","1.183206","3.334058","0.805103","8.744873","-2.713184","-0.931909","1.232178","-2.981152","-0.24165","-0.894824"
"Z","1617451816.3284502","7","1","-12","60","53","27","0.92688","0.054932","-0.345276","-0.136353","0.244275","0.541985","1.21374","3.283813","1.825537","8.393164","-2.841187","-0.094507","0.989331","-2.725147","0.727344","-1.046753"
"Z","1617451816.3183827","7","3","-15","60","54","26","0.920715","0.057922","-0.352844","-0.156311","0.175573","0.519084","1.236641","3.170166","2.877075","8.025904","-3.019433","0.750073","0.730933","-2.422485","1.703516","-1.199878"
"Z","1617451816.3084269","7","0","-17","59","56","25","0.914124","0.061707","-0.359924","-0.175964","0.129771","0.48855","1.244275","2.966797","3.901099","7.66582","-3.268262","1.55398","0.479712","-2.113843","2.648584","-1.355396"
"Z","1617451816.2984574","7","2","-16","58","56","26","0.907288","0.065613","-0.366638","-0.19519","0.10687","0.480916","1.251908","2.794531","4.818652","7.330859","-3.474023","2.249023","0.248828","-1.758545","3.460864","-1.452295"
"Z","1617451816.2885728","7","3","-15","62","54","26","0.900146","0.069214","-0.372986","-0.21405","0.114504","0.473282","1.236641","2.78855","5.519678","7.040161","-3.501538","2.733521","0.059814","-1.335059","3.988428","-1.427173"
"Z","1617451816.27842","7","1","-15","60","54","24","0.892761","0.072388","-0.379028","-0.232544","0.122137","0.473282","1.221374","2.811279","6.096289","6.733911","-3.490772","3.101978","-0.147144","-0.887646","4.367651","-1.399658"
"Z","1617451816.268418","7","3","-16","60","54","26","0.885132","0.075012","-0.384827","-0.25061","0.137405","0.473282","1.19084","2.918945","6.544898","6.468335","-3.387891","3.353198","-0.318213","-0.435449","4.573413","-1.30874"
"Z","1617451816.258503","7","2","-12","62","55","27","0.87738","0.077271","-0.390381","-0.268066","0.137405","0.465649","1.137405","2.973975","6.982739","6.162085","-3.332861","3.602026","-0.533545","0.026318","4.770801","-1.26687"
"Z","1617451816.248389","7","3","-16","60","57","26","0.869568","0.079102","-0.395752","-0.284607","0.122137","0.465649","1.083969","3.000293","7.430151","5.799609","-3.302954","3.873584","-0.807495","0.533545","4.968188","-1.263281"
"Z","1617451816.2384558","7","3","-15","60","54","26","0.861694","0.080688","-0.401001","-0.300232","0.099237","0.473282","1.030534","3.066089","7.882349","5.458667","-3.231177","4.159497","-1.061108","1.05752","5.127295","-1.202271"
"Z","1617451816.2286017","7","2","-17","56","52","26","0.853821","0.082214","-0.406372","-0.314819","0.068702","0.473282","0.992366","3.164185","8.408716","5.118921","-3.128296","4.524365","-1.311133","1.631738","5.305542","-1.075464"
"Z","1617451816.2184677","7","4","-17","59","55","26","0.845886","0.083862","-0.411682","-0.328552","0.030534","0.465649","0.946565","3.268262","9.000879","4.769605","-3.017041","4.958618","-1.569531","2.25022","5.500537","-0.904395"
"Z","1617451816.2085686","7","3","-15","58","53","26","0.838135","0.085571","-0.41687","-0.341309","0","0.450382","0.908397","3.36875","9.616968","4.41311","-2.905786","5.421582","-1.8375","2.886646","5.689551","-0.711792"
"Z","1617451816.1984782","7","4","-14","60","54","25","0.830505","0.087219","-0.421875","-0.353088","-0.030534","0.435115","0.870229","3.55896","10.182813","4.102075","-2.703613","5.842676","-2.06001","3.499146","5.766113","-0.435449"
"Z","1617451816.1885512","7","4","-16","60","53","26","0.823059","0.088989","-0.426575","-0.364197","-0.053435","0.40458","0.824427","3.763525","10.69961","3.785058","-2.4823","6.21831","-2.29209","4.092505","5.769702","-0.160303"
"Z","1617451816.1784773","7","-2","-16","59","53","26","0.816101","0.090881","-0.430786","-0.374268","-0.083969","0.366412","0.748092","3.899902","11.222387","3.496753","-2.323193","6.608301","-2.502637","4.639209","5.811572","0.102881"
"Z","1617451816.1684604","7","0","-13","61","57","26","0.809937","0.092773","-0.434509","-0.382935","-0.122137","0.312977","0.656489","3.956128","11.758326","3.240747","-2.244238","7.023413","-2.690454","5.135669","5.924024","0.343335"
"Z","1617451816.1583447","7","4","-15","61","52","26","0.804565","0.094727","-0.437744","-0.390015","-0.152672","0.267176","0.572519","3.972876","12.279907","3.006274","-2.205957","7.439722","-2.861523","5.589063","6.068774","0.569434"
"Z","1617451816.148541","7","3","-15","60","48","26","0.800049","0.096375","-0.440491","-0.395691","-0.160305","0.229008","0.48855","4.015943","12.763208","2.804101","-2.14375","7.835693","-3.009863","6.005371","6.1896","0.806299"
"Z","1617451816.1384635","7","5","-16","61","54","26","0.796448","0.097412","-0.442871","-0.400024","-0.129771","0.206107","0.396947","4.133179","13.11731","2.661743","-2.015747","8.123999","-3.106763","6.328369","6.20874","1.04436"
"Z","1617451816.1284063","7","4","-15","62","57","24","0.793762","0.097168","-0.444702","-0.403442","-0.061069","0.183206","0.290076","4.323389","13.228564","2.548096","-1.826733","8.199366","-3.190503","6.535327","6.049634","1.191504"
"Z","1617451816.118562","7","2","-13","61","54","26","0.792175","0.095032","-0.445801","-0.405884","0.030534","0.175573","0.160305","4.505225","13.047925","2.477515","-1.660449","8.025904","-3.250317","6.573608","5.757739","1.167578"
"Z","1617451816.1086135","7","2","-15","59","55","26","0.791687","0.090759","-0.446289","-0.407166","0.099237","0.160305","0.015267","4.66792","12.655542","2.487085","-1.532446","7.684961","-3.246728","6.451587","5.408423","1.027612"
"Z","1617451816.0985916","7","4","-15","61","55","27","0.792297","0.085083","-0.44635","-0.407166","0.114504","0.129771","-0.114504","4.879663","12.221289","2.621069","-1.372144","7.336841","-3.131885","6.237451","5.071069","0.94148"
"Z","1617451816.0885355","7","3","-17","58","57","26","0.793945","0.078857","-0.446045","-0.405518","0.076336","0.068702","-0.229008","5.09021","11.816943","2.841187","-1.223804","7.04375","-2.93689","5.973071","4.818652","0.90918"
"Z","1617451816.0785675","7","5","-16","60","56","26","0.796692","0.073059","-0.445251","-0.402161","0.015267","-0.015267","-0.343511","5.22539","11.44729","3.117529","-1.15083","6.796118","-2.69165","5.657251","4.68706","0.879272"
"Z","1617451816.0685763","7","4","-17","61","55","27","0.800598","0.06781","-0.443848","-0.396729","-0.038168","-0.10687","-0.450382","5.194287","11.068067","3.421387","-1.242944","6.552075","-2.426074","5.260083","4.701416","0.753662"
"Z","1617451816.0585165","7","5","-15","61","57","26","0.805847","0.063049","-0.441528","-0.389465","-0.061069","-0.206107","-0.549618","5.024414","10.558447","3.69773","-1.467847","6.191992","-2.202368","4.766016","4.733716","0.459375"
"Z","1617451816.0486293","7","4","-15","60","53","26","0.812195","0.058228","-0.438293","-0.380676","-0.053435","-0.274809","-0.633588","4.831811","9.85144","4.002783","-1.710693","5.653662","-1.965503","4.135571","4.651172","0.081348"
"Z","1617451816.0384338","7","1","-16","62","53","26","0.819153","0.053162","-0.434326","-0.370789","-0.030534","-0.290076","-0.709924","4.691846","9.018824","4.414307","-1.894922","5.007666","-1.631738","3.377124","4.457373","-0.230884"
"Z","1617451816.028575","7","4","-13","62","55","26","0.826477","0.047485","-0.430298","-0.359924","-0.022901","-0.290076","-0.78626","4.581787","8.145533","4.908374","-2.052832","4.340137","-1.217822","2.551685","4.219312","-0.465356"
"Z","1617451816.018576","7","3","-16","59","52","26","0.833801","0.041565","-0.426392","-0.348206","-0.030534","-0.29771","-0.847328","4.494458","7.296167","5.433545","-2.189209","3.706104","-0.768018","1.726245","3.968091","-0.620874"
"Z","1617451816.008742","7","3","-17","58","51","26","0.841125","0.035645","-0.422668","-0.335449","-0.061069","-0.312977","-0.916031","4.398755","6.506616","5.883349","-2.33396","3.139062","-0.388794","0.986938","3.724048","-0.773999"
"Z","1617451815.9985557","7","1","-15","62","56","27","0.848572","0.03009","-0.419067","-0.321533","-0.10687","-0.358779","-0.984733","4.318604","5.812768","6.276929","-2.460767","2.671314","-0.062207","0.34812","3.505127","-0.88645"
"Z","1617451815.9887097","7","3","-15","61","54","26","0.856323","0.024841","-0.415039","-0.306274","-0.129771","-0.396947","-1.045802","4.20376","5.097388","6.567627","-2.612695","2.188013","0.155518","-0.23208","3.231177","-1.065894"
"Z","1617451815.9786355","7","0","-16","60","55","24","0.864197","0.019592","-0.410706","-0.289978","-0.129771","-0.40458","-1.083969","4.225293","4.1906","6.884644","-2.619873","1.524072","0.398364","-0.843384","2.702417","-1.15083"
"Z","1617451815.9687655","7","3","-13","60","22","26","0.871765","0.01416","-0.406433","-0.273193","-0.114504","-0.381679","-1.099237","4.396362","3.093604","7.214819","-2.471533","0.674707","0.655566","-1.441528","1.908081","-1.126904"
"Z","1617451815.9585023","7","3","-13","61","54","25","0.878784","0.008545","-0.402344","-0.256348","-0.083969","-0.343511","-1.10687","4.596143","1.875781","7.444507","-2.290894","-0.291895","0.819458","-1.959522","0.95105","-1.119727"
"Z","1617451815.9488282","7","3","-16","60","57","26","0.885071","0.002563","-0.398926","-0.239746","-0.061069","-0.274809","-1.099237","4.85813","0.62207","7.606006","-2.049243","-1.296777","0.924731","-2.362671","-0.100488","-1.06709"
"Z","1617451815.9394257","7","4","-13","61","57","27","0.890442","-0.003235","-0.396423","-0.223633","-0.068702","-0.21374","-1.068702","5.190698","-0.517993","7.658643","-1.741797","-2.198779","0.937891","-2.561255","-1.117334","-0.965405"
"Z","1617451815.928637","7","-1","-12","59","56","26","0.894897","-0.007996","-0.394653","-0.20813","-0.122137","-0.167939","-1.007634","5.525659","-1.302759","7.631128","-1.428369","-2.771802","0.885254","-2.531348","-1.849463","-0.819458"
"Z","1617451815.919529","7","0","-15","58","57","27","0.898682","-0.011108","-0.393555","-0.193298","-0.198473","-0.145038","-0.931298","5.815161","-1.69873","7.59165","-1.158008","-2.993115","0.829028","-2.361475","-2.233472","-0.647192"
"Z","1617451815.90868","7","4","-12","58","51","26","0.901855","-0.012451","-0.392822","-0.179321","-0.267176","-0.122137","-0.839695","6.002978","-1.854248","7.547388","-0.98335","-3.014648","0.775195","-2.16648","-2.384204","-0.521582"
"Z","1617451815.8993385","7","4","-17","58","56","28","0.904541","-0.012329","-0.392395","-0.166138","-0.305344","-0.10687","-0.755725","6.129785","-1.91167","7.527051","-0.866113","-2.970386","0.747681","-2.000195","-2.438037","-0.421094"
"Z","1617451815.888707","7","3","-12","59","57","26","0.906799","-0.011475","-0.392334","-0.15387","-0.305344","-0.076336","-0.687023","6.19917","-2.024121","7.474414","-0.807495","-3.002686","0.692651","-1.875781","-2.543311","-0.397168"
"Z","1617451815.8785982","7","6","-12","60","57","28","0.908447","-0.010498","-0.3927","-0.1427","-0.267176","-0.030534","-0.618321","6.300855","-2.25022","7.377515","-0.720166","-3.160596","0.601733","-1.740601","-2.770606","-0.393579"
"Z","1617451815.8688507","7","3","-15","63","52","26","0.909607","-0.009583","-0.393555","-0.13269","-0.236641","0.007634","-0.564885","6.439624","-2.513403","7.274634","-0.600537","-3.365161","0.512012","-1.59585","-3.042163","-0.37085"
"Z","1617451815.8586557","7","3","-17","60","56","26","0.910461","-0.008728","-0.394592","-0.123596","-0.221374","0.015267","-0.526718","6.462354","-2.729932","7.170557","-0.599341","-3.529053","0.423486","-1.515698","-3.240747","-0.428271"
"Z","1617451815.8493755","7","1","-16","60","55","26","0.911194","-0.00769","-0.395447","-0.115234","-0.221374","0","-0.48855","6.32478","-2.847168","7.107153","-0.754858","-3.602026","0.373242","-1.544409","-3.312524","-0.565845"
"Z","1617451815.8387773","7","3","-12","59","54","27","0.911865","-0.006348","-0.396118","-0.107422","-0.221374","-0.007634","-0.450382","6.219507","-2.916553","7.147827","-0.873291","-3.636719","0.423486","-1.61499","-3.343628","-0.608911"
"Z","1617451815.8292794","7","3","-11","57","57","26","0.912476","-0.004517","-0.396667","-0.10022","-0.236641","-0.022901","-0.412214","6.172852","-2.928516","7.255493","-0.929517","-3.625952","0.539526","-1.684375","-3.338843","-0.562256"
"Z","1617451815.8185916","7","5","-13","60","54","26","0.913025","-0.002258","-0.397034","-0.093506","-0.244275","-0.045802","-0.366412","6.171655","-2.885449","7.39187","-0.936694","-3.572119","0.680689","-1.733423","-3.296973","-0.462964"
"Z","1617451815.8092694","7","5","-15","60","57","27","0.913513","0.000488","-0.397217","-0.087463","-0.244275","-0.053435","-0.320611","6.188403","-2.784961","7.518677","-0.922339","-3.474023","0.811084","-1.758545","-3.216821","-0.35769"
"Z","1617451815.7995343","7","3","-15","60","55","26","0.914062","0.00354","-0.397217","-0.08197","-0.244275","-0.061069","-0.282443","6.184814","-2.637817","7.643091","-0.924731","-3.338843","0.935498","-1.790845","-3.097192","-0.269165"
"Z","1617451815.7895014","7","4","-15","60","53","27","0.914429","0.006714","-0.397217","-0.077087","-0.229008","-0.061069","-0.244275","6.163281","-2.487085","7.736402","-0.945068","-3.207251","1.030005","-1.819556","-2.979956","-0.216528"
"Z","1617451815.7786467","7","3","-15","58","56","26","0.914734","0.009766","-0.397278","-0.072815","-0.198473","-0.053435","-0.21374","6.160889","-2.351904","7.79502","-0.947461","-3.093604","1.089819","-1.819556","-2.88186","-0.175854"
"Z","1617451815.7696211","7","4","-12","62","57","27","0.914917","0.012451","-0.397461","-0.069153","-0.160305","-0.038168","-0.183206","6.147729","-2.257397","7.793823","-0.961816","-3.018237","1.092212","-1.796826","-2.82085","-0.185425"
"Z","1617451815.7595105","7","4","-14","62","55","27","0.914856","0.014648","-0.397949","-0.066162","-0.122137","-0.015267","-0.160305","6.195581","-2.177246","7.768701","-0.919946","-2.954834","1.07666","-1.728638","-2.776587","-0.16748"
"Z","1617451815.7493086","7","3","-12","59","56","26","0.914673","0.016479","-0.398743","-0.063782","-0.091603","0.007634","-0.137405","6.294873","-2.065991","7.712476","-0.832617","-2.859131","1.033594","-1.612598","-2.703613","-0.132788"
"Z","1617451815.7396605","7","5","-16","60","56","26","0.914368","0.018005","-0.399719","-0.061951","-0.068702","0.022901","-0.10687","6.421679","-1.900903","7.616773","-0.71897","-2.708398","0.954639","-1.451099","-2.578003","-0.098096"
"Z","1617451815.7294896","7","5","-13","62","57","26","0.91394","0.019592","-0.400818","-0.060547","-0.068702","0.030534","-0.083969","6.548486","-1.666431","7.51748","-0.607715","-2.49187","0.873291","-1.286011","-2.383008","-0.061011"
"Z","1617451815.7192824","7","3","-15","59","57","26","0.913452","0.021301","-0.401978","-0.05957","-0.083969","0.030534","-0.061069","6.608301","-1.33147","7.401441","-0.563452","-2.182031","0.776392","-1.148438","-2.086328","-0.076563"
"Z","1617451815.7093391","7","3","-17","58","57","15","0.913025","0.023254","-0.402954","-0.058777","-0.083969","0.022901","-0.038168","6.585571","-0.958228","7.25669","-0.598145","-1.8375","0.649585","-1.041968","-1.742993","-0.165088"
"Z","1617451815.6995232","7","5","-13","59","55","26","0.912598","0.025146","-0.403931","-0.058167","-0.083969","0.030534","-0.022901","6.534131","-0.611304","7.099976","-0.661548","-1.520483","0.509619","-0.948657","-1.423584","-0.283521"
"Z","1617451815.689384","7","5","-15","59","54","26","0.912109","0.026917","-0.404968","-0.0578","-0.068702","0.045802","0","6.516187","-0.311035","6.921729","-0.692651","-1.250122","0.349316","-0.824243","-1.152026","-0.394775"
"Z","1617451815.6786096","7","-4","-16","60","55","26","0.911499","0.028503","-0.40625","-0.057739","-0.053435","0.068702","0.015267","6.559253","-0.04187","6.729126","-0.665137","-1.009668","0.179443","-0.656763","-0.916357","-0.470142"
"Z","1617451815.6694412","7","3","-15","60","57","26","0.910706","0.029724","-0.407776","-0.057983","-0.038168","0.083969","0.022901","6.628638","0.192603","6.53772","-0.616089","-0.800317","0.014355","-0.482104","-0.712988","-0.526367"
"Z","1617451815.6593585","7","4","-13","61","54","26","0.909912","0.030762","-0.409546","-0.058411","-0.030534","0.10687","0.030534","6.724341","0.419897","6.331958","-0.544312","-0.596948","-0.161499","-0.284717","-0.517993","-0.571826"
"Z","1617451815.6486456","7","4","-15","62","57","26","0.908936","0.031616","-0.411438","-0.05896","-0.022901","0.114504","0.030534","6.84397","0.648389","6.13457","-0.448608","-0.38999","-0.326587","-0.078955","-0.322998","-0.58977"
"Z","1617451815.6393952","7","1","-17","61","55","27","0.90802","0.032349","-0.413391","-0.059509","-0.022901","0.114504","0.038168","6.968384","0.86731","5.964697","-0.350513","-0.19021","-0.46416","0.10647","-0.136377","-0.586182"
"Z","1617451815.629455","7","1","-13","62","56","29","0.907104","0.032898","-0.415283","-0.06012","-0.022901","0.114504","0.038168","7.077246","1.038379","5.817554","-0.266772","-0.034692","-0.5802","0.263184","0.007178","-0.581396"
"Z","1617451815.6192489","7","3","-15","60","57","25","0.90625","0.033386","-0.416992","-0.060669","-0.022901","0.10687","0.038168","7.217212","1.175952","5.690747","-0.149536","0.086133","-0.678296","0.425879","0.112451","-0.543115"
"Z","1617451815.6087513","7","1","-14","60","56","26","0.905457","0.033875","-0.418518","-0.061279","-0.030534","0.091603","0.038168","7.351196","1.302759","5.612988","-0.034692","0.198584","-0.729736","0.549097","0.208154","-0.476123"
"Z","1617451815.599481","7","4","-13","95","55","26","0.904907","0.034546","-0.419739","-0.061707","-0.045802","0.076336","0.038168","7.449292","1.416406","5.607007","0.045459","0.295483","-0.716577","0.600537","0.293091","-0.393579"
"Z","1617451815.5894003","7","4","-17","60","56","26","0.90448","0.035339","-0.420532","-0.06189","-0.061069","0.053435","0.015267","7.509107","1.502539","5.688354","0.095703","0.364868","-0.620874","0.565845","0.354102","-0.284717"
"Z","1617451815.5792246","7","3","-12","62","56","26","0.904236","0.036011","-0.420959","-0.061768","-0.053435","0.022901","0.007634","7.481592","1.495361","5.812768","0.063403","0.346924","-0.488086","0.441431","0.339746","-0.224902"
"Z","1617451815.5692973","7","5","-15","60","57","26","0.904236","0.036377","-0.421021","-0.061462","-0.038168","0","-0.007634","7.400244","1.381714","5.92522","-0.016748","0.229687","-0.374438","0.294287","0.234473","-0.226099"
"Z","1617451815.559298","7","3","-15","61","52","26","0.904297","0.036621","-0.420837","-0.061157","-0.022901","-0.015267","-0.007634","7.302148","1.2573","6.011353","-0.112451","0.102881","-0.289502","0.15791","0.120825","-0.258398"
"Z","1617451815.5494304","7","3","-13","58","57","26","0.90448","0.036743","-0.420471","-0.060913","-0.015267","-0.022901","-0.007634","7.212427","1.147241","6.085523","-0.197388","-0.005981","-0.221313","0.04187","0.025122","-0.291895"
"Z","1617451815.539327","7","3","-16","62","54","28","0.904663","0.036865","-0.420166","-0.060852","-0.015267","-0.022901","0","7.155005","1.073071","6.147729","-0.250024","-0.081348","-0.165088","-0.039478","-0.04187","-0.303857"
"Z","1617451815.529419","7","2","-12","60","55","26","0.904724","0.037048","-0.419922","-0.060791","-0.015267","-0.015267","-0.007634","7.141846","1.047949","6.215918","-0.259595","-0.108862","-0.099292","-0.098096","-0.069385","-0.272754"
"Z","1617451815.519452","7","3","-16","58","56","26","0.904846","0.037231","-0.419739","-0.060669","-0.015267","-0.015267","0","7.15022","1.041968","6.270947","-0.248828","-0.117236","-0.047852","-0.131592","-0.080151","-0.23208"
"Z","1617451815.5094838","7","3","-15","62","56","26","0.904907","0.037476","-0.419617","-0.060608","-0.015267","-0.015267","0","7.184912","1.012061","6.330762","-0.212939","-0.150732","0.008374","-0.154321","-0.118433","-0.172266"
"Z","1617451815.4994628","7","3","-16","58","57","25","0.904968","0.037781","-0.419434","-0.060608","-0.015267","-0.015267","0.007634","7.21123","0.979761","6.400146","-0.183032","-0.187817","0.075366","-0.189014","-0.160303","-0.111255"
"Z","1617451813.8812797","7","1","-13","61","57","25","0.835693","0.183411","-0.31311","-0.412292","0.114504","0.122137","0.114504","5.074658","12.607691","4.953833","1.427173","7.072461","-2.264575","6.25061","3.154614","2.856738"
"Z","1617451813.8715446","7","1","-15","61","55","26","0.835693","0.179626","-0.312134","-0.414612","0.137405","0.10687","0.030534","5.126099","13.016821","4.714575","1.472632","7.537817","-2.542114","6.761426","3.37832","2.879468"
"Z","1617451813.86131","7","1","-13","61","56","26","0.836487","0.175293","-0.31073","-0.415894","0.122137","0.061069","-0.068702","5.017236","13.379297","4.578198","1.35061","7.97207","-2.726343","7.115527","3.731225","2.871094"
"Z","1617451813.8512833","7","0","-15","61","57","24","0.838257","0.170898","-0.308838","-0.415588","0.076336","-0.007634","-0.175573","4.737305","13.742969","4.586572","1.055127","8.419482","-2.770606","7.293775","4.2552","2.889038"
"Z","1617451813.8415248","7","1","-15","60","55","26","0.841125","0.166809","-0.306396","-0.41333","0.022901","-0.091603","-0.305344","4.263574","14.065967","4.75166","0.563452","8.833399","-2.66294","7.24353","4.946655","2.912964"
"Z","1617451813.8314185","7","1","-15","59","57","26","0.845215","0.162903","-0.303284","-0.408691","0","-0.198473","-0.450382","3.552979","14.205933","5.061499","-0.166284","9.077441","-2.414111","6.852344","5.760132","2.844775"
"Z","1617451813.8213942","7","-1","-16","60","54","27","0.850952","0.158569","-0.299133","-0.40155","0.030534","-0.29771","-0.625954","2.650977","13.949926","5.496948","-1.089819","8.950635","-2.055225","6.03169","6.522168","2.564844"
"Z","1617451813.811425","7","1","5","61","55","25","0.858337","0.153076","-0.293945","-0.391602","0.099237","-0.396947","-0.80916","1.708301","13.229761","6.036475","-2.061206","8.397949","-1.609009","4.821045","7.050928","2.091113"
"Z","1617451813.80142","7","1","-15","61","55","25","0.86731","0.145752","-0.288025","-0.378967","0.183206","-0.458015","-1","0.868506","12.068164","6.61189","-2.944067","7.450488","-1.146045","3.360376","7.216016","1.45708"
"Z","1617451813.7914152","7","2","-15","60","55","27","0.877319","0.136536","-0.28186","-0.363647","0.259542","-0.473282","-1.160305","0.360083","10.56084","7.176538","-3.512305","6.203955","-0.701025","1.870996","6.866699","0.805103"
"Z","1617451813.7813644","7","-3","-16","62","55","26","0.887634","0.126038","-0.276184","-0.346252","0.267176","-0.458015","-1.267176","0.287109","8.947046","7.655054","-3.661841","4.879663","-0.337354","0.629248","6.069971","0.27395"
"Z","1617451813.771561","7","4","-15","61","57","25","0.897644","0.115662","-0.271362","-0.327332","0.21374","-0.427481","-1.343511","0.593359","7.504321","8.030688","-3.438135","3.727637","-0.062207","-0.202173","5.066284","-0.028711"
"Z","1617451813.7614524","7","1","-15","46","56","26","0.907043","0.106445","-0.267578","-0.307068","0.10687","-0.396947","-1.412214","1.039575","6.459961","8.318995","-3.075659","2.95603","0.144751","-0.655566","4.215723","-0.113647"
"Z","1617451813.7517383","7","-1","-15","61","56","26","0.915894","0.098877","-0.264282","-0.2854","0","-0.40458","-1.465649","1.309937","5.641699","8.545093","-2.880664","2.387793","0.30625","-1.050342","3.598438","-0.18064"
"Z","1617451813.7414834","7","0","-17","59","54","17","0.924316","0.092773","-0.260864","-0.262573","-0.068702","-0.427481","-1.496183","1.167578","4.821045","8.75205","-3.080444","1.796826","0.45459","-1.691553","3.14624","-0.395972"
"Z","1617451813.7317455","7","1","-16","61","52","26","0.932251","0.087524","-0.257202","-0.238953","-0.091603","-0.419847","-1.48855","0.642407","3.834106","8.996094","-3.646289","1.030005","0.642407","-2.668921","2.659351","-0.753662"
"Z","1617451813.7215369","7","1","-17","58","57","23","0.939209","0.082581","-0.254089","-0.215515","-0.091603","-0.381679","-1.442748","0.12561","2.635425","9.297559","-4.202563","0.04187","0.896021","-3.713281","1.873389","-1.07666"
"Z","1617451813.7115843","7","0","-13","60","54","26","0.945068","0.078003","-0.252075","-0.192749","-0.083969","-0.328244","-1.396947","-0.086133","1.495361","9.516479","-4.459765","-0.900806","1.081445","-4.401147","0.922339","-1.280029"
"Z","1617451813.7015457","7","3","-11","61","51","6","0.94989","0.073669","-0.251282","-0.170654","-0.068702","-0.267176","-1.374046","0.095703","0.595752","9.582275","-4.335351","-1.616186","1.125708","-4.565039","0","-1.353003"
"Z","1617451813.691473","7","0","-14","59","57","26","0.953857","0.069336","-0.251343","-0.148926","-0.061069","-0.21374","-1.358779","0.543115","-0.198584","9.499731","-3.952539","-2.22749","1.031201","-4.348511","-0.905591","-1.38291"
"Z","1617451813.6816278","7","1","-16","60","56","26","0.957092","0.065247","-0.25177","-0.127747","-0.061069","-0.175573","-1.312977","1.019238","-0.899609","9.344213","-3.539819","-2.753857","0.869702","-3.992017","-1.710693","-1.41521"
"Z","1617451813.6715364","7","0","-14","62","54","26","0.959656","0.061523","-0.25238","-0.107422","-0.068702","-0.145038","-1.259542","1.396069","-1.52168","9.173144","-3.22041","-3.209644","0.695044","-3.6427","-2.391382","-1.469043"
"Z","1617451813.661654","7","1","-13","61","54","24","0.96167","0.05835","-0.253052","-0.088013","-0.076336","-0.114504","-1.198473","1.619775","-2.045654","9.000879","-3.048145","-3.581689","0.521582","-3.369946","-2.930908","-1.562353"
"Z","1617451813.6517131","7","3","-15","60","53","26","0.963074","0.055664","-0.253967","-0.06958","-0.099237","-0.076336","-1.137405","1.807593","-2.530151","8.915942","-2.909375","-3.926221","0.440234","-3.139062","-3.422583","-1.579102"
"Z","1617451813.6414936","7","-1","-15","59","56","26","0.963928","0.053894","-0.255371","-0.052124","-0.137405","-0.038168","-1.061069","2.06958","-2.921338","8.924316","-2.700024","-4.200171","0.459375","-2.867505","-3.84248","-1.465454"
"Z","1617451813.6315403","7","1","-15","32","57","26","0.964233","0.053223","-0.25708","-0.035828","-0.183206","-0.022901","-0.984733","2.335156","-3.135474","8.98772","-2.485889","-4.320996","0.53833","-2.599536","-4.090112","-1.281226"
"Z","1617451813.6216238","7","0","-15","62","56","26","0.964233","0.053589","-0.258728","-0.020569","-0.21374","-0.030534","-0.908397","2.564844","-3.267066","9.058301","-2.302856","-4.383203","0.625659","-2.357886","-4.256396","-1.104175"
"Z","1617451813.611635","7","1","-25","61","57","25","0.963989","0.054504","-0.260071","-0.006287","-0.21374","-0.038168","-0.839695","2.774194","-3.469238","9.148023","-2.131787","-4.530347","0.732129","-2.136572","-4.490869","-0.929517"
"Z","1617451813.601548","7","3","-15","61","54","26","0.963623","0.055664","-0.261108","0.006836","-0.198473","-0.045802","-0.770992","2.966797","-3.797021","9.268847","-1.971484","-4.812671","0.866113","-1.933203","-4.846167","-0.750073"
"Z","1617451813.591346","7","0","-13","63","57","25","0.963196","0.056763","-0.261963","0.01886","-0.167939","-0.045802","-0.709924","3.17854","-4.230078","9.462646","-1.787256","-5.203857","1.070679","-1.734619","-5.305542","-0.50603"
"Z","1617451813.5813398","7","2","-13","55","56","26","0.962708","0.057861","-0.262512","0.029846","-0.145038","-0.053435","-0.656489","3.334058","-4.720557","9.697119","-1.652075","-5.658447","1.313525","-1.58269","-5.821143","-0.258398"
"Z","1617451813.571797","7","3","-14","62","55","27","0.962158","0.059082","-0.262878","0.039917","-0.137405","-0.061069","-0.59542","3.45249","-5.18352","9.991406","-1.550391","-6.091504","1.613794","-1.482202","-6.316406","0.022729"
"Z","1617451813.5622628","7","1","-15","62","54","59","0.961609","0.060669","-0.263123","0.048828","-0.137405","-0.061069","-0.526718","3.566138","-5.5771","10.341919","-1.451099","-6.468335","1.970288","-1.414014","-6.76023","0.350513"
"Z","1617451813.5519135","7","1","-16","59","51","26","0.960999","0.062744","-0.263184","0.056519","-0.129771","-0.053435","-0.442748","3.6427","-5.939575","10.721143","-1.38291","-6.829614","2.356689","-1.390088","-7.189697","0.680689"
"Z","1617451813.5416794","7","-1","-15","61","55","25","0.960449","0.065308","-0.263245","0.062805","-0.114504","-0.053435","-0.358779","3.667822","-6.266162","11.094385","-1.367358","-7.170557","2.735913","-1.416406","-7.603613","0.967798"
"Z","1617451813.5315654","7","1","-13","58","55","26","0.9599","0.068298","-0.263306","0.067749","-0.10687","-0.045802","-0.274809","3.648682","-6.488672","11.464038","-1.394873","-7.422974","3.11394","-1.501343","-7.934985","1.226196"
"Z","1617451813.5222414","7","1","-12","60","57","26","0.959351","0.071594","-0.26355","0.071228","-0.091603","-0.030534","-0.183206","3.606812","-6.602319","11.816943","-1.448706","-7.579688","3.477612","-1.632935","-8.176636","1.454687"
"Z","1617451813.5114925","7","3","-13","61","57","26","0.958801","0.075073","-0.263916","0.073242","-0.045802","-0.015267","-0.10687","3.569726","-6.689649","12.14712","-1.496558","-7.72085","3.822144","-1.7729","-8.399145","1.659253"
"Z","1617451813.5017493","7","2","-15","61","55","13","0.958252","0.078369","-0.264709","0.073792","0.007634","0.007634","-0.022901","3.509912","-6.743482","12.411499","-1.574316","-7.832105","4.105664","-1.939185","-8.583374","1.792041"
"Z","1617451813.491567","7","1","-19","61","57","26","0.957825","0.081177","-0.265869","0.072815","0.076336","0.038168","0.061069","3.456079","-6.762622","12.63999","-1.650879","-7.906274","4.354492","-2.121021","-8.722143","1.897314"
"Z","1617451813.4816234","7","1","5","94","52","25","0.957275","0.083435","-0.2677","0.070007","0.145038","0.076336","0.160305","3.438135","-6.730322","12.823023","-1.69873","-7.927808","4.563843","-2.306445","-8.790332","1.98584"
"Z","1617451813.472304","7","2","-13","59","56","26","0.956787","0.085327","-0.270081","0.06543","0.198473","0.122137","0.251908","3.463257","-6.596338","12.966578","-1.710693","-7.850049","4.738501","-2.496655","-8.743677","2.06958"
"Z","1617451813.46221","7","0","-14","62","66","-11","0.956177","0.086914","-0.273132","0.059204","0.244275","0.160305","0.335878","3.478809","-6.358276","13.080225","-1.740601","-7.669409","4.890429","-2.739502","-8.58457","2.131787"
"Z","1617451813.451684","7","1","-14","61","55","26","0.955505","0.088379","-0.276672","0.05127","0.267176","0.183206","0.435115","3.476416","-5.985034","13.185498","-1.793237","-7.361963","5.03877","-3.045752","-8.289087","2.189209"
"Z","1617451813.4423456","7","3","-12","61","54","26","0.954712","0.090027","-0.280396","0.041809","0.274809","0.19084","0.519084","3.422583","-5.50293","13.238134","-1.897314","-6.957617","5.138062","-3.397461","-7.87876","2.183228"
"Z","1617451813.4324002","7","-3","-16","60","57","26","0.953857","0.091797","-0.284058","0.031067","0.290076","0.198473","0.587786","3.307739","-4.9323","13.229761","-2.057617","-6.475513","5.176343","-3.775488","-7.365552","2.106665"
"Z","1617451813.4215317","7","-1","-16","61","57","26","0.952881","0.093384","-0.287842","0.019348","0.305344","0.221374","0.633588","3.097192","-4.354492","13.137647","-2.313623","-5.988623","5.13208","-4.182227","-6.810473","1.914062"
"Z","1617451813.4116075","7","1","-12","59","56","26","0.951599","0.094666","-0.292236","0.006775","0.328244","0.282443","0.694656","2.979956","-3.814966","13.031177","-2.4823","-5.541211","5.08064","-4.498047","-6.270947","1.760937"
"Z","1617451813.4022355","7","-3","-13","62","57","26","0.949829","0.095825","-0.297485","-0.006836","0.351145","0.351145","0.748092","2.866309","-3.24314","12.799097","-2.658154","-5.066284","4.914355","-4.746875","-5.659644","1.512109"
"Z","1617451813.392294","7","1","-13","60","55","26","0.94751","0.096863","-0.303833","-0.021484","0.366412","0.442748","0.80916","2.710791","-2.573218","12.447388","-2.890234","-4.499243","4.640405","-4.962207","-4.913159","1.159204"
"Z","1617451813.382408","7","-1","-13","59","55","26","0.944458","0.097961","-0.311462","-0.037354","0.358779","0.534351","0.89313","2.5146","-1.735815","11.973658","-3.17854","-3.776685","4.262378","-5.127295","-3.964502","0.71897"
"Z","1617451813.37234","7","2","-13","62","57","26","0.940491","0.099426","-0.320251","-0.054504","0.335878","0.603053","0.992366","2.32439","-0.695044","11.357569","-3.471631","-2.869897","3.761133","-5.156006","-2.790942","0.223706"
"Z","1617451813.3622782","7","0","-17","61","55","25","0.935669","0.101562","-0.329895","-0.073181","0.29771","0.656489","1.114504","2.190405","0.520386","10.623047","-3.713281","-1.81477","3.158203","-4.988525","-1.44751","-0.263184"
"Z","1617451813.3523362","7","0","-15","62","56","26","0.929993","0.10437","-0.339783","-0.093262","0.267176","0.679389","1.21374","2.14375","1.832715","9.844263","-3.858032","-0.690259","2.520581","-4.611694","-0.049048","-0.656763"
"Z","1617451813.341532","7","1","-13","61","54","25","0.923706","0.107483","-0.349487","-0.114258","0.251908","0.687023","1.267176","2.049243","3.13667","9.049927","-4.036279","0.407935","1.8698","-4.141553","1.320703","-1.022827"
"Z","1617451813.332397","7","0","-15","62","57","26","0.916809","0.110107","-0.359009","-0.135559","0.267176","0.70229","1.290076","1.996606","4.234863","8.291479","-4.16189","1.301563","1.254907","-3.578101","2.453589","-1.324292"
"Z","1617451813.3222375","7","2","-13","61","56","26","0.909424","0.111938","-0.368408","-0.157043","0.29771","0.732824","1.305344","2.088721","5.074658","7.60481","-4.133179","1.945166","0.710596","-2.912964","3.258691","-1.502539"
"Z","1617451813.3123662","7","4","-13","62","57","26","0.901367","0.112976","-0.377869","-0.178711","0.320611","0.770992","1.320611","2.28252","5.779273","7.003076","-3.996802","2.45957","0.251221","-2.198779","3.850854","-1.55398"
